inst1_resp.keys,inst1_resp.rt,calibrationMouse.x,calibrationMouse.y,calibrationMouse.leftButton,calibrationMouse.midButton,calibrationMouse.rightButton,calibrationClick.x,calibrationClick.y,calibrationClick.leftButton,calibrationClick.midButton,calibrationClick.rightButton,trialsc.thisRepN,trialsc.thisTrialN,trialsc.thisN,trialsc.thisIndex,trialsc.ran,calibration_x,calibration_y,participant,session,date,expName,psychopyVersion,OS,frameRate,calibrationClick.clicked_name,ScreenRes_pixels,mouse_2.x,mouse_2.y,mouse_2.leftButton,mouse_2.midButton,mouse_2.rightButton,mouse_2.time,mouse_2.clicked_name,Camera_pixels,mouse.x,mouse.y,mouse.leftButton,mouse.midButton,mouse.rightButton,mouse.time,mouse.clicked_name,Choice,Trial,TrialDuration,MOUSE_GAZE,ET_GAZE,ET_GAZE_x_T,time,unixTime,ET_GAZE_NF,Loc_Option1_label,Loc_Option2_label,Loc_Cost_label,Loc_Qual_label,Loc_Option1_cost,Loc_Option2_cost,Loc_Option1_quality,Loc_Option2_quality,trials.thisRepN,trials.thisTrialN,trials.thisN,trials.thisIndex,trials.ran,Block,Device,cost1,qual1,cost2,qual2
space,7.2246,-0.24375,0.209259259,1,0,0,-0.321875,0.022222222,1,0,0,0,0,0,6,1,-0.33,0,09,001,2024-12-02_15h27.08.707,Attention_exp_legacy,2023.1.0,Win32,60.24096386,,,,,,,,,,,,,,,,,,,,,,,,,,,,,,,,,,,,,,,,,,,,,
,,,,,,,-0.0125,0.672222222,1,0,0,0,1,1,13,1,0,0.67,09,001,2024-12-02_15h27.08.707,Attention_exp_legacy,2023.1.0,Win32,60.24096386,,,,,,,,,,,,,,,,,,,,,,,,,,,,,,,,,,,,,,,,,,,,,
,,,,,,,0.31875,0.311111111,1,0,0,0,2,2,17,1,0.33,0.33,09,001,2024-12-02_15h27.08.707,Attention_exp_legacy,2023.1.0,Win32,60.24096386,,,,,,,,,,,,,,,,,,,,,,,,,,,,,,,,,,,,,,,,,,,,,
,,,,,,,0.338541667,-0.340740741,1,0,0,0,3,3,15,1,0.33,-0.33,09,001,2024-12-02_15h27.08.707,Attention_exp_legacy,2023.1.0,Win32,60.24096386,,,,,,,,,,,,,,,,,,,,,,,,,,,,,,,,,,,,,,,,,,,,,
,,,,,,,-0.327083333,-0.681481481,1,0,0,0,4,4,4,1,-0.33,-0.67,09,001,2024-12-02_15h27.08.707,Attention_exp_legacy,2023.1.0,Win32,60.24096386,,,,,,,,,,,,,,,,,,,,,,,,,,,,,,,,,,,,,,,,,,,,,
,,,,,,,-0.011458333,-0.353703704,1,0,0,0,5,5,10,1,0,-0.33,09,001,2024-12-02_15h27.08.707,Attention_exp_legacy,2023.1.0,Win32,60.24096386,,,,,,,,,,,,,,,,,,,,,,,,,,,,,,,,,,,,,,,,,,,,,
,,,,,,,-0.326041667,0.666666667,1,0,0,0,6,6,8,1,-0.33,0.67,09,001,2024-12-02_15h27.08.707,Attention_exp_legacy,2023.1.0,Win32,60.24096386,calibration_square,,,,,,,,,,,,,,,,,,,,,,,,,,,,,,,,,,,,,,,,,,,,
,,,,,,,0.732291667,-0.544444444,1,0,0,0,7,7,20,1,0.67,-0.67,09,001,2024-12-02_15h27.08.707,Attention_exp_legacy,2023.1.0,Win32,60.24096386,,,,,,,,,,,,,,,,,,,,,,,,,,,,,,,,,,,,,,,,,,,,,
,,,,,,,-0.677083333,-0.007407407,1,0,0,0,8,8,2,1,-0.67,0,09,001,2024-12-02_15h27.08.707,Attention_exp_legacy,2023.1.0,Win32,60.24096386,calibration_square,,,,,,,,,,,,,,,,,,,,,,,,,,,,,,,,,,,,,,,,,,,,
,,,,,,,-0.3375,0.351851852,1,0,0,0,9,9,7,1,-0.33,0.33,09,001,2024-12-02_15h27.08.707,Attention_exp_legacy,2023.1.0,Win32,60.24096386,,,,,,,,,,,,,,,,,,,,,,,,,,,,,,,,,,,,,,,,,,,,,
,,,,,,,0.325,0.675925926,1,0,0,0,10,10,18,1,0.33,0.67,09,001,2024-12-02_15h27.08.707,Attention_exp_legacy,2023.1.0,Win32,60.24096386,calibration_square,,,,,,,,,,,,,,,,,,,,,,,,,,,,,,,,,,,,,,,,,,,,
,,,,,,,0,-0.011111111,1,0,0,0,11,11,11,1,0,0,09,001,2024-12-02_15h27.08.707,Attention_exp_legacy,2023.1.0,Win32,60.24096386,,,,,,,,,,,,,,,,,,,,,,,,,,,,,,,,,,,,,,,,,,,,,
,,,,,,,-0.679166667,-0.701851852,1,0,0,0,12,12,0,1,-0.67,-0.67,09,001,2024-12-02_15h27.08.707,Attention_exp_legacy,2023.1.0,Win32,60.24096386,,,,,,,,,,,,,,,,,,,,,,,,,,,,,,,,,,,,,,,,,,,,,
,,,,,,,0.68125,0.668518519,1,0,0,0,13,13,19,1,0.67,0.67,09,001,2024-12-02_15h27.08.707,Attention_exp_legacy,2023.1.0,Win32,60.24096386,,,,,,,,,,,,,,,,,,,,,,,,,,,,,,,,,,,,,,,,,,,,,
,,,,,,,-0.660416667,0.32037037,1,0,0,0,14,14,3,1,-0.67,0.33,09,001,2024-12-02_15h27.08.707,Attention_exp_legacy,2023.1.0,Win32,60.24096386,calibration_square,,,,,,,,,,,,,,,,,,,,,,,,,,,,,,,,,,,,,,,,,,,,
,,,,,,,-0.030208333,-0.651851852,1,0,0,0,15,15,9,1,0,-0.67,09,001,2024-12-02_15h27.08.707,Attention_exp_legacy,2023.1.0,Win32,60.24096386,,,,,,,,,,,,,,,,,,,,,,,,,,,,,,,,,,,,,,,,,,,,,
,,,,,,,0.336458333,0.001851852,1,0,0,0,16,16,16,1,0.33,0,09,001,2024-12-02_15h27.08.707,Attention_exp_legacy,2023.1.0,Win32,60.24096386,calibration_square,,,,,,,,,,,,,,,,,,,,,,,,,,,,,,,,,,,,,,,,,,,,
,,,,,,,-0.00625,0.337037037,1,0,0,0,17,17,12,1,0,0.33,09,001,2024-12-02_15h27.08.707,Attention_exp_legacy,2023.1.0,Win32,60.24096386,calibration_square,,,,,,,,,,,,,,,,,,,,,,,,,,,,,,,,,,,,,,,,,,,,
,,,,,,,0.334375,-0.690740741,1,0,0,0,18,18,14,1,0.33,-0.67,09,001,2024-12-02_15h27.08.707,Attention_exp_legacy,2023.1.0,Win32,60.24096386,,,,,,,,,,,,,,,,,,,,,,,,,,,,,,,,,,,,,,,,,,,,,
,,,,,,,-0.664583333,-0.32962963,1,0,0,0,19,19,1,1,-0.67,-0.33,09,001,2024-12-02_15h27.08.707,Attention_exp_legacy,2023.1.0,Win32,60.24096386,calibration_square,,,,,,,,,,,,,,,,,,,,,,,,,,,,,,,,,,,,,,,,,,,,
,,,,,,,-0.327083333,-0.327777778,1,0,0,0,20,20,5,1,-0.33,-0.33,09,001,2024-12-02_15h27.08.707,Attention_exp_legacy,2023.1.0,Win32,60.24096386,calibration_square,,,,,,,,,,,,,,,,,,,,,,,,,,,,,,,,,,,,,,,,,,,,
,,,,,,,,,,,,,,,,,,,09,001,2024-12-02_15h27.08.707,Attention_exp_legacy,2023.1.0,Win32,60.24096386,,"[1920,1080]",[0.09166666666666666],[-0.5055555555555555],[1],[0],[0],[0.9647999999988812],"[""StartButton""]","[640,480]",[0.004166666666666667],[0.40925925925925927],[1],[0],[0],[2.4631999999992615],"[""Option1_label""]",Option1_label,1,3.488,"[[0.04791666666666667,0.34444444444444444],[0.04791666666666667,0.34444444444444444],[0.04791666666666667,0.34444444444444444],[0.04791666666666667,0.34444444444444444],[0.04791666666666667,0.34444444444444444],[0.04791666666666667,0.34444444444444444],[0.04791666666666667,0.34444444444444444],[0.04791666666666667,0.34444444444444444],[0.04791666666666667,0.34444444444444444],[0.04791666666666667,0.34444444444444444],[0.04791666666666667,0.34444444444444444],[0.04791666666666667,0.34444444444444444],[0.04791666666666667,0.34444444444444444],[0.04791666666666667,0.34444444444444444],[0.046875,0.34629629629629627],[0.04583333333333333,0.35],[0.04583333333333333,0.35],[0.04583333333333333,0.35],[0.04583333333333333,0.35],[0.04583333333333333,0.35],[0.04583333333333333,0.35],[0.04583333333333333,0.35],[0.04583333333333333,0.35],[0.04583333333333333,0.35],[0.04583333333333333,0.35],[0.04583333333333333,0.35],[0.04375,0.35],[0.041666666666666664,0.35],[0.041666666666666664,0.35],[0.041666666666666664,0.35],[0.041666666666666664,0.35],[0.041666666666666664,0.35],[0.041666666666666664,0.35],[0.041666666666666664,0.35],[0.040625,0.35],[0.03958333333333333,0.34814814814814815],[0.03958333333333333,0.34814814814814815],[0.03958333333333333,0.34814814814814815],[0.03958333333333333,0.34814814814814815],[0.03958333333333333,0.34814814814814815],[0.03958333333333333,0.34814814814814815],[0.03958333333333333,0.34814814814814815],[0.03958333333333333,0.34814814814814815],[0.03958333333333333,0.34814814814814815],[0.03958333333333333,0.34814814814814815],[0.03958333333333333,0.34814814814814815],[0.03958333333333333,0.34814814814814815],[0.03958333333333333,0.34814814814814815],[0.03958333333333333,0.34814814814814815],[0.03958333333333333,0.34814814814814815],[0.03958333333333333,0.34814814814814815],[0.03958333333333333,0.34814814814814815],[0.03958333333333333,0.34814814814814815],[0.03958333333333333,0.34814814814814815],[0.03958333333333333,0.34814814814814815],[0.03958333333333333,0.34814814814814815],[0.03958333333333333,0.34814814814814815],[0.03958333333333333,0.34814814814814815],[0.03958333333333333,0.34814814814814815],[0.03958333333333333,0.34814814814814815],[0.03958333333333333,0.34814814814814815],[0.03958333333333333,0.34814814814814815],[0.03958333333333333,0.34814814814814815],[0.03958333333333333,0.34814814814814815],[0.03958333333333333,0.34814814814814815],[0.03958333333333333,0.34814814814814815],[0.03958333333333333,0.34814814814814815],[0.03958333333333333,0.34814814814814815],[0.03958333333333333,0.34814814814814815],[0.03958333333333333,0.34814814814814815],[0.03958333333333333,0.34814814814814815],[0.03958333333333333,0.34814814814814815],[0.03958333333333333,0.34814814814814815],[0.03958333333333333,0.34814814814814815],[0.03958333333333333,0.34814814814814815],[0.03958333333333333,0.34814814814814815],[0.03958333333333333,0.34814814814814815],[0.03958333333333333,0.34814814814814815],[0.03958333333333333,0.34814814814814815],[0.03958333333333333,0.34814814814814815],[0.03958333333333333,0.34814814814814815],[0.03958333333333333,0.34814814814814815],[0.03958333333333333,0.34814814814814815],[0.03958333333333333,0.34814814814814815],[0.03958333333333333,0.34814814814814815],[0.03958333333333333,0.34814814814814815],[0.03958333333333333,0.34814814814814815],[0.03958333333333333,0.34814814814814815],[0.03958333333333333,0.34814814814814815],[0.03958333333333333,0.34814814814814815],[0.03958333333333333,0.34814814814814815],[0.03958333333333333,0.34814814814814815],[0.03958333333333333,0.34814814814814815],[0.03958333333333333,0.34814814814814815],[0.03958333333333333,0.34814814814814815],[0.03958333333333333,0.34814814814814815],[0.03958333333333333,0.34814814814814815],[0.03958333333333333,0.34814814814814815],[0.03958333333333333,0.34814814814814815],[0.03958333333333333,0.34814814814814815],[0.036458333333333336,0.3425925925925926],[0.034375,0.3277777777777778],[0.029166666666666667,0.3037037037037037],[0.017708333333333333,0.2611111111111111],[0.010416666666666666,0.23148148148148148],[0.005208333333333333,0.21296296296296297],[0.003125,0.20185185185185187],[0.003125,0.2],[0.0020833333333333333,0.1962962962962963],[0.0020833333333333333,0.1962962962962963],[0.0010416666666666667,0.19444444444444445],[0.0010416666666666667,0.19444444444444445],[0.0010416666666666667,0.19444444444444445],[0.0010416666666666667,0.19444444444444445],[0.0010416666666666667,0.19444444444444445],[0.0010416666666666667,0.19444444444444445],[0.0010416666666666667,0.2037037037037037],[0,0.22037037037037038],[0,0.2462962962962963],[0,0.2759259259259259],[0,0.3074074074074074],[0,0.337037037037037],[0,0.3648148148148148],[0.003125,0.3851851851851852],[0.003125,0.4],[0.003125,0.40555555555555556],[0.004166666666666667,0.40925925925925927],[0.004166666666666667,0.40925925925925927],[0.004166666666666667,0.40925925925925927],[0.004166666666666667,0.40925925925925927],[0.004166666666666667,0.40925925925925927],[0.004166666666666667,0.40925925925925927],[0.004166666666666667,0.40925925925925927],[0.004166666666666667,0.40925925925925927],[0.004166666666666667,0.40925925925925927],[0.004166666666666667,0.40925925925925927],[0.004166666666666667,0.40925925925925927],[0.004166666666666667,0.40925925925925927],[0.004166666666666667,0.40925925925925927],[0.004166666666666667,0.40925925925925927],[0.004166666666666667,0.40925925925925927],[0.004166666666666667,0.40925925925925927],[0.004166666666666667,0.40925925925925927],[0.004166666666666667,0.40925925925925927],[0.004166666666666667,0.40925925925925927],[0.004166666666666667,0.40925925925925927],[0.004166666666666667,0.40925925925925927],[0.004166666666666667,0.40925925925925927],[0.004166666666666667,0.40925925925925927],[0.004166666666666667,0.40925925925925927],[0.004166666666666667,0.40925925925925927],[0.004166666666666667,0.40925925925925927],[0.004166666666666667,0.40925925925925927],[0.004166666666666667,0.40925925925925927],[0.004166666666666667,0.40925925925925927],[0.004166666666666667,0.40925925925925927],[0.004166666666666667,0.40925925925925927],[0.004166666666666667,0.40925925925925927],[0.004166666666666667,0.40925925925925927],[0.004166666666666667,0.40925925925925927],[0.004166666666666667,0.40925925925925927],[0.004166666666666667,0.40925925925925927],[0.004166666666666667,0.40925925925925927],[0.004166666666666667,0.40925925925925927],[0.004166666666666667,0.40925925925925927],[0.004166666666666667,0.40925925925925927],[0.004166666666666667,0.40925925925925927],[0.004166666666666667,0.40925925925925927],[0.004166666666666667,0.40925925925925927],[0.004166666666666667,0.40925925925925927],[0.004166666666666667,0.40925925925925927],[0.004166666666666667,0.40925925925925927],[0.004166666666666667,0.40925925925925927],[0.004166666666666667,0.40925925925925927],[0.004166666666666667,0.40925925925925927],[0.004166666666666667,0.40925925925925927],[0.004166666666666667,0.40925925925925927],[0.004166666666666667,0.40925925925925927],[0.004166666666666667,0.40925925925925927],[0.004166666666666667,0.40925925925925927],[0.004166666666666667,0.40925925925925927],[0.004166666666666667,0.40925925925925927],[0.004166666666666667,0.40925925925925927],[0.004166666666666667,0.40925925925925927],[0.004166666666666667,0.40925925925925927],[0.004166666666666667,0.40925925925925927],[0.004166666666666667,0.40925925925925927],[0.004166666666666667,0.40925925925925927],[0.004166666666666667,0.40925925925925927],[0.004166666666666667,0.40925925925925927],[0.004166666666666667,0.40925925925925927],[0.004166666666666667,0.40925925925925927],[0.004166666666666667,0.40925925925925927],[0.004166666666666667,0.40925925925925927],[0.004166666666666667,0.40925925925925927],[0.004166666666666667,0.40925925925925927],[0.004166666666666667,0.40925925925925927],[0.004166666666666667,0.40925925925925927],[0.004166666666666667,0.40925925925925927],[0.004166666666666667,0.40925925925925927],[0.004166666666666667,0.40925925925925927],[0.004166666666666667,0.40925925925925927],[0.004166666666666667,0.40925925925925927],[0.004166666666666667,0.40925925925925927],[0.004166666666666667,0.40925925925925927],[0.004166666666666667,0.40925925925925927],[0.004166666666666667,0.40925925925925927],[0.004166666666666667,0.40925925925925927]]","[[-0.20510416666666664,0.2796296296296296],[-0.20510416666666664,0.2796296296296296],[-0.22135416666666666,0.27018518518518514],[-0.22010416666666663,0.26777777777777784],[-0.22312500000000005,0.22370370370370363],[-0.22614583333333335,0.17962962962962964],[-0.25583333333333336,0.17833333333333326],[-0.27697916666666667,0.17814814814814822],[-0.2867708333333333,0.14814814814814814],[-0.2990625,0.16518518518518527],[-0.30020833333333335,0.1557407407407408],[-0.30531250000000004,0.1646296296296296],[-0.30354166666666665,0.1727777777777777],[-0.3329166666666667,0.17518518518518522],[-0.34260416666666665,0.20314814814814824],[-0.32218749999999996,0.15055555555555547],[-0.28927083333333337,0.07574074074074069],[-0.2548958333333334,0.014259259259259343],[-0.23802083333333332,-0.04814814814814815],[-0.21260416666666668,-0.12037037037037036],[-0.21260416666666668,-0.12037037037037036],[-0.19249999999999995,-0.16296296296296298],[-0.17281249999999998,-0.17685185185185184],[-0.1625,-0.20907407407407402],[-0.13218749999999999,-0.2614814814814815],[-0.115625,-0.32685185185185184],[-0.115625,-0.32685185185185184],[-0.11916666666666664,-0.2964814814814815],[-0.11916666666666664,-0.2964814814814815],[-0.11802083333333328,-0.25981481481481483],[-0.11802083333333328,-0.25981481481481483],[-0.12083333333333333,-0.2868518518518518],[-0.12083333333333333,-0.2868518518518518],[-0.10750000000000005,-0.24685185185185188],[-0.10750000000000005,-0.24685185185185188],[-0.11218750000000005,-0.255],[-0.11187499999999997,-0.2862962962962963],[-0.11187499999999997,-0.2862962962962963],[-0.10645833333333338,-0.3124074074074074],[-0.10645833333333338,-0.3124074074074074],[-0.09833333333333331,-0.3527777777777778],[-0.09833333333333331,-0.3527777777777778],[-0.10499999999999995,-0.37222222222222223],[-0.10093749999999997,-0.3962962962962963],[-0.10093749999999997,-0.3962962962962963],[-0.11031249999999998,-0.4179629629629629],[-0.11031249999999998,-0.4179629629629629],[-0.10343749999999995,-0.45796296296296296],[-0.10343749999999995,-0.45796296296296296],[-0.10968749999999995,-0.505],[-0.12062499999999995,-0.5435185185185185],[-0.10625,-0.54],[-0.121875,-0.5518518518518518],[-0.13531249999999997,-0.5922222222222222],[-0.13229166666666667,-0.5853703703703704],[-0.1313541666666667,-0.5937037037037037],[-0.12729166666666672,-0.5914814814814814],[-0.11593749999999996,-0.5916666666666667],[-0.1280208333333333,-0.5974074074074075],[-0.13093750000000004,-0.544074074074074],[-0.13500000000000004,-0.5001851851851852],[-0.15364583333333334,-0.5075925925925926],[-0.1516666666666667,-0.5092592592592593],[-0.15437500000000004,-0.4524074074074074],[-0.16437499999999997,-0.4251851851851852],[-0.14895833333333333,-0.4009259259259259],[-0.13802083333333334,-0.3737037037037037],[-0.11937500000000002,-0.35185185185185186],[-0.09791666666666667,-0.3225925925925926],[-0.0702083333333333,-0.3081481481481481],[-0.044062499999999956,-0.3472222222222222],[-0.022083333333333382,-0.32],[0.00458333333333331,-0.29796296296296293],[0.022291666666666644,-0.30092592592592593],[0.044479166666666715,-0.30833333333333335],[0.05406249999999998,-0.28722222222222227],[0.059687499999999956,-0.26185185185185184],[0.0546875,-0.2638888888888889],[0.051979166666666646,-0.2740740740740741],[0.051979166666666646,-0.2740740740740741],[0.05583333333333336,-0.2683333333333333],[0.06427083333333337,-0.27518518518518525],[0.07395833333333333,-0.27629629629629626],[0.08083333333333324,-0.26537037037037037],[0.1134375000000001,-0.2544444444444444],[0.14197916666666663,-0.23055555555555557],[0.14364583333333342,-0.2322222222222222],[0.14541666666666658,-0.23425925925925925],[0.1502083333333334,-0.22759259259259254],[0.18864583333333323,-0.21777777777777782],[0.20354166666666676,-0.22481481481481477],[0.19375,-0.1940740740740741],[0.19145833333333329,-0.18111111111111114],[0.1794791666666666,-0.17370370370370372],[0.10843749999999991,-0.13388888888888892],[0.04885416666666664,-0.12537037037037035],[0.008749999999999977,-0.09537037037037037],[-0.021145833333333287,-0.08537037037037042],[-0.05499999999999995,-0.06648148148148143],[-0.12927083333333336,-0.036481481481481566],[-0.21458333333333332,-0.03740740740740749],[-0.22291666666666668,-0.05611111111111113],[-0.24114583333333334,-0.04462962962962967],[-0.23072916666666668,-0.042407407407407366],[-0.18520833333333328,-0.09703703703703699],[-0.16739583333333338,-0.14500000000000002],[-0.16739583333333338,-0.14500000000000002],[-0.15177083333333338,-0.17759259259259255],[-0.12395833333333334,-0.18833333333333332],[-0.0985416666666667,-0.19500000000000003],[-0.043229166666666666,-0.26055555555555554],[0.01416666666666669,-0.2553703703703703],[0.017812500000000023,-0.25092592592592594],[0.04052083333333331,-0.28777777777777774],[0.041458333333333285,-0.3175925925925926],[0.04656250000000005,-0.30481481481481487],[0.06906249999999996,-0.3194444444444444],[0.08624999999999995,-0.3412962962962963],[0.08624999999999995,-0.3412962962962963],[0.08093750000000005,-0.3646296296296296],[0.07062499999999995,-0.3718518518518519],[0.07791666666666662,-0.3059259259259259],[0.10739583333333323,-0.277962962962963],[0.11791666666666671,-0.27685185185185185],[0.11791666666666671,-0.27685185185185185],[0.12177083333333343,-0.24259259259259258],[0.13093750000000004,-0.22666666666666663],[0.1415625000000001,-0.22092592592592594],[0.1345833333333334,-0.17407407407407408],[0.14729166666666677,-0.13796296296296295],[0.1256249999999999,-0.1096296296296296],[0.11177083333333329,-0.08574074074074076],[0.059895833333333336,-0.12018518518518514],[0.008645833333333287,-0.14574074074074073],[-0.03718750000000005,-0.13555555555555554],[-0.08552083333333335,-0.14740740740740746],[-0.09239583333333339,-0.14481481481481479],[-0.12854166666666664,-0.18462962962962962],[-0.15177083333333338,-0.22037037037037038],[-0.17020833333333332,-0.23870370370370367],[-0.15958333333333338,-0.25870370370370366],[-0.14708333333333337,-0.2803703703703703],[-0.13541666666666666,-0.3020370370370371],[-0.13479166666666664,-0.3146296296296296],[-0.1203125,-0.3387037037037037],[-0.09927083333333328,-0.4009259259259259],[-0.11135416666666664,-0.4557407407407408],[-0.12177083333333331,-0.4633333333333333],[-0.11968749999999997,-0.4787037037037037],[-0.12989583333333338,-0.46870370370370373],[-0.13479166666666664,-0.4492592592592593],[-0.13406250000000006,-0.3933333333333333],[-0.1310416666666666,-0.307962962962963],[-0.12072916666666664,-0.2511111111111112],[-0.11645833333333329,-0.1801851851851852],[-0.11875,-0.07111111111111107],[-0.14645833333333336,0.020555555555555598],[-0.11968749999999997,0.051666666666666625],[-0.13510416666666672,0.09648148148148153],[-0.13510416666666672,0.09648148148148153],[-0.13989583333333327,0.09425925925925922],[-0.1359375,0.10777777777777786],[-0.1359375,0.10777777777777786],[-0.15395833333333328,0.04259259259259259],[-0.1704166666666667,-0.027407407407407325],[-0.1704166666666667,-0.027407407407407325],[-0.1860416666666667,-0.072037037037037],[-0.1860416666666667,-0.072037037037037],[-0.2235416666666667,-0.09203703703703701],[-0.24833333333333332,-0.1440740740740741],[-0.2585416666666667,-0.17444444444444443],[-0.30093749999999997,-0.14444444444444443],[-0.31197916666666664,-0.12444444444444443],[-0.3338541666666667,-0.09166666666666666],[-0.35958333333333337,-0.08814814814814818],[-0.36218750000000005,-0.0485185185185186],[-0.38406250000000003,-0.006851851851851936],[-0.40375,0.017407407407407365],[-0.4015625,0.01703703703703712],[-0.41208333333333336,0.04870370370370362],[-0.4155208333333333,0.08888888888888889],[-0.4244791666666667,0.09592592592592585],[-0.40864583333333326,0.10944444444444448],[-0.4028125000000001,0.08666666666666659],[-0.39718749999999997,0.0977777777777777],[-0.39468749999999997,0.11037037037037041],[-0.3828125,0.13277777777777786],[-0.3584375,0.10611111111111103],[-0.3460416666666667,0.10740740740740741],[-0.336875,0.07777777777777778],[-0.3572916666666667,0.0485185185185186],[-0.3252083333333334,0.017592592592592594],[-0.3132291666666667,-0.019259259259259216],[-0.28572916666666665,-0.03166666666666671],[-0.27364583333333337,-0.03777777777777774],[-0.27447916666666666,-0.08537037037037042],[-0.2671875,-0.13851851851851854],[-0.2638541666666666,-0.13796296296296295],[-0.25239583333333326,-0.1574074074074074],[-0.25239583333333326,-0.1574074074074074],[-0.22697916666666665,-0.17685185185185184],[-0.18656250000000002,-0.16111111111111112],[-0.1922916666666667,-0.125],[-0.1955208333333334,-0.08703703703703704],[-0.2029166666666666,-0.1051851851851852],[-0.2016666666666667,-0.1411111111111111],[-0.1907291666666667,-0.13185185185185183],[-0.18083333333333335,-0.125]]","[[-0.20510416666666664,0.2796296296296296,0.000199999999253464],[-0.20510416666666664,0.2796296296296296,0.03759999999962815],[-0.22135416666666666,0.27018518518518514,0.054000000000002046],[-0.22010416666666663,0.26777777777777784,0.0705999999996294],[-0.22312500000000005,0.22370370370370363,0.08950000000000102],[-0.22614583333333335,0.17962962962962964,0.10419999999925267],[-0.25583333333333336,0.17833333333333326,0.12059999999962656],[-0.27697916666666667,0.17814814814814822,0.1403999999985075],[-0.2867708333333333,0.14814814814814814,0.15399999999999636],[-0.2990625,0.16518518518518527,0.17329999999888202],[-0.30020833333333335,0.1557407407407408,0.1901999999992512],[-0.30531250000000004,0.1646296296296296,0.20649999999999835],[-0.30354166666666665,0.1727777777777777,0.22099999999999653],[-0.3329166666666667,0.17518518518518522,0.2397999999988798],[-0.34260416666666665,0.20314814814814824,0.25639999999850716],[-0.32218749999999996,0.15055555555555547,0.27309999999962287],[-0.28927083333333337,0.07574074074074069,0.28999999999999915],[-0.2548958333333334,0.014259259259259343,0.30619999999925085],[-0.23802083333333332,-0.04814814814814815,0.32069999999925614],[-0.21260416666666668,-0.12037037037037036,0.3373999999985102],[-0.21260416666666668,-0.12037037037037036,0.3539999999999992],[-0.19249999999999995,-0.16296296296296298,0.37079999999888],[-0.17281249999999998,-0.17685185185185184,0.3875999999996296],[-0.1625,-0.20907407407407402,0.40399999999999636],[-0.13218749999999999,-0.2614814814814815,0.42069999999925045],[-0.115625,-0.32685185185185184,0.4377999999988802],[-0.115625,-0.32685185185185184,0.45739999999850767],[-0.11916666666666664,-0.2964814814814815,0.47079999999888145],[-0.11916666666666664,-0.2964814814814815,0.48729999999888207],[-0.11802083333333328,-0.25981481481481483,0.5038999999985094],[-0.11802083333333328,-0.25981481481481483,0.5206999999992519],[-0.12083333333333333,-0.2868518518518518,0.5372999999988792],[-0.12083333333333333,-0.2868518518518518,0.554000000000002],[-0.10750000000000005,-0.24685185185185188,0.5706999999992561],[-0.10750000000000005,-0.24685185185185188,0.5907999999988789],[-0.11218750000000005,-0.255,0.6041999999992527],[-0.11187499999999997,-0.2862962962962963,0.6255999999996291],[-0.11187499999999997,-0.2862962962962963,0.6433999999985076],[-0.10645833333333338,-0.3124074074074074,0.6600999999996233],[-0.10645833333333338,-0.3124074074074074,0.6705999999996308],[-0.09833333333333331,-0.3527777777777778,0.6873999999985116],[-0.09833333333333331,-0.3527777777777778,0.7040000000000006],[-0.10499999999999995,-0.37222222222222223,0.7206999999992476],[-0.10093749999999997,-0.3962962962962963,0.7376999999992577],[-0.10093749999999997,-0.3962962962962963,0.7539999999999978],[-0.11031249999999998,-0.4179629629629629,0.7705999999996251],[-0.11031249999999998,-0.4179629629629629,0.787399999998506],[-0.10343749999999995,-0.45796296296296296,0.8039999999999949],[-0.10343749999999995,-0.45796296296296296,0.8206999999992561],[-0.10968749999999995,-0.505,0.8372999999988835],[-0.12062499999999995,-0.5435185185185185,0.8539999999999921],[-0.10625,-0.54,0.8705999999996195],[-0.121875,-0.5518518518518518,0.8872999999988807],[-0.13531249999999997,-0.5922222222222222,0.9060999999996326],[-0.13229166666666667,-0.5853703703703704,0.9206999999992505],[-0.1313541666666667,-0.5937037037037037,0.9373999999985116],[-0.12729166666666672,-0.5914814814814814,0.9538999999985052],[-0.11593749999999996,-0.5916666666666667,0.970599999999628],[-0.1280208333333333,-0.5974074074074075,0.987299999998875],[-0.13093750000000004,-0.544074074074074,1.0038999999985023],[-0.13500000000000004,-0.5001851851851852,1.0205999999996251],[-0.15364583333333334,-0.5075925925925926,1.0372999999988863],[-0.1516666666666667,-0.5092592592592593,1.053999999999995],[-0.15437500000000004,-0.4524074074074074,1.0730000000000004],[-0.16437499999999997,-0.4251851851851852,1.0875999999996324],[-0.14895833333333333,-0.4009259259259259,1.103999999999992],[-0.13802083333333334,-0.3737037037037037,1.1205999999996195],[-0.11937500000000002,-0.35185185185185186,1.153899999998508],[-0.09791666666666667,-0.3225925925925926,1.1705999999996308],[-0.0702083333333333,-0.3081481481481481,1.1900999999996245],[-0.044062499999999956,-0.3472222222222222,1.2070000000000007],[-0.022083333333333382,-0.32,1.220599999999628],[0.00458333333333331,-0.29796296296296293,1.237299999998875],[0.022291666666666644,-0.30092592592592593,1.2538999999985023],[0.044479166666666715,-0.30833333333333335,1.2707999999988786],[0.05406249999999998,-0.28722222222222227,1.287399999998506],[0.059687499999999956,-0.26185185185185184,1.3038999999985137],[0.0546875,-0.2638888888888889,1.3205999999996223],[0.051979166666666646,-0.2740740740740741,1.3399999999999963],[0.051979166666666646,-0.2740740740740741,1.353999999999992],[0.05583333333333336,-0.2683333333333333,1.3706999999992533],[0.06427083333333337,-0.27518518518518525,1.3872999999988807],[0.07395833333333333,-0.27629629629629626,1.403899999998508],[0.08083333333333324,-0.26537037037037037,1.4206999999992505],[0.1134375000000001,-0.2544444444444444,1.4372999999988778],[0.14197916666666663,-0.23055555555555557,1.4540000000000006],[0.14364583333333342,-0.2322222222222222,1.470599999999628],[0.14541666666666658,-0.23425925925925925,1.487599999999624],[0.1502083333333334,-0.22759259259259254,1.5039999999999978],[0.18864583333333323,-0.21777777777777782,1.5205999999996251],[0.20354166666666676,-0.22481481481481477,1.5372999999988863],[0.19375,-0.1940740740740741,1.5540999999996288],[0.19145833333333329,-0.18111111111111114,1.5705999999996223],[0.1794791666666666,-0.17370370370370372,1.5872999999988835],[0.10843749999999991,-0.13388888888888892,1.6052999999988842],[0.04885416666666664,-0.12537037037037035,1.6206999999992533],[0.008749999999999977,-0.09537037037037037,1.6372999999988807],[-0.021145833333333287,-0.08537037037037042,1.6540000000000035],[-0.05499999999999995,-0.06648148148148143,1.6705999999996308],[-0.12927083333333336,-0.036481481481481566,1.6872999999988778],[-0.21458333333333332,-0.03740740740740749,1.706399999998503],[-0.22291666666666668,-0.05611111111111113,1.7207999999988814],[-0.24114583333333334,-0.04462962962962967,1.737599999999624],[-0.23072916666666668,-0.042407407407407366,1.7572999999988852],[-0.18520833333333328,-0.09703703703703699,1.7726999999992543],[-0.16739583333333338,-0.14500000000000002,1.7876999999992549],[-0.16739583333333338,-0.14500000000000002,1.8040999999996288],[-0.15177083333333338,-0.17759259259259255,1.8237999999988759],[-0.12395833333333334,-0.18833333333333332,1.8381999999992544],[-0.0985416666666667,-0.19500000000000003,1.853999999999992],[-0.043229166666666666,-0.26055555555555554,1.872599999999629],[0.01416666666666669,-0.2553703703703703,1.8873999999985145],[0.017812500000000023,-0.25092592592592594,1.9040000000000035],[0.04052083333333331,-0.28777777777777774,1.9205999999996308],[0.041458333333333285,-0.3175925925925926,1.9373999999985116],[0.04656250000000005,-0.30481481481481487,1.9540000000000006],[0.06906249999999996,-0.3194444444444444,1.9728999999985106],[0.08624999999999995,-0.3412962962962963,1.987599999999624],[0.08624999999999995,-0.3412962962962963,2.003999999999998],[0.08093750000000005,-0.3646296296296296,2.0207999999988786],[0.07062499999999995,-0.3718518518518519,2.0394999999999968],[0.07791666666666662,-0.3059259259259259,2.054099999999629],[0.10739583333333323,-0.277962962962963,2.070699999999256],[0.11791666666666671,-0.27685185185185185,2.0908999999985056],[0.11791666666666671,-0.27685185185185185,2.104099999999626],[0.12177083333333343,-0.24259259259259258,2.120799999998887],[0.13093750000000004,-0.22666666666666663,2.1397999999988784],[0.1415625000000001,-0.22092592592592594,2.1540000000000035],[0.1345833333333334,-0.17407407407407408,2.170599999999631],[0.14729166666666677,-0.13796296296296295,2.187299999998878],[0.1256249999999999,-0.1096296296296296,2.203899999998505],[0.11177083333333329,-0.08574074074074076,2.220599999999628],[0.059895833333333336,-0.12018518518518514,2.2371999999992553],[0.008645833333333287,-0.14574074074074073,2.2538999999985023],[-0.03718750000000005,-0.13555555555555554,2.270599999999625],[-0.08552083333333335,-0.14740740740740746,2.2872999999988863],[-0.09239583333333339,-0.14481481481481479,2.303999999999995],[-0.12854166666666664,-0.18462962962962962,2.320699999999256],[-0.15177083333333338,-0.22037037037037038,2.3372999999988835],[-0.17020833333333332,-0.23870370370370367,2.356500000000004],[-0.15958333333333338,-0.25870370370370366,2.3727999999988825],[-0.14708333333333337,-0.2803703703703703,2.3872999999988807],[-0.13541666666666666,-0.3020370370370371,2.403899999998508],[-0.13479166666666664,-0.3146296296296296,2.420599999999631],[-0.1203125,-0.3387037037037037,2.437299999998878],[-0.09927083333333328,-0.4009259259259259,2.4540000000000006],[-0.11135416666666664,-0.4557407407407408,2.4707999999988814],[-0.12177083333333331,-0.4633333333333333,2.489799999998887],[-0.11968749999999997,-0.4787037037037037,2.505999999999993],[-0.12989583333333338,-0.46870370370370373,2.520599999999625],[-0.13479166666666664,-0.4492592592592593,2.5371999999992525],[-0.13406250000000006,-0.3933333333333333,2.5538999999985137],[-0.1310416666666666,-0.307962962962963,2.5705999999996223],[-0.12072916666666664,-0.2511111111111112,2.5874999999999986],[-0.11645833333333329,-0.1801851851851852,2.6042999999988794],[-0.11875,-0.07111111111111107,2.6205999999996195],[-0.14645833333333336,0.020555555555555598,2.6375999999996296],[-0.11968749999999997,0.051666666666666625,2.6588999999985035],[-0.13510416666666672,0.09648148148148153,2.676499999999997],[-0.13510416666666672,0.09648148148148153,2.687299999998878],[-0.13989583333333327,0.09425925925925922,2.7040000000000006],[-0.1359375,0.10777777777777786,2.7253999999985083],[-0.1359375,0.10777777777777786,2.737399999998509],[-0.15395833333333328,0.04259259259259259,2.7538999999985023],[-0.1704166666666667,-0.027407407407407325,2.775199999999252],[-0.1704166666666667,-0.027407407407407325,2.787399999998506],[-0.1860416666666667,-0.072037037037037,2.803999999999995],[-0.1860416666666667,-0.072037037037037,2.8205999999996223],[-0.2235416666666667,-0.09203703703703701,2.8372999999988835],[-0.24833333333333332,-0.1440740740740741,2.853999999999992],[-0.2585416666666667,-0.17444444444444443,2.8705999999996195],[-0.30093749999999997,-0.14444444444444443,2.8888999999985074],[-0.31197916666666664,-0.12444444444444443,2.903899999998508],[-0.3338541666666667,-0.09166666666666666,2.920599999999631],[-0.35958333333333337,-0.08814814814814818,2.937299999998878],[-0.36218750000000005,-0.0485185185185186,2.953899999998505],[-0.38406250000000003,-0.006851851851851936,2.970499999999994],[-0.40375,0.017407407407407365,2.987399999998509],[-0.4015625,0.01703703703703712,3.0038999999985023],[-0.41208333333333336,0.04870370370370362,3.020599999999625],[-0.4155208333333333,0.08888888888888889,3.0372999999988863],[-0.4244791666666667,0.09592592592592585,3.0538999999985137],[-0.40864583333333326,0.10944444444444448,3.0705999999996223],[-0.4028125000000001,0.08666666666666659,3.087399999998503],[-0.39718749999999997,0.0977777777777777,3.103899999998511],[-0.39468749999999997,0.11037037037037041,3.1205999999996195],[-0.3828125,0.13277777777777786,3.1399999999999935],[-0.3584375,0.10611111111111103,3.153899999998508],[-0.3460416666666667,0.10740740740740741,3.170599999999631],[-0.336875,0.07777777777777778,3.187299999998878],[-0.3572916666666667,0.0485185185185186,3.2043999999985076],[-0.3252083333333334,0.017592592592592594,3.220599999999628],[-0.3132291666666667,-0.019259259259259216,3.2371999999992553],[-0.28572916666666665,-0.03166666666666671,3.2538999999985023],[-0.27364583333333337,-0.03777777777777774,3.2717999999988834],[-0.27447916666666666,-0.08537037037037042,3.2872999999988863],[-0.2671875,-0.13851851851851854,3.3044999999999973],[-0.2638541666666666,-0.13796296296296295,3.3205999999996223],[-0.25239583333333326,-0.1574074074074074,3.3371999999992497],[-0.25239583333333326,-0.1574074074074074,3.353999999999992],[-0.22697916666666665,-0.17685185185185184,3.370799999998887],[-0.18656250000000002,-0.16111111111111112,3.387699999999249],[-0.1922916666666667,-0.125,3.404199999999257],[-0.1955208333333334,-0.08703703703703704,3.420599999999631],[-0.2029166666666666,-0.1051851851851852,3.437199999999258],[-0.2016666666666667,-0.1411111111111111,3.453899999998505],[-0.1907291666666667,-0.13185185185185183,3.470599999999628],[-0.18083333333333335,-0.125,3.4879999999999924]]","[0.000199999999253464,0.03759999999962815,0.054000000000002046,0.0705999999996294,0.08950000000000102,0.10419999999925267,0.12059999999962656,0.1403999999985075,0.15399999999999636,0.17329999999888202,0.1901999999992512,0.20649999999999835,0.22099999999999653,0.2397999999988798,0.25639999999850716,0.27309999999962287,0.28999999999999915,0.30619999999925085,0.32069999999925614,0.3373999999985102,0.3539999999999992,0.37079999999888,0.3875999999996296,0.40399999999999636,0.42069999999925045,0.4377999999988802,0.45739999999850767,0.47079999999888145,0.48729999999888207,0.5038999999985094,0.5206999999992519,0.5372999999988792,0.554000000000002,0.5706999999992561,0.5907999999988789,0.6041999999992527,0.6255999999996291,0.6433999999985076,0.6600999999996233,0.6705999999996308,0.6873999999985116,0.7040000000000006,0.7206999999992476,0.7376999999992577,0.7539999999999978,0.7705999999996251,0.787399999998506,0.8039999999999949,0.8206999999992561,0.8372999999988835,0.8539999999999921,0.8705999999996195,0.8872999999988807,0.9060999999996326,0.9206999999992505,0.9373999999985116,0.9538999999985052,0.970599999999628,0.987299999998875,1.0038999999985023,1.0205999999996251,1.0372999999988863,1.053999999999995,1.0730000000000004,1.0875999999996324,1.103999999999992,1.1205999999996195,1.153899999998508,1.1705999999996308,1.1900999999996245,1.2070000000000007,1.220599999999628,1.237299999998875,1.2538999999985023,1.2707999999988786,1.287399999998506,1.3038999999985137,1.3205999999996223,1.3399999999999963,1.353999999999992,1.3706999999992533,1.3872999999988807,1.403899999998508,1.4206999999992505,1.4372999999988778,1.4540000000000006,1.470599999999628,1.487599999999624,1.5039999999999978,1.5205999999996251,1.5372999999988863,1.5540999999996288,1.5705999999996223,1.5872999999988835,1.6052999999988842,1.6206999999992533,1.6372999999988807,1.6540000000000035,1.6705999999996308,1.6872999999988778,1.706399999998503,1.7207999999988814,1.737599999999624,1.7572999999988852,1.7726999999992543,1.7876999999992549,1.8040999999996288,1.8237999999988759,1.8381999999992544,1.853999999999992,1.872599999999629,1.8873999999985145,1.9040000000000035,1.9205999999996308,1.9373999999985116,1.9540000000000006,1.9728999999985106,1.987599999999624,2.003999999999998,2.0207999999988786,2.0394999999999968,2.054099999999629,2.070699999999256,2.0908999999985056,2.104099999999626,2.120799999998887,2.1397999999988784,2.1540000000000035,2.170599999999631,2.187299999998878,2.203899999998505,2.220599999999628,2.2371999999992553,2.2538999999985023,2.270599999999625,2.2872999999988863,2.303999999999995,2.320699999999256,2.3372999999988835,2.356500000000004,2.3727999999988825,2.3872999999988807,2.403899999998508,2.420599999999631,2.437299999998878,2.4540000000000006,2.4707999999988814,2.489799999998887,2.505999999999993,2.520599999999625,2.5371999999992525,2.5538999999985137,2.5705999999996223,2.5874999999999986,2.6042999999988794,2.6205999999996195,2.6375999999996296,2.6588999999985035,2.676499999999997,2.687299999998878,2.7040000000000006,2.7253999999985083,2.737399999998509,2.7538999999985023,2.775199999999252,2.787399999998506,2.803999999999995,2.8205999999996223,2.8372999999988835,2.853999999999992,2.8705999999996195,2.8888999999985074,2.903899999998508,2.920599999999631,2.937299999998878,2.953899999998505,2.970499999999994,2.987399999998509,3.0038999999985023,3.020599999999625,3.0372999999988863,3.0538999999985137,3.0705999999996223,3.087399999998503,3.103899999998511,3.1205999999996195,3.1399999999999935,3.153899999998508,3.170599999999631,3.187299999998878,3.2043999999985076,3.220599999999628,3.2371999999992553,3.2538999999985023,3.2717999999988834,3.2872999999988863,3.3044999999999973,3.3205999999996223,3.3371999999992497,3.353999999999992,3.370799999998887,3.387699999999249,3.404199999999257,3.420599999999631,3.437199999999258,3.453899999998505,3.470599999999628,3.4879999999999924]","[1733124482424,1733124482454,1733124482470,1733124482487,1733124482506,1733124482521,1733124482537,1733124482557,1733124482570,1733124482590,1733124482607,1733124482623,1733124482637,1733124482656,1733124482673,1733124482689,1733124482706,1733124482723,1733124482737,1733124482754,1733124482771,1733124482787,1733124482804,1733124482820,1733124482837,1733124482854,1733124482874,1733124482887,1733124482904,1733124482920,1733124482937,1733124482954,1733124482970,1733124482987,1733124483007,1733124483021,1733124483042,1733124483060,1733124483077,1733124483087,1733124483104,1733124483120,1733124483137,1733124483154,1733124483170,1733124483187,1733124483204,1733124483220,1733124483237,1733124483254,1733124483270,1733124483287,1733124483304,1733124483323,1733124483337,1733124483354,1733124483370,1733124483387,1733124483404,1733124483420,1733124483437,1733124483454,1733124483470,1733124483489,1733124483504,1733124483520,1733124483537,1733124483570,1733124483587,1733124483607,1733124483623,1733124483637,1733124483654,1733124483670,1733124483687,1733124483704,1733124483720,1733124483737,1733124483756,1733124483770,1733124483787,1733124483804,1733124483820,1733124483837,1733124483854,1733124483870,1733124483887,1733124483904,1733124483920,1733124483937,1733124483954,1733124483971,1733124483987,1733124484004,1733124484022,1733124484037,1733124484054,1733124484070,1733124484087,1733124484104,1733124484123,1733124484137,1733124484154,1733124484174,1733124484189,1733124484204,1733124484221,1733124484240,1733124484255,1733124484270,1733124484289,1733124484304,1733124484321,1733124484337,1733124484354,1733124484370,1733124484389,1733124484404,1733124484421,1733124484437,1733124484456,1733124484471,1733124484487,1733124484507,1733124484521,1733124484537,1733124484556,1733124484570,1733124484587,1733124484604,1733124484620,1733124484637,1733124484654,1733124484670,1733124484687,1733124484704,1733124484720,1733124484737,1733124484754,1733124484773,1733124484789,1733124484804,1733124484820,1733124484837,1733124484854,1733124484870,1733124484887,1733124484906,1733124484922,1733124484937,1733124484954,1733124484970,1733124484987,1733124485004,1733124485021,1733124485037,1733124485054,1733124485075,1733124485093,1733124485104,1733124485120,1733124485142,1733124485154,1733124485170,1733124485192,1733124485204,1733124485220,1733124485237,1733124485254,1733124485270,1733124485287,1733124485305,1733124485320,1733124485337,1733124485354,1733124485370,1733124485387,1733124485404,1733124485420,1733124485437,1733124485454,1733124485470,1733124485487,1733124485504,1733124485520,1733124485537,1733124485556,1733124485570,1733124485587,1733124485604,1733124485621,1733124485637,1733124485654,1733124485670,1733124485688,1733124485704,1733124485721,1733124485737,1733124485754,1733124485770,1733124485787,1733124485804,1733124485821,1733124485837,1733124485854,1733124485870,1733124485887,1733124485904]","[[763.1,691],[763.1,691],[747.5,685.9],[748.7,684.6],[745.8,660.8],[742.9,637],[714.4,636.3],[694.1,636.2],[684.7,620],[672.9,629.2],[671.8,624.1],[666.9,628.9],[668.6,633.3],[640.4,634.6],[631.1,649.7],[650.7,621.3],[682.3,580.9],[715.3,547.7],[731.5,514],[755.9,475],[755.9,475],[775.2,452],[794.1,444.5],[804,427.1],[833.1,398.8],[849,363.5],[849,363.5],[845.6,379.9],[845.6,379.9],[846.7,399.7],[846.7,399.7],[844,385.1],[844,385.1],[856.8,406.7],[856.8,406.7],[852.3,402.3],[852.6,385.4],[852.6,385.4],[857.8,371.3],[857.8,371.3],[865.6,349.5],[865.6,349.5],[859.2,339],[863.1,326],[863.1,326],[854.1,314.3],[854.1,314.3],[860.7,292.7],[860.7,292.7],[854.7,267.3],[844.2,246.5],[858,248.4],[843,242],[830.1,220.2],[833,223.9],[833.9,219.4],[837.8,220.6],[848.7,220.5],[837.1,217.4],[834.3,246.2],[830.4,269.9],[812.5,265.9],[814.4,265],[811.8,295.7],[802.2,310.4],[817,323.5],[827.5,338.2],[845.4,350],[866,365.8],[892.6,373.6],[917.7,352.5],[938.8,367.2],[964.4,379.1],[981.4,377.5],[1002.7,373.5],[1011.9,384.9],[1017.3,398.6],[1012.5,397.5],[1009.9,392],[1009.9,392],[1013.6,395.1],[1021.7,391.4],[1031,390.8],[1037.6,396.7],[1068.9,402.6],[1096.3,415.5],[1097.9,414.6],[1099.6,413.5],[1104.2,417.1],[1141.1,422.4],[1155.4,418.6],[1146,435.2],[1143.8,442.2],[1132.3,446.2],[1064.1,467.7],[1006.9,472.3],[968.4,488.5],[939.7,493.9],[907.2,504.1],[835.9,520.3],[754,519.8],[746,509.7],[728.5,515.9],[738.5,517.1],[782.2,487.6],[799.3,461.7],[799.3,461.7],[814.3,444.1],[841,438.3],[865.4,434.7],[918.5,399.3],[973.6,402.1],[977.1,404.5],[998.9,384.6],[999.8,368.5],[1004.7,375.4],[1026.3,367.5],[1042.8,355.7],[1042.8,355.7],[1037.7,343.1],[1027.8,339.2],[1034.8,374.8],[1063.1,389.9],[1073.2,390.5],[1073.2,390.5],[1076.9,409],[1085.7,417.6],[1095.9,420.7],[1089.2,446],[1101.4,465.5],[1080.6,480.8],[1067.3,493.7],[1017.5,475.1],[968.3,461.3],[924.3,466.8],[877.9,460.4],[871.3,461.8],[836.6,440.3],[814.3,421],[796.6,411.1],[806.8,400.3],[818.8,388.6],[830,376.9],[830.6,370.1],[844.5,357.1],[864.7,323.5],[853.1,293.9],[843.1,289.8],[845.1,281.5],[835.3,286.9],[830.6,297.4],[831.3,327.6],[834.2,373.7],[844.1,404.4],[848.2,442.7],[846,501.6],[819.4,551.1],[845.1,567.9],[830.3,592.1],[830.3,592.1],[825.7,590.9],[829.5,598.2],[829.5,598.2],[812.2,563],[796.4,525.2],[796.4,525.2],[781.4,501.1],[781.4,501.1],[745.4,490.3],[721.6,462.2],[711.8,445.8],[671.1,462],[660.5,472.8],[639.5,490.5],[614.8,492.4],[612.3,513.8],[591.3,536.3],[572.4,549.4],[574.5,549.2],[564.4,566.3],[561.1,588],[552.5,591.8],[567.7,599.1],[573.3,586.8],[578.7,592.8],[581.1,599.6],[592.5,611.7],[615.9,597.3],[627.8,598],[636.6,582],[617,566.2],[647.8,549.5],[659.3,529.6],[685.7,522.9],[697.3,519.6],[696.5,493.9],[703.5,465.2],[706.7,465.5],[717.7,455],[717.7,455],[742.1,444.5],[780.9,453],[775.4,472.5],[772.3,493],[765.2,483.2],[766.4,463.8],[776.9,468.8],[786.4,472.5]]","[0,0.37864299999999995]","[0.37864299999999995,0.37864299999999995]","[-0.37864299999999995,0]","[-0.37864299999999995,-0.37864299999999995]","[0,0]","[0.37864299999999995,0]","[0,-0.37864299999999995]","[0.37864299999999995,-0.37864299999999995]",0,0,0,0,1,3,Laptop,11,9,9,1
,,,,,,,,,,,,,,,,,,,09,001,2024-12-02_15h27.08.707,Attention_exp_legacy,2023.1.0,Win32,60.24096386,,,,,,,,,,,[0.090625],[0.34629629629629627],[1],[0],[0],[3.864900000000361],"[""Option1_label""]",Option1_label,2,4.8664,"[[0.004166666666666667,0.40370370370370373],[0.004166666666666667,0.40370370370370373],[0.004166666666666667,0.40370370370370373],[0.004166666666666667,0.40370370370370373],[0.004166666666666667,0.40370370370370373],[0.004166666666666667,0.40370370370370373],[0.004166666666666667,0.40370370370370373],[0.004166666666666667,0.40370370370370373],[0.004166666666666667,0.40370370370370373],[0.004166666666666667,0.40370370370370373],[0.004166666666666667,0.40370370370370373],[0.004166666666666667,0.40370370370370373],[0.004166666666666667,0.40370370370370373],[0.004166666666666667,0.40370370370370373],[0.004166666666666667,0.40370370370370373],[0.004166666666666667,0.40370370370370373],[0.004166666666666667,0.40370370370370373],[0.004166666666666667,0.40370370370370373],[0.004166666666666667,0.40370370370370373],[0.004166666666666667,0.40370370370370373],[0.004166666666666667,0.40370370370370373],[0.004166666666666667,0.40370370370370373],[0.004166666666666667,0.40370370370370373],[0.004166666666666667,0.40370370370370373],[0.004166666666666667,0.40370370370370373],[0.004166666666666667,0.40370370370370373],[0.004166666666666667,0.40370370370370373],[0.004166666666666667,0.40370370370370373],[0.004166666666666667,0.40370370370370373],[0.004166666666666667,0.40370370370370373],[0.004166666666666667,0.40370370370370373],[0.004166666666666667,0.40370370370370373],[0.004166666666666667,0.40370370370370373],[0.004166666666666667,0.40370370370370373],[0.004166666666666667,0.40370370370370373],[0.004166666666666667,0.40370370370370373],[0.004166666666666667,0.40370370370370373],[0.004166666666666667,0.40370370370370373],[0.004166666666666667,0.40370370370370373],[0.004166666666666667,0.40370370370370373],[0.004166666666666667,0.40370370370370373],[0.004166666666666667,0.40370370370370373],[0.004166666666666667,0.40370370370370373],[0.004166666666666667,0.40370370370370373],[0.004166666666666667,0.40370370370370373],[0.004166666666666667,0.40370370370370373],[0.004166666666666667,0.40370370370370373],[0.004166666666666667,0.40370370370370373],[0.004166666666666667,0.40370370370370373],[0.004166666666666667,0.40370370370370373],[0.004166666666666667,0.40370370370370373],[0.004166666666666667,0.40370370370370373],[0.004166666666666667,0.40370370370370373],[0.004166666666666667,0.40370370370370373],[0.004166666666666667,0.40370370370370373],[0.004166666666666667,0.40370370370370373],[0.004166666666666667,0.40370370370370373],[0.004166666666666667,0.40185185185185185],[0.004166666666666667,0.3962962962962963],[0.004166666666666667,0.39444444444444443],[0.004166666666666667,0.3925925925925926],[0.004166666666666667,0.3907407407407407],[0.004166666666666667,0.3907407407407407],[0.004166666666666667,0.3907407407407407],[0.004166666666666667,0.3907407407407407],[0.004166666666666667,0.3907407407407407],[0.004166666666666667,0.3907407407407407],[0.004166666666666667,0.3907407407407407],[0.004166666666666667,0.3907407407407407],[0.004166666666666667,0.3907407407407407],[0.004166666666666667,0.3907407407407407],[0.004166666666666667,0.3907407407407407],[0.004166666666666667,0.3907407407407407],[0.004166666666666667,0.3907407407407407],[0.004166666666666667,0.3907407407407407],[0.004166666666666667,0.3907407407407407],[0.004166666666666667,0.3907407407407407],[0.004166666666666667,0.3907407407407407],[0.004166666666666667,0.3907407407407407],[0.004166666666666667,0.3907407407407407],[0.004166666666666667,0.3907407407407407],[0.004166666666666667,0.3907407407407407],[0.004166666666666667,0.3907407407407407],[0.004166666666666667,0.3907407407407407],[0.004166666666666667,0.3907407407407407],[0.004166666666666667,0.3907407407407407],[0.004166666666666667,0.3907407407407407],[0.004166666666666667,0.3907407407407407],[0.004166666666666667,0.3907407407407407],[0.004166666666666667,0.3907407407407407],[0.004166666666666667,0.3907407407407407],[0.004166666666666667,0.3907407407407407],[0.004166666666666667,0.3907407407407407],[0.004166666666666667,0.3907407407407407],[0.004166666666666667,0.3907407407407407],[0.004166666666666667,0.3907407407407407],[0.004166666666666667,0.3907407407407407],[0.004166666666666667,0.3907407407407407],[0.004166666666666667,0.3907407407407407],[0.004166666666666667,0.3907407407407407],[0.004166666666666667,0.3907407407407407],[0.004166666666666667,0.3907407407407407],[0.004166666666666667,0.3907407407407407],[0.004166666666666667,0.3907407407407407],[0.004166666666666667,0.3907407407407407],[0.004166666666666667,0.3907407407407407],[0.004166666666666667,0.3907407407407407],[0.004166666666666667,0.3907407407407407],[0.004166666666666667,0.3907407407407407],[0.004166666666666667,0.3907407407407407],[0.004166666666666667,0.3907407407407407],[0.004166666666666667,0.3907407407407407],[0.004166666666666667,0.3907407407407407],[0.004166666666666667,0.3907407407407407],[0.004166666666666667,0.3907407407407407],[0.004166666666666667,0.3907407407407407],[0.004166666666666667,0.3907407407407407],[0.004166666666666667,0.3907407407407407],[0.004166666666666667,0.3907407407407407],[0.004166666666666667,0.3907407407407407],[0.004166666666666667,0.3907407407407407],[0.007291666666666667,0.3851851851851852],[0.014583333333333334,0.37962962962962965],[0.03333333333333333,0.3648148148148148],[0.04583333333333333,0.3592592592592593],[0.059375,0.35185185185185186],[0.07083333333333333,0.35],[0.08125,0.34629629629629627],[0.08854166666666667,0.34444444444444444],[0.09166666666666666,0.3425925925925926],[0.09270833333333334,0.3425925925925926],[0.09375,0.3425925925925926],[0.09791666666666667,0.3425925925925926],[0.10416666666666667,0.3388888888888889],[0.10729166666666666,0.3388888888888889],[0.11770833333333333,0.337037037037037],[0.121875,0.337037037037037],[0.12604166666666666,0.337037037037037],[0.12604166666666666,0.337037037037037],[0.12604166666666666,0.337037037037037],[0.128125,0.337037037037037],[0.128125,0.337037037037037],[0.128125,0.337037037037037],[0.128125,0.337037037037037],[0.128125,0.337037037037037],[0.128125,0.337037037037037],[0.128125,0.337037037037037],[0.12291666666666666,0.337037037037037],[0.11666666666666667,0.337037037037037],[0.109375,0.34074074074074073],[0.103125,0.3425925925925926],[0.09791666666666667,0.34444444444444444],[0.09479166666666666,0.34444444444444444],[0.09270833333333334,0.34444444444444444],[0.09166666666666666,0.34629629629629627],[0.09166666666666666,0.34629629629629627],[0.090625,0.34629629629629627],[0.090625,0.34629629629629627],[0.090625,0.34629629629629627],[0.090625,0.34629629629629627],[0.090625,0.34629629629629627],[0.090625,0.34629629629629627],[0.090625,0.34629629629629627],[0.090625,0.34629629629629627],[0.090625,0.34629629629629627],[0.090625,0.34629629629629627],[0.090625,0.34629629629629627],[0.090625,0.34629629629629627],[0.090625,0.34629629629629627],[0.090625,0.34629629629629627],[0.090625,0.34629629629629627],[0.090625,0.34629629629629627],[0.090625,0.34629629629629627],[0.090625,0.34629629629629627],[0.090625,0.34629629629629627],[0.090625,0.34629629629629627],[0.090625,0.34629629629629627],[0.090625,0.34629629629629627],[0.090625,0.34629629629629627],[0.090625,0.34629629629629627],[0.090625,0.34629629629629627],[0.090625,0.34629629629629627],[0.090625,0.34629629629629627],[0.090625,0.34629629629629627],[0.090625,0.34629629629629627],[0.090625,0.34629629629629627],[0.090625,0.34629629629629627],[0.090625,0.34629629629629627],[0.090625,0.34629629629629627],[0.090625,0.34629629629629627],[0.090625,0.34629629629629627],[0.090625,0.34629629629629627],[0.090625,0.34629629629629627],[0.090625,0.34629629629629627],[0.090625,0.34629629629629627],[0.090625,0.34629629629629627],[0.090625,0.34629629629629627],[0.090625,0.34629629629629627],[0.090625,0.34629629629629627],[0.090625,0.34629629629629627],[0.090625,0.34629629629629627],[0.090625,0.34629629629629627],[0.090625,0.34629629629629627],[0.090625,0.34629629629629627],[0.090625,0.34629629629629627],[0.090625,0.34629629629629627],[0.090625,0.34629629629629627],[0.090625,0.34629629629629627],[0.090625,0.34629629629629627],[0.090625,0.34629629629629627],[0.090625,0.34629629629629627],[0.090625,0.34629629629629627],[0.090625,0.34629629629629627],[0.090625,0.34629629629629627],[0.090625,0.34629629629629627],[0.090625,0.34629629629629627],[0.090625,0.34629629629629627],[0.090625,0.34629629629629627],[0.090625,0.34629629629629627],[0.090625,0.34629629629629627],[0.090625,0.34629629629629627],[0.090625,0.34629629629629627],[0.090625,0.34629629629629627],[0.090625,0.34629629629629627],[0.090625,0.34629629629629627],[0.090625,0.34629629629629627],[0.090625,0.34629629629629627],[0.090625,0.34629629629629627],[0.090625,0.34629629629629627],[0.090625,0.34629629629629627],[0.090625,0.34629629629629627],[0.090625,0.34629629629629627],[0.090625,0.34629629629629627],[0.090625,0.34629629629629627],[0.090625,0.34629629629629627],[0.090625,0.34629629629629627],[0.090625,0.34629629629629627],[0.090625,0.34629629629629627],[0.090625,0.34629629629629627],[0.090625,0.34629629629629627],[0.090625,0.34629629629629627],[0.090625,0.34629629629629627],[0.090625,0.34629629629629627],[0.090625,0.34629629629629627],[0.090625,0.34629629629629627],[0.090625,0.34629629629629627],[0.090625,0.34629629629629627],[0.090625,0.34629629629629627],[0.090625,0.34629629629629627],[0.090625,0.34629629629629627],[0.090625,0.34629629629629627],[0.090625,0.34629629629629627],[0.090625,0.34629629629629627],[0.090625,0.34629629629629627],[0.090625,0.34629629629629627],[0.08958333333333333,0.34629629629629627],[0.08854166666666667,0.34629629629629627],[0.08854166666666667,0.34629629629629627],[0.08854166666666667,0.34629629629629627],[0.08854166666666667,0.34629629629629627],[0.08854166666666667,0.34629629629629627],[0.08854166666666667,0.34629629629629627],[0.08854166666666667,0.34629629629629627],[0.08854166666666667,0.34629629629629627],[0.08854166666666667,0.34629629629629627],[0.08854166666666667,0.34629629629629627],[0.08854166666666667,0.34629629629629627],[0.08854166666666667,0.34629629629629627],[0.08854166666666667,0.34629629629629627],[0.08854166666666667,0.34629629629629627],[0.08854166666666667,0.34629629629629627],[0.08854166666666667,0.34629629629629627],[0.08854166666666667,0.34629629629629627],[0.08854166666666667,0.34629629629629627],[0.08854166666666667,0.34629629629629627],[0.08854166666666667,0.34629629629629627],[0.08854166666666667,0.34629629629629627],[0.08854166666666667,0.34629629629629627],[0.08854166666666667,0.34629629629629627],[0.08854166666666667,0.34629629629629627],[0.08854166666666667,0.34629629629629627],[0.08854166666666667,0.34629629629629627],[0.08854166666666667,0.34629629629629627],[0.08854166666666667,0.34629629629629627],[0.08854166666666667,0.34629629629629627],[0.08854166666666667,0.34629629629629627],[0.08854166666666667,0.34629629629629627],[0.08854166666666667,0.34629629629629627],[0.08854166666666667,0.34629629629629627],[0.08854166666666667,0.34629629629629627],[0.08854166666666667,0.34629629629629627],[0.08854166666666667,0.34629629629629627],[0.08854166666666667,0.34629629629629627]]","[[-0.33531249999999996,0.011481481481481566],[-0.32354166666666667,0.006666666666666709],[-0.3055208333333333,0.024814814814814772],[-0.2720833333333334,0.1235185185185186],[-0.2570833333333333,0.19240740740740736],[-0.19135416666666671,0.2759259259259259],[-0.19135416666666671,0.2759259259259259],[-0.1671875,0.3661111111111112],[-0.1671875,0.3661111111111112],[-0.1310416666666666,0.48092592592592603],[-0.1310416666666666,0.48092592592592603],[-0.11010416666666671,0.5820370370370369],[-0.11010416666666671,0.5820370370370369],[-0.09145833333333328,0.7040740740740742],[-0.09145833333333328,0.7040740740740742],[-0.07479166666666662,0.8229629629629629],[-0.07479166666666662,0.8229629629629629],[-0.05583333333333336,0.8742592592592593],[-0.05583333333333336,0.8742592592592593],[-0.059791666666666646,0.9462962962962963],[-0.059791666666666646,0.9462962962962963],[-0.07416666666666671,0.9490740740740741],[-0.07416666666666671,0.9490740740740741],[-0.11645833333333329,0.9003703703703705],[-0.11645833333333329,0.9003703703703705],[-0.18645833333333334,0.8051851851851851],[-0.18645833333333334,0.8051851851851851],[-0.23989583333333328,0.7427777777777779],[-0.32479166666666665,0.6533333333333332],[-0.32479166666666665,0.6533333333333332],[-0.35510416666666667,0.5479629629629629],[-0.35510416666666667,0.5479629629629629],[-0.3857291666666666,0.3979629629629629],[-0.43781249999999994,0.29685185185185176],[-0.4829166666666667,0.2064814814814815],[-0.5051041666666667,0.09537037037037037],[-0.5288541666666666,0.023148148148148147],[-0.5129166666666667,-0.007037037037036953],[-0.5113541666666667,-0.03185185185185194],[-0.4720833333333333,-0.052962962962963],[-0.415,-0.056296296296296254],[-0.41052083333333333,-0.026851851851851852],[-0.4163541666666667,-0.024814814814814772],[-0.3927083333333333,-0.05462962962962963],[-0.3803125,-0.07407407407407407],[-0.3853125,-0.06870370370370374],[-0.37822916666666667,-0.04462962962962967],[-0.4001041666666667,0.001851851851851852],[-0.3876041666666667,0.030000000000000086],[-0.4370833333333334,0.04055555555555551],[-0.4952083333333333,0.06574074074074074],[-0.4952083333333333,0.06574074074074074],[-0.5404166666666667,0.08796296296296297],[-0.5522916666666667,0.09888888888888885],[-0.5604166666666667,0.09722222222222222],[-0.5694791666666668,0.1081481481481481],[-0.5580208333333334,0.09870370370370361],[-0.5685416666666666,0.07240740740740745],[-0.5321874999999999,0.04814814814814815],[-0.5104166666666666,0.026481481481481398],[-0.4648958333333333,-0.007407407407407408],[-0.3829166666666667,-0.0653703703703704],[-0.29927083333333326,-0.1111111111111111],[-0.2526041666666667,-0.15462962962962962],[-0.21843750000000003,-0.19037037037037038],[-0.1921875,-0.22037037037037038],[-0.16499999999999998,-0.28425925925925927],[-0.10177083333333338,-0.317037037037037],[-0.10104166666666667,-0.3755555555555556],[-0.0953125,-0.38685185185185184],[-0.08333333333333333,-0.40685185185185185],[-0.08708333333333336,-0.45499999999999996],[-0.09093749999999995,-0.4955555555555556],[-0.11166666666666672,-0.4368518518518518],[-0.10791666666666669,-0.3979629629629629],[-0.09322916666666667,-0.40796296296296297],[-0.07947916666666661,-0.3864814814814815],[-0.0796875,-0.40499999999999997],[-0.05,-0.41759259259259257],[-0.02947916666666662,-0.4455555555555556],[-0.0006250000000000236,-0.42000000000000004],[0.0359375,-0.39240740740740737],[0.0655208333333333,-0.4112962962962963],[0.11770833333333333,-0.4946296296296297],[0.14656250000000004,-0.4903703703703704],[0.1765625,-0.46407407407407414],[0.21020833333333327,-0.4235185185185185],[0.22468750000000004,-0.4027777777777778],[0.21354166666666666,-0.35333333333333333],[0.25322916666666656,-0.2898148148148148],[0.27458333333333323,-0.2855555555555555],[0.2752083333333334,-0.24981481481481477],[0.2951041666666666,-0.19314814814814818],[0.32062499999999994,-0.12999999999999998],[0.3377083333333334,-0.1235185185185185],[0.35572916666666665,-0.09870370370370372],[0.36697916666666663,-0.09018518518518516],[0.37218749999999995,-0.016666666666666666],[0.3954166666666666,0.03981481481481482],[0.35572916666666665,0.027222222222222307],[0.3260416666666667,0.020370370370370372],[0.32229166666666675,0.012037037037037037],[0.3063541666666666,0.02240740740740745],[0.28916666666666657,0.016666666666666666],[0.28020833333333334,0.02296296296296292],[0.26708333333333345,0.019444444444444445],[0.23187499999999991,0.011296296296296339],[0.19885416666666675,-0.013888888888888888],[0.16822916666666668,-0.05907407407407403],[0.16770833333333332,-0.05796296296296299],[0.15416666666666667,-0.014074074074074116],[0.15416666666666667,-0.014074074074074116],[0.11416666666666657,0.05055555555555547],[0.07979166666666657,0.1],[0.030729166666666665,0.19166666666666668],[-0.0036458333333333334,0.23944444444444435],[-0.04635416666666667,0.2953703703703704],[-0.06114583333333338,0.3257407407407407],[-0.05479166666666669,0.37888888888888894],[-0.03812500000000003,0.4050000000000001],[-0.05,0.4807407407407408],[-0.03156249999999995,0.46055555555555566],[-0.03156249999999995,0.46055555555555566],[-0.02781250000000005,0.43425925925925923],[-0.030312500000000023,0.3907407407407407],[-0.030312500000000023,0.3907407407407407],[-0.019583333333333286,0.2977777777777777],[-0.024479166666666666,0.22555555555555548],[-0.005208333333333333,0.13148148148148148],[0.011666666666666714,0.06722222222222214],[-0.005208333333333333,-0.015370370370370286],[-0.027083333333333334,-0.06129629629629634],[-0.029375000000000047,-0.13055555555555556],[-0.06947916666666672,-0.14888888888888885],[-0.0889583333333333,-0.222037037037037],[-0.0967708333333333,-0.24814814814814815],[-0.11447916666666665,-0.23203703703703707],[-0.11625000000000002,-0.2657407407407407],[-0.11468750000000003,-0.25870370370370366],[-0.12614583333333335,-0.27629629629629626],[-0.11572916666666669,-0.31055555555555553],[-0.11572916666666669,-0.31055555555555553],[-0.11124999999999995,-0.34518518518518515],[-0.11124999999999995,-0.34518518518518515],[-0.10333333333333337,-0.387037037037037],[-0.10239583333333328,-0.4425925925925926],[-0.10239583333333328,-0.4425925925925926],[-0.1063541666666667,-0.4038888888888889],[-0.1063541666666667,-0.4038888888888889],[-0.07833333333333338,-0.4116666666666667],[-0.07833333333333338,-0.4116666666666667],[-0.028125,-0.45499999999999996],[-0.028125,-0.45499999999999996],[0.002916666666666619,-0.40129629629629626],[0.002916666666666619,-0.40129629629629626],[0.025729166666666713,-0.40685185185185185],[0.025729166666666713,-0.40685185185185185],[0.0265625,-0.40796296296296297],[0.0265625,-0.40796296296296297],[0.06229166666666662,-0.34981481481481475],[0.06229166666666662,-0.34981481481481475],[0.0775000000000001,-0.30759259259259264],[0.0775000000000001,-0.30759259259259264],[0.09447916666666671,-0.3344444444444445],[0.09447916666666671,-0.3344444444444445],[0.14572916666666677,-0.3383333333333333],[0.14572916666666677,-0.3383333333333333],[0.22583333333333327,-0.35962962962962963],[0.22583333333333327,-0.35962962962962963],[0.2055208333333333,-0.3592592592592593],[0.2055208333333333,-0.3592592592592593],[0.19874999999999995,-0.34092592592592597],[0.20583333333333323,-0.3559259259259259],[0.20583333333333323,-0.3559259259259259],[0.18385416666666668,-0.2942592592592592],[0.18385416666666668,-0.2942592592592592],[0.20427083333333323,-0.2140740740740741],[0.1851041666666667,-0.23925925925925923],[0.21906249999999997,-0.20185185185185187],[0.2539583333333333,-0.1425925925925926],[0.2664583333333333,-0.06388888888888888],[0.2553124999999999,0.011296296296296339],[0.2868750000000001,0.09203703703703713],[0.28541666666666665,0.12611111111111115],[0.28104166666666663,0.21944444444444444],[0.2690624999999999,0.16740740740740737],[0.2599999999999999,0.13648148148148156],[0.2423958333333334,0.11814814814814806],[0.19041666666666662,0.06388888888888888],[0.11822916666666666,0.07925925925925917],[0.0546875,0.0031481481481482323],[-0.06343749999999998,-0.09518518518518514],[-0.17895833333333327,-0.22685185185185186],[-0.20979166666666665,-0.2668518518518519],[-0.22395833333333334,-0.4214814814814815],[-0.18072916666666666,-0.5255555555555556],[-0.15489583333333337,-0.6033333333333334],[-0.08864583333333335,-0.6561111111111111],[-0.021875,-0.6844444444444445],[0.04989583333333331,-0.7455555555555556],[0.1365624999999999,-0.741111111111111],[0.28062500000000007,-0.727037037037037],[0.40593750000000006,-0.6557407407407407],[0.4548958333333334,-0.6872222222222223],[0.4634375000000001,-0.6622222222222223],[0.4048958333333334,-0.5209259259259259],[0.3785416666666668,-0.4742592592592593],[0.33875000000000005,-0.3605555555555555],[0.2626041666666666,-0.29203703703703704],[0.18260416666666662,-0.2759259259259259],[0.08885416666666662,-0.24277777777777781],[-0.007083333333333286,-0.23722222222222225],[-0.08458333333333339,-0.2477777777777778],[-0.14229166666666668,-0.17333333333333337],[-0.18395833333333336,-0.11388888888888889],[-0.1985416666666667,-0.1383333333333333],[-0.24739583333333334,-0.08370370370370368],[-0.3098958333333333,-0.0992592592592593],[-0.33656250000000004,-0.0940740740740741],[-0.3380208333333333,-0.06018518518518518],[-0.3398958333333333,-0.003333333333333249],[-0.33166666666666667,0.05944444444444449],[-0.29927083333333326,0.09703703703703699],[-0.29572916666666665,0.08518518518518518],[-0.2803125,0.0705555555555556],[-0.25656249999999997,0.07388888888888885],[-0.23406250000000003,0.041111111111111195],[-0.20677083333333332,0.01648148148148144],[-0.20145833333333332,-0.006666666666666709],[-0.1877083333333334,0.025185185185185227],[-0.19718749999999996,0.01592592592592597],[-0.19718749999999996,0.01592592592592597],[-0.190625,-0.008703703703703788],[-0.22604166666666667,0.010740740740740657],[-0.22687499999999997,0.0962962962962963],[-0.3085416666666667,0.15629629629629627],[-0.4002083333333334,0.1757407407407407],[-0.48260416666666667,0.23277777777777786],[-0.5764583333333333,0.23666666666666658],[-0.6445833333333333,0.3022222222222223],[-0.7424999999999999,0.33648148148148155],[-0.8296875,0.35851851851851857],[-0.9403125,0.40333333333333327],[-0.9338541666666667,0.37518518518518523],[-0.9359375,0.3037037037037037],[-0.853125,0.23203703703703696],[-0.7696875,0.2044444444444444],[-0.6791666666666667,0.14203703703703713],[-0.5879166666666666,0.1014814814814814],[-0.5033333333333333,-0.02833333333333325],[-0.42604166666666665,-0.1574074074074074],[-0.33916666666666667,-0.22185185185185188],[-0.24322916666666666,-0.3087037037037037],[-0.24624999999999997,-0.36129629629629634],[-0.24583333333333332,-0.43870370370370365],[-0.296875,-0.47981481481481486],[-0.27885416666666674,-0.5351851851851852],[-0.29125,-0.5492592592592593],[-0.26895833333333335,-0.5559259259259259],[-0.28541666666666665,-0.49666666666666665],[-0.28312499999999996,-0.4242592592592593],[-0.26927083333333335,-0.4359259259259259],[-0.27322916666666663,-0.43259259259259264],[-0.26281249999999995,-0.44833333333333336],[-0.2686458333333333,-0.44592592592592595],[-0.22947916666666662,-0.36666666666666664],[-0.24958333333333335,-0.32462962962962966],[-0.27708333333333335,-0.2946296296296297],[-0.27708333333333335,-0.2946296296296297],[-0.30874999999999997,-0.21962962962962967],[-0.30874999999999997,-0.21962962962962967],[-0.2919791666666666,-0.21388888888888888],[-0.3155208333333333,-0.15499999999999997],[-0.3567708333333333,-0.059999999999999956],[-0.34958333333333336,-0.0198148148148149],[-0.35052083333333334,0.049074074074074076],[-0.35437500000000005,0.12537037037037047],[-0.36989583333333337,0.08611111111111111],[-0.38093750000000004,0.10629629629629625],[-0.37374999999999997,0.13129629629629624],[-0.39249999999999996,0.13499999999999995],[-0.43322916666666667,0.15759259259259265],[-0.4475,0.11666666666666667],[-0.3807291666666667,0.06592592592592597],[-0.36385416666666665,0.10740740740740741],[-0.36385416666666665,0.10740740740740741],[-0.361875,0.1037037037037037],[-0.361875,0.1037037037037037],[-0.3734375,0.08814814814814818],[-0.3734375,0.08814814814814818],[-0.36749999999999994,0.10703703703703696],[-0.36749999999999994,0.10703703703703696],[-0.399375,0.11944444444444445]]","[[-0.33531249999999996,0.011481481481481566,0.00009999999961962658],[-0.32354166666666667,0.006666666666666709,0.018700000001118156],[-0.3055208333333333,0.024814814814814772,0.03499999999999659],[-0.2720833333333334,0.1235185185185186,0.04959999999962861],[-0.2570833333333333,0.19240740740740736,0.06880000000073494],[-0.19135416666666671,0.2759259259259259,0.0902000000011185],[-0.19135416666666671,0.2759259259259259,0.10899999999999466],[-0.1671875,0.3661111111111112,0.1263000000007395],[-0.1671875,0.3661111111111112,0.13299999999999557],[-0.1310416666666666,0.48092592592592603,0.14959999999962292],[-0.1310416666666666,0.48092592592592603,0.1662000000011119],[-0.11010416666666671,0.5820370370370369,0.18299999999999272],[-0.11010416666666671,0.5820370370370369,0.19959999999962008],[-0.09145833333333328,0.7040740740740742,0.21620000000110906],[-0.09145833333333328,0.7040740740740742,0.23299999999998988],[-0.07479166666666662,0.8229629629629629,0.24959999999961724],[-0.07479166666666662,0.8229629629629629,0.26620000000112043],[-0.05583333333333336,0.8742592592592593,0.2830999999996209],[-0.05583333333333336,0.8742592592592593,0.2995999999996286],[-0.059791666666666646,0.9462962962962963,0.3162000000011176],[-0.059791666666666646,0.9462962962962963,0.33290000000036457],[-0.07416666666666671,0.9490740740740741,0.34959999999962577],[-0.07416666666666671,0.9490740740740741,0.36630000000073437],[-0.11645833333333329,0.9003703703703705,0.3830999999996294],[-0.11645833333333329,0.9003703703703705,0.3995999999996229],[-0.18645833333333334,0.8051851851851851,0.41630000000074574],[-0.18645833333333334,0.8051851851851851,0.4329000000003731],[-0.23989583333333328,0.7427777777777779,0.4495999999996201],[-0.32479166666666665,0.6533333333333332,0.4703000000007478],[-0.32479166666666665,0.6533333333333332,0.4829999999999899],[-0.35510416666666667,0.5479629629629629,0.49959999999961724],[-0.35510416666666667,0.5479629629629629,0.5163000000007401],[-0.3857291666666666,0.3979629629629629,0.5329000000003674],[-0.43781249999999994,0.29685185185185176,0.5495999999996286],[-0.4829166666666667,0.2064814814814815,0.5663000000007372],[-0.5051041666666667,0.09537037037037037,0.5829999999999984],[-0.5288541666666666,0.023148148148148147,0.5994999999999919],[-0.5129166666666667,-0.007037037037036953,0.6162000000011147],[-0.5113541666666667,-0.03185185185185194,0.6329999999999956],[-0.4720833333333333,-0.052962962962963,0.6497000000011184],[-0.415,-0.056296296296296254,0.6663000000007457],[-0.41052083333333333,-0.026851851851851852,0.6832000000011078],[-0.4163541666666667,-0.024814814814814772,0.6995999999996201],[-0.3927083333333333,-0.05462962962962963,0.7162000000011091],[-0.3803125,-0.07407407407407407,0.7329000000003703],[-0.3853125,-0.06870370370370374,0.7495999999996172],[-0.37822916666666667,-0.04462962962962967,0.7662000000011204],[-0.4001041666666667,0.001851851851851852,0.7830000000000013],[-0.3876041666666667,0.030000000000000086,0.7997000000011099],[-0.4370833333333334,0.04055555555555551,0.8162000000011176],[-0.4952083333333333,0.06574074074074074,0.8329999999999984],[-0.4952083333333333,0.06574074074074074,0.849700000001107],[-0.5404166666666667,0.08796296296296297,0.8663000000007344],[-0.5522916666666667,0.09888888888888885,0.8830999999996294],[-0.5604166666666667,0.09722222222222222,0.8995999999996229],[-0.5694791666666668,0.1081481481481481,0.9163000000007457],[-0.5580208333333334,0.09870370370370361,0.9329000000003731],[-0.5685416666666666,0.07240740740740745,0.9518000000007447],[-0.5321874999999999,0.04814814814814815,0.9673000000007477],[-0.5104166666666666,0.026481481481481398,0.984800000000746],[-0.4648958333333333,-0.007407407407407408,1.0029000000003663],[-0.3829166666666667,-0.0653703703703704,1.0180000000000007],[-0.29927083333333326,-0.1111111111111111,1.0329000000003674],[-0.2526041666666667,-0.15462962962962962,1.0495999999996286],[-0.21843750000000003,-0.19037037037037038,1.0663000000007372],[-0.1921875,-0.22037037037037038,1.0835999999996204],[-0.16499999999999998,-0.28425925925925927,1.099700000001107],[-0.10177083333333338,-0.317037037037037,1.1163000000007344],[-0.10104166666666667,-0.3755555555555556,1.1329000000003617],[-0.0953125,-0.38685185185185184,1.149599999999623],[-0.08333333333333333,-0.40685185185185185,1.166200000001112],[-0.08708333333333336,-0.45499999999999996,1.1829999999999927],[-0.09093749999999995,-0.4955555555555556,1.2019999999999982],[-0.11166666666666672,-0.4368518518518518,1.216300000000743],[-0.10791666666666669,-0.3979629629629629,1.2329000000003703],[-0.09322916666666667,-0.40796296296296297,1.2495999999996172],[-0.07947916666666661,-0.3864814814814815,1.266400000000374],[-0.0796875,-0.40499999999999997,1.2830000000000013],[-0.05,-0.41759259259259257,1.2995999999996286],[-0.02947916666666662,-0.4455555555555556,1.3162000000011176],[-0.0006250000000000236,-0.42000000000000004,1.332800000000745],[0.0359375,-0.39240740740740737,1.3495999999996258],[0.0655208333333333,-0.4112962962962963,1.3663000000007344],[0.11770833333333333,-0.4946296296296297,1.3829999999999956],[0.14656250000000004,-0.4903703703703704,1.399599999999623],[0.1765625,-0.46407407407407414,1.416200000001112],[0.21020833333333327,-0.4235185185185185,1.432900000000373],[0.22468750000000004,-0.4027777777777778,1.4495000000000005],[0.21354166666666666,-0.35333333333333333,1.466200000001109],[0.25322916666666656,-0.2898148148148148,1.4829999999999899],[0.27458333333333323,-0.2855555555555555,1.4995999999996172],[0.2752083333333334,-0.24981481481481477,1.5162000000011204],[0.2951041666666666,-0.19314814814814818,1.5330999999996209],[0.32062499999999994,-0.12999999999999998,1.5495999999996286],[0.3377083333333334,-0.1235185185185185,1.5674000000003616],[0.35572916666666665,-0.09870370370370372,1.5829999999999984],[0.36697916666666663,-0.09018518518518516,1.5995999999996258],[0.37218749999999995,-0.016666666666666666,1.6162000000011147],[0.3954166666666666,0.03981481481481482,1.6329000000003617],[0.35572916666666665,0.027222222222222307,1.649599999999623],[0.3260416666666667,0.020370370370370372,1.6664000000003654],[0.32229166666666675,0.012037037037037037,1.6829999999999927],[0.3063541666666666,0.02240740740740745,1.6997000000011155],[0.28916666666666657,0.016666666666666666,1.716300000000743],[0.28020833333333334,0.02296296296296292,1.73599999999999],[0.26708333333333345,0.019444444444444445,1.7494999999999976],[0.23187499999999991,0.011296296296296339,1.76630000000074],[0.19885416666666675,-0.013888888888888888,1.7830999999996209],[0.16822916666666668,-0.05907407407407403,1.7995999999996286],[0.16770833333333332,-0.05796296296296299,1.8163000000007372],[0.15416666666666667,-0.014074074074074116,1.8329999999999984],[0.15416666666666667,-0.014074074074074116,1.8495999999996258],[0.11416666666666657,0.05055555555555547,1.866500000000002],[0.07979166666666657,0.1,1.8830999999996294],[0.030729166666666665,0.19166666666666668,1.899499999999989],[-0.0036458333333333334,0.23944444444444435,1.916200000001112],[-0.04635416666666667,0.2953703703703704,1.932900000000373],[-0.06114583333333338,0.3257407407407407,1.94959999999962],[-0.05479166666666669,0.37888888888888894,1.966200000001109],[-0.03812500000000003,0.4050000000000001,1.9830999999996237],[-0.05,0.4807407407407408,1.9998000000007465],[-0.03156249999999995,0.46055555555555566,2.018800000000738],[-0.03156249999999995,0.46055555555555566,2.0332000000011163],[-0.02781250000000005,0.43425925925925923,2.0498000000007437],[-0.030312500000000023,0.3907407407407407,2.0698000000007397],[-0.030312500000000023,0.3907407407407407,2.0833000000007473],[-0.019583333333333286,0.2977777777777777,2.099800000000741],[-0.024479166666666666,0.22555555555555548,2.116400000000368],[-0.005208333333333333,0.13148148148148148,2.1362000000011108],[0.011666666666666714,0.06722222222222214,2.1509999999999962],[-0.005208333333333333,-0.015370370370370286,2.166800000000734],[-0.027083333333333334,-0.06129629629629634,2.185999999999993],[-0.029375000000000047,-0.13055555555555556,2.2027000000011157],[-0.06947916666666672,-0.14888888888888885,2.218700000001107],[-0.0889583333333333,-0.222037037037037,2.2388000000007366],[-0.0967708333333333,-0.24814814814814815,2.252400000000364],[-0.11447916666666665,-0.23203703703703707,2.2689999999999912],[-0.11625000000000002,-0.2657407407407407,2.2862000000011165],[-0.11468750000000003,-0.25870370370370366,2.3025999999996287],[-0.12614583333333335,-0.27629629629629626,2.3162000000011176],[-0.11572916666666669,-0.31055555555555553,2.3379000000003742],[-0.11572916666666669,-0.31055555555555553,2.349499999999992],[-0.11124999999999995,-0.34518518518518515,2.3662000000011147],[-0.11124999999999995,-0.34518518518518515,2.3829999999999956],[-0.10333333333333337,-0.387037037037037,2.399499999999989],[-0.10239583333333328,-0.4425925925925926,2.4194999999999993],[-0.10239583333333328,-0.4425925925925926,2.432900000000373],[-0.1063541666666667,-0.4038888888888889,2.4545999999996297],[-0.1063541666666667,-0.4038888888888889,2.4664000000003625],[-0.07833333333333338,-0.4116666666666667,2.4830999999996237],[-0.07833333333333338,-0.4116666666666667,2.4995999999996172],[-0.028125,-0.45499999999999996,2.5210999999996204],[-0.028125,-0.45499999999999996,2.5330000000000013],[0.002916666666666619,-0.40129629629629626,2.54970000000111],[0.002916666666666619,-0.40129629629629626,2.566400000000371],[0.025729166666666713,-0.40685185185185185,2.5829000000003646],[0.025729166666666713,-0.40685185185185185,2.603999999999999],[0.0265625,-0.40796296296296297,2.6162000000011147],[0.0265625,-0.40796296296296297,2.6329000000003617],[0.06229166666666662,-0.34981481481481475,2.649599999999623],[0.06229166666666662,-0.34981481481481475,2.666200000001112],[0.0775000000000001,-0.30759259259259264,2.6829999999999927],[0.0775000000000001,-0.30759259259259264,2.69959999999962],[0.09447916666666671,-0.3344444444444445,2.716200000001109],[0.09447916666666671,-0.3344444444444445,2.7329000000003703],[0.14572916666666677,-0.3383333333333333,2.7495999999996172],[0.14572916666666677,-0.3383333333333333,2.76630000000074],[0.22583333333333327,-0.35962962962962963,2.783099999999621],[0.22583333333333327,-0.35962962962962963,2.79970000000111],[0.2055208333333333,-0.3592592592592593,2.8162000000011176],[0.2055208333333333,-0.3592592592592593,2.8329000000003646],[0.19874999999999995,-0.34092592592592597,2.8495999999996258],[0.20583333333333323,-0.3559259259259259,2.873400000000373],[0.20583333333333323,-0.3559259259259259,2.8829999999999956],[0.18385416666666668,-0.2942592592592592,2.8997000000011184],[0.18385416666666668,-0.2942592592592592,2.9163000000007457],[0.20427083333333323,-0.2140740740740741,2.9329999999999927],[0.1851041666666667,-0.23925925925925923,2.94959999999962],[0.21906249999999997,-0.20185185185185187,2.966300000000743],[0.2539583333333333,-0.1425925925925926,2.98299999999999],[0.2664583333333333,-0.06388888888888888,2.999900000000366],[0.2553124999999999,0.011296296296296339,3.01630000000074],[0.2868750000000001,0.09203703703703713,3.033300000000736],[0.28541666666666665,0.12611111111111115,3.0523000000007414],[0.28104166666666663,0.21944444444444444,3.0683000000007468],[0.2690624999999999,0.16740740740740737,3.083099999999618],[0.2599999999999999,0.13648148148148156,3.0995999999996258],[0.2423958333333334,0.11814814814814806,3.1162000000011147],[0.19041666666666662,0.06388888888888888,3.1329000000003617],[0.11822916666666666,0.07925925925925917,3.149499999999989],[0.0546875,0.0031481481481482323,3.168300000000741],[-0.06343749999999998,-0.09518518518518514,3.185400000000371],[-0.17895833333333327,-0.22685185185185186,3.1997000000011155],[-0.20979166666666665,-0.2668518518518519,3.216200000001109],[-0.22395833333333334,-0.4214814814814815,3.2329000000003703],[-0.18072916666666666,-0.5255555555555556,3.2495999999996172],[-0.15489583333333337,-0.6033333333333334,3.2667000000011086],[-0.08864583333333335,-0.6561111111111111,3.2830000000000013],[-0.021875,-0.6844444444444445,3.301900000000373],[0.04989583333333331,-0.7455555555555556,3.3162000000011176],[0.1365624999999999,-0.741111111111111,3.3329000000003646],[0.28062500000000007,-0.727037037037037,3.349499999999992],[0.40593750000000006,-0.6557407407407407,3.3663000000007344],[0.4548958333333334,-0.6872222222222223,3.3829999999999956],[0.4634375000000001,-0.6622222222222223,3.399599999999623],[0.4048958333333334,-0.5209259259259259,3.4182000000011072],[0.3785416666666668,-0.4742592592592593,3.4329999999999927],[0.33875000000000005,-0.3605555555555555,3.44959999999962],[0.2626041666666666,-0.29203703703703704,3.466200000001109],[0.18260416666666662,-0.2759259259259259,3.48299999999999],[0.08885416666666662,-0.24277777777777781,3.500900000000371],[-0.007083333333333286,-0.23722222222222225,3.5162000000011204],[-0.08458333333333339,-0.2477777777777778,3.5329000000003674],[-0.14229166666666668,-0.17333333333333337,3.5495999999996286],[-0.18395833333333336,-0.11388888888888889,3.5662000000011176],[-0.1985416666666667,-0.1383333333333333,3.5829000000003646],[-0.24739583333333334,-0.08370370370370368,3.601599999999621],[-0.3098958333333333,-0.0992592592592593,3.6162000000011147],[-0.33656250000000004,-0.0940740740740741,3.6329000000003617],[-0.3380208333333333,-0.06018518518518518,3.649599999999623],[-0.3398958333333333,-0.003333333333333249,3.6674999999999898],[-0.33166666666666667,0.05944444444444449,3.6829999999999927],[-0.29927083333333326,0.09703703703703699,3.69959999999962],[-0.29572916666666665,0.08518518518518518,3.716200000001109],[-0.2803125,0.0705555555555556,3.7329000000003703],[-0.25656249999999997,0.07388888888888885,3.7495999999996172],[-0.23406250000000003,0.041111111111111195,3.7684000000003692],[-0.20677083333333332,0.01648148148148144,3.7832000000011163],[-0.20145833333333332,-0.006666666666666709,3.79970000000111],[-0.1877083333333334,0.025185185185185227,3.818200000001113],[-0.19718749999999996,0.01592592592592597,3.8329000000003646],[-0.19718749999999996,0.01592592592592597,3.8495999999996258],[-0.190625,-0.008703703703703788,3.8663000000007344],[-0.22604166666666667,0.010740740740740657,3.8832000000011107],[-0.22687499999999997,0.0962962962962963,3.899499999999989],[-0.3085416666666667,0.15629629629629627,3.9160999999996164],[-0.4002083333333334,0.1757407407407407,3.9329999999999927],[-0.48260416666666667,0.23277777777777786,3.94959999999962],[-0.5764583333333333,0.23666666666666658,3.966300000000743],[-0.6445833333333333,0.3022222222222223,3.9829000000003703],[-0.7424999999999999,0.33648148148148155,3.9994999999999976],[-0.8296875,0.35851851851851857,4.0164999999999935],[-0.9403125,0.40333333333333327,4.032900000000367],[-0.9338541666666667,0.37518518518518523,4.049900000000363],[-0.9359375,0.3037037037037037,4.066200000001118],[-0.853125,0.23203703703703696,4.082900000000365],[-0.7696875,0.2044444444444444,4.099499999999992],[-0.6791666666666667,0.14203703703703713,4.116200000001115],[-0.5879166666666666,0.1014814814814814,4.132900000000362],[-0.5033333333333333,-0.02833333333333325,4.149599999999623],[-0.42604166666666665,-0.1574074074074074,4.166200000001112],[-0.33916666666666667,-0.22185185185185188,4.186599999999629],[-0.24322916666666666,-0.3087037037037037,4.20159999999963],[-0.24624999999999997,-0.36129629629629634,4.218099999999623],[-0.24583333333333332,-0.43870370370370365,4.23290000000037],[-0.296875,-0.47981481481481486,4.2519000000003615],[-0.27885416666666674,-0.5351851851851852,4.2664999999999935],[-0.29125,-0.5492592592592593,4.282900000000367],[-0.26895833333333335,-0.5559259259259259,4.299499999999995],[-0.28541666666666665,-0.49666666666666665,4.316099999999622],[-0.28312499999999996,-0.4242592592592593,4.332900000000365],[-0.26927083333333335,-0.4359259259259259,4.349599999999626],[-0.27322916666666663,-0.43259259259259264,4.366200000001115],[-0.26281249999999995,-0.44833333333333336,4.386800000000747],[-0.2686458333333333,-0.44592592592592595,4.401900000000367],[-0.22947916666666662,-0.36666666666666664,4.416200000001112],[-0.24958333333333335,-0.32462962962962966,4.432900000000373],[-0.27708333333333335,-0.2946296296296297,4.45759999999963],[-0.27708333333333335,-0.2946296296296297,4.476700000001117],[-0.30874999999999997,-0.21962962962962967,4.4964999999999975],[-0.30874999999999997,-0.21962962962962967,4.502400000000364],[-0.2919791666666666,-0.21388888888888888,4.51620000000112],[-0.3155208333333333,-0.15499999999999997,4.532900000000367],[-0.3567708333333333,-0.059999999999999956,4.549599999999629],[-0.34958333333333336,-0.0198148148148149,4.566200000001118],[-0.35052083333333334,0.049074074074074076,4.582900000000365],[-0.35437500000000005,0.12537037037037047,4.599800000000741],[-0.36989583333333337,0.08611111111111111,4.616200000001115],[-0.38093750000000004,0.10629629629629625,4.632900000000362],[-0.37374999999999997,0.13129629629629624,4.649800000000738],[-0.39249999999999996,0.13499999999999995,4.666499999999999],[-0.43322916666666667,0.15759259259259265,4.682900000000373],[-0.4475,0.11666666666666667,4.69959999999962],[-0.3807291666666667,0.06592592592592597,4.716200000001109],[-0.36385416666666665,0.10740740740740741,4.737700000001112],[-0.36385416666666665,0.10740740740740741,4.749499999999998],[-0.361875,0.1037037037037037,4.76620000000112],[-0.361875,0.1037037037037037,4.783000000000001],[-0.3734375,0.08814814814814818,4.799499999999995],[-0.3734375,0.08814814814814818,4.816200000001118],[-0.36749999999999994,0.10703703703703696,4.832999999999998],[-0.36749999999999994,0.10703703703703696,4.849499999999992],[-0.399375,0.11944444444444445,4.866400000000368]]","[0.00009999999961962658,0.018700000001118156,0.03499999999999659,0.04959999999962861,0.06880000000073494,0.0902000000011185,0.10899999999999466,0.1263000000007395,0.13299999999999557,0.14959999999962292,0.1662000000011119,0.18299999999999272,0.19959999999962008,0.21620000000110906,0.23299999999998988,0.24959999999961724,0.26620000000112043,0.2830999999996209,0.2995999999996286,0.3162000000011176,0.33290000000036457,0.34959999999962577,0.36630000000073437,0.3830999999996294,0.3995999999996229,0.41630000000074574,0.4329000000003731,0.4495999999996201,0.4703000000007478,0.4829999999999899,0.49959999999961724,0.5163000000007401,0.5329000000003674,0.5495999999996286,0.5663000000007372,0.5829999999999984,0.5994999999999919,0.6162000000011147,0.6329999999999956,0.6497000000011184,0.6663000000007457,0.6832000000011078,0.6995999999996201,0.7162000000011091,0.7329000000003703,0.7495999999996172,0.7662000000011204,0.7830000000000013,0.7997000000011099,0.8162000000011176,0.8329999999999984,0.849700000001107,0.8663000000007344,0.8830999999996294,0.8995999999996229,0.9163000000007457,0.9329000000003731,0.9518000000007447,0.9673000000007477,0.984800000000746,1.0029000000003663,1.0180000000000007,1.0329000000003674,1.0495999999996286,1.0663000000007372,1.0835999999996204,1.099700000001107,1.1163000000007344,1.1329000000003617,1.149599999999623,1.166200000001112,1.1829999999999927,1.2019999999999982,1.216300000000743,1.2329000000003703,1.2495999999996172,1.266400000000374,1.2830000000000013,1.2995999999996286,1.3162000000011176,1.332800000000745,1.3495999999996258,1.3663000000007344,1.3829999999999956,1.399599999999623,1.416200000001112,1.432900000000373,1.4495000000000005,1.466200000001109,1.4829999999999899,1.4995999999996172,1.5162000000011204,1.5330999999996209,1.5495999999996286,1.5674000000003616,1.5829999999999984,1.5995999999996258,1.6162000000011147,1.6329000000003617,1.649599999999623,1.6664000000003654,1.6829999999999927,1.6997000000011155,1.716300000000743,1.73599999999999,1.7494999999999976,1.76630000000074,1.7830999999996209,1.7995999999996286,1.8163000000007372,1.8329999999999984,1.8495999999996258,1.866500000000002,1.8830999999996294,1.899499999999989,1.916200000001112,1.932900000000373,1.94959999999962,1.966200000001109,1.9830999999996237,1.9998000000007465,2.018800000000738,2.0332000000011163,2.0498000000007437,2.0698000000007397,2.0833000000007473,2.099800000000741,2.116400000000368,2.1362000000011108,2.1509999999999962,2.166800000000734,2.185999999999993,2.2027000000011157,2.218700000001107,2.2388000000007366,2.252400000000364,2.2689999999999912,2.2862000000011165,2.3025999999996287,2.3162000000011176,2.3379000000003742,2.349499999999992,2.3662000000011147,2.3829999999999956,2.399499999999989,2.4194999999999993,2.432900000000373,2.4545999999996297,2.4664000000003625,2.4830999999996237,2.4995999999996172,2.5210999999996204,2.5330000000000013,2.54970000000111,2.566400000000371,2.5829000000003646,2.603999999999999,2.6162000000011147,2.6329000000003617,2.649599999999623,2.666200000001112,2.6829999999999927,2.69959999999962,2.716200000001109,2.7329000000003703,2.7495999999996172,2.76630000000074,2.783099999999621,2.79970000000111,2.8162000000011176,2.8329000000003646,2.8495999999996258,2.873400000000373,2.8829999999999956,2.8997000000011184,2.9163000000007457,2.9329999999999927,2.94959999999962,2.966300000000743,2.98299999999999,2.999900000000366,3.01630000000074,3.033300000000736,3.0523000000007414,3.0683000000007468,3.083099999999618,3.0995999999996258,3.1162000000011147,3.1329000000003617,3.149499999999989,3.168300000000741,3.185400000000371,3.1997000000011155,3.216200000001109,3.2329000000003703,3.2495999999996172,3.2667000000011086,3.2830000000000013,3.301900000000373,3.3162000000011176,3.3329000000003646,3.349499999999992,3.3663000000007344,3.3829999999999956,3.399599999999623,3.4182000000011072,3.4329999999999927,3.44959999999962,3.466200000001109,3.48299999999999,3.500900000000371,3.5162000000011204,3.5329000000003674,3.5495999999996286,3.5662000000011176,3.5829000000003646,3.601599999999621,3.6162000000011147,3.6329000000003617,3.649599999999623,3.6674999999999898,3.6829999999999927,3.69959999999962,3.716200000001109,3.7329000000003703,3.7495999999996172,3.7684000000003692,3.7832000000011163,3.79970000000111,3.818200000001113,3.8329000000003646,3.8495999999996258,3.8663000000007344,3.8832000000011107,3.899499999999989,3.9160999999996164,3.9329999999999927,3.94959999999962,3.966300000000743,3.9829000000003703,3.9994999999999976,4.0164999999999935,4.032900000000367,4.049900000000363,4.066200000001118,4.082900000000365,4.099499999999992,4.116200000001115,4.132900000000362,4.149599999999623,4.166200000001112,4.186599999999629,4.20159999999963,4.218099999999623,4.23290000000037,4.2519000000003615,4.2664999999999935,4.282900000000367,4.299499999999995,4.316099999999622,4.332900000000365,4.349599999999626,4.366200000001115,4.386800000000747,4.401900000000367,4.416200000001112,4.432900000000373,4.45759999999963,4.476700000001117,4.4964999999999975,4.502400000000364,4.51620000000112,4.532900000000367,4.549599999999629,4.566200000001118,4.582900000000365,4.599800000000741,4.616200000001115,4.632900000000362,4.649800000000738,4.666499999999999,4.682900000000373,4.69959999999962,4.716200000001109,4.737700000001112,4.749499999999998,4.76620000000112,4.783000000000001,4.799499999999995,4.816200000001118,4.832999999999998,4.849499999999992,4.866400000000368]","[1733124486922,1733124486939,1733124486956,1733124486970,1733124486990,1733124487011,1733124487030,1733124487047,1733124487054,1733124487070,1733124487087,1733124487104,1733124487120,1733124487137,1733124487154,1733124487170,1733124487187,1733124487204,1733124487220,1733124487237,1733124487254,1733124487270,1733124487287,1733124487304,1733124487320,1733124487337,1733124487354,1733124487370,1733124487391,1733124487404,1733124487420,1733124487437,1733124487454,1733124487470,1733124487487,1733124487504,1733124487520,1733124487537,1733124487554,1733124487570,1733124487587,1733124487604,1733124487620,1733124487637,1733124487654,1733124487670,1733124487687,1733124487704,1733124487720,1733124487737,1733124487754,1733124487770,1733124487787,1733124487804,1733124487820,1733124487837,1733124487854,1733124487873,1733124487888,1733124487906,1733124487924,1733124487939,1733124487954,1733124487970,1733124487987,1733124488004,1733124488020,1733124488037,1733124488054,1733124488070,1733124488087,1733124488104,1733124488123,1733124488137,1733124488154,1733124488170,1733124488187,1733124488204,1733124488220,1733124488237,1733124488254,1733124488270,1733124488287,1733124488304,1733124488320,1733124488337,1733124488354,1733124488370,1733124488387,1733124488404,1733124488420,1733124488437,1733124488454,1733124488470,1733124488488,1733124488504,1733124488520,1733124488537,1733124488554,1733124488570,1733124488587,1733124488604,1733124488620,1733124488637,1733124488657,1733124488670,1733124488687,1733124488704,1733124488720,1733124488737,1733124488754,1733124488770,1733124488787,1733124488804,1733124488820,1733124488837,1733124488854,1733124488870,1733124488887,1733124488904,1733124488921,1733124488940,1733124488954,1733124488971,1733124488991,1733124489004,1733124489021,1733124489037,1733124489057,1733124489072,1733124489088,1733124489107,1733124489123,1733124489139,1733124489159,1733124489173,1733124489190,1733124489207,1733124489223,1733124489237,1733124489259,1733124489270,1733124489287,1733124489304,1733124489320,1733124489340,1733124489354,1733124489375,1733124489387,1733124489404,1733124489420,1733124489442,1733124489454,1733124489470,1733124489487,1733124489504,1733124489525,1733124489537,1733124489554,1733124489570,1733124489587,1733124489604,1733124489620,1733124489637,1733124489654,1733124489670,1733124489687,1733124489704,1733124489720,1733124489737,1733124489754,1733124489770,1733124489794,1733124489804,1733124489820,1733124489837,1733124489854,1733124489870,1733124489887,1733124489904,1733124489921,1733124489937,1733124489954,1733124489973,1733124489989,1733124490004,1733124490020,1733124490037,1733124490054,1733124490070,1733124490089,1733124490106,1733124490120,1733124490137,1733124490154,1733124490170,1733124490187,1733124490204,1733124490223,1733124490237,1733124490254,1733124490270,1733124490287,1733124490304,1733124490320,1733124490339,1733124490354,1733124490370,1733124490387,1733124490404,1733124490422,1733124490437,1733124490454,1733124490470,1733124490487,1733124490504,1733124490522,1733124490537,1733124490554,1733124490570,1733124490588,1733124490604,1733124490620,1733124490637,1733124490654,1733124490670,1733124490689,1733124490704,1733124490720,1733124490739,1733124490754,1733124490770,1733124490787,1733124490804,1733124490820,1733124490837,1733124490854,1733124490870,1733124490887,1733124490904,1733124490920,1733124490937,1733124490954,1733124490971,1733124490987,1733124491004,1733124491020,1733124491037,1733124491054,1733124491070,1733124491087,1733124491107,1733124491122,1733124491139,1733124491154,1733124491173,1733124491187,1733124491204,1733124491220,1733124491237,1733124491254,1733124491270,1733124491287,1733124491307,1733124491323,1733124491337,1733124491354,1733124491378,1733124491397,1733124491417,1733124491423,1733124491437,1733124491454,1733124491470,1733124491487,1733124491504,1733124491521,1733124491537,1733124491554,1733124491571,1733124491587,1733124491604,1733124491620,1733124491637,1733124491658,1733124491670,1733124491687,1733124491704,1733124491720,1733124491737,1733124491754,1733124491770,1733124491787]","[[638.1,546.2],[649.4,543.6],[666.7,553.4],[698.8,606.7],[713.2,643.9],[776.3,689],[776.3,689],[799.5,737.7],[799.5,737.7],[834.2,799.7],[834.2,799.7],[854.3,854.3],[854.3,854.3],[872.2,920.2],[872.2,920.2],[888.2,984.4],[888.2,984.4],[906.4,1012.1],[906.4,1012.1],[902.6,1051],[902.6,1051],[888.8,1052.5],[888.8,1052.5],[848.2,1026.2],[848.2,1026.2],[781,974.8],[781,974.8],[729.7,941.1],[648.2,892.8],[648.2,892.8],[619.1,835.9],[619.1,835.9],[589.7,754.9],[539.7,700.3],[496.4,651.5],[475.1,591.5],[452.3,552.5],[467.6,536.2],[469.1,522.8],[506.8,511.4],[561.6,509.6],[565.9,525.5],[560.3,526.6],[583,510.5],[594.9,500],[590.1,502.9],[596.9,515.9],[575.9,541],[587.9,556.2],[540.4,561.9],[484.6,575.5],[484.6,575.5],[441.2,587.5],[429.8,593.4],[422,592.5],[413.3,598.4],[424.3,593.3],[414.2,579.1],[449.1,566],[470,554.3],[513.7,536],[592.4,504.7],[672.7,480],[717.5,456.5],[750.3,437.2],[775.5,421],[801.6,386.5],[862.3,368.8],[863,337.2],[868.5,331.1],[880,320.3],[876.4,294.3],[872.7,272.4],[852.8,304.1],[856.4,325.1],[870.5,319.7],[883.7,331.3],[883.5,321.3],[912,314.5],[931.7,299.4],[959.4,313.2],[994.5,328.1],[1022.9,317.9],[1073,272.9],[1100.7,275.2],[1129.5,289.4],[1161.8,311.3],[1175.7,322.5],[1165,349.2],[1203.1,383.5],[1223.6,385.8],[1224.2,405.1],[1243.3,435.7],[1267.8,469.8],[1284.2,473.3],[1301.5,486.7],[1312.3,491.3],[1317.3,531],[1339.6,561.5],[1301.5,554.7],[1273,551],[1269.4,546.5],[1254.1,552.1],[1237.6,549],[1229,552.4],[1216.4,550.5],[1182.6,546.1],[1150.9,532.5],[1121.5,508.1],[1121,508.7],[1108,532.4],[1108,532.4],[1069.6,567.3],[1036.6,594],[989.5,643.5],[956.5,669.3],[915.5,699.5],[901.3,715.9],[907.4,744.6],[923.4,758.7],[912,799.6],[929.7,788.7],[929.7,788.7],[933.3,774.5],[930.9,751],[930.9,751],[941.2,700.8],[936.5,661.8],[955,611],[971.2,576.3],[955,531.7],[934,506.9],[931.8,469.5],[893.3,459.6],[874.6,420.1],[867.1,406],[850.1,414.7],[848.4,396.5],[849.9,400.3],[838.9,390.8],[848.9,372.3],[848.9,372.3],[853.2,353.6],[853.2,353.6],[860.8,331],[861.7,301],[861.7,301],[857.9,321.9],[857.9,321.9],[884.8,317.7],[884.8,317.7],[933,294.3],[933,294.3],[962.8,323.3],[962.8,323.3],[984.7,320.3],[984.7,320.3],[985.5,319.7],[985.5,319.7],[1019.8,351.1],[1019.8,351.1],[1034.4,373.9],[1034.4,373.9],[1050.7,359.4],[1050.7,359.4],[1099.9,357.3],[1099.9,357.3],[1176.8,345.8],[1176.8,345.8],[1157.3,346],[1157.3,346],[1150.8,355.9],[1157.6,347.8],[1157.6,347.8],[1136.5,381.1],[1136.5,381.1],[1156.1,424.4],[1137.7,410.8],[1170.3,431],[1203.8,463],[1215.8,505.5],[1205.1,546.1],[1235.4,589.7],[1234,608.1],[1229.8,658.5],[1218.3,630.4],[1209.6,613.7],[1192.7,603.8],[1142.8,574.5],[1073.5,582.8],[1012.5,541.7],[899.1,488.6],[788.2,417.5],[758.6,395.9],[745,312.4],[786.5,256.2],[811.3,214.2],[874.9,185.7],[939,170.4],[1007.9,137.4],[1091.1,139.8],[1229.4,147.4],[1349.7,185.9],[1396.7,168.9],[1404.9,182.4],[1348.7,258.7],[1323.4,283.9],[1285.2,345.3],[1212.1,382.3],[1135.3,391],[1045.3,408.9],[953.2,411.9],[878.8,406.2],[823.4,446.4],[783.4,478.5],[769.4,465.3],[722.5,494.8],[662.5,486.4],[636.9,489.2],[635.5,507.5],[633.7,538.2],[641.6,572.1],[672.7,592.4],[676.1,586],[690.9,578.1],[713.7,579.9],[735.3,562.2],[761.5,548.9],[766.6,536.4],[779.8,553.6],[770.7,548.6],[770.7,548.6],[777,535.3],[743,545.8],[742.2,592],[663.8,624.4],[575.8,634.9],[496.7,665.7],[406.6,667.8],[341.2,703.2],[247.2,721.7],[163.5,733.6],[57.3,757.8],[63.5,742.6],[61.5,704],[141,665.3],[221.1,650.4],[308,616.7],[395.6,594.8],[476.8,524.7],[551,455],[634.4,420.2],[726.5,373.3],[723.6,344.9],[724,303.1],[675,280.9],[692.3,251],[680.4,243.4],[701.8,239.8],[686,271.8],[688.2,310.9],[701.5,304.6],[697.7,306.4],[707.7,297.9],[702.1,299.2],[739.7,342],[720.4,364.7],[694,380.9],[694,380.9],[663.6,421.4],[663.6,421.4],[679.7,424.5],[657.1,456.3],[617.5,507.6],[624.4,529.3],[623.5,566.5],[619.8,607.7],[604.9,586.5],[594.3,597.4],[601.2,610.9],[583.2,612.9],[544.1,625.1],[530.4,603],[594.5,575.6],[610.7,598],[610.7,598],[612.6,596],[612.6,596],[601.5,587.6],[601.5,587.6],[607.2,597.8],[607.2,597.8],[576.6,604.5]]","[0,0.37864299999999995]","[0.37864299999999995,0.37864299999999995]","[-0.37864299999999995,0]","[-0.37864299999999995,-0.37864299999999995]","[0,0]","[0.37864299999999995,0]","[0,-0.37864299999999995]","[0.37864299999999995,-0.37864299999999995]",0,1,1,1,1,3,Laptop,5,5,13,7
