inst1_resp.keys,inst1_resp.rt,calibrationMouse.x,calibrationMouse.y,calibrationMouse.leftButton,calibrationMouse.midButton,calibrationMouse.rightButton,calibrationClick.x,calibrationClick.y,calibrationClick.leftButton,calibrationClick.midButton,calibrationClick.rightButton,trialsc.thisRepN,trialsc.thisTrialN,trialsc.thisN,trialsc.thisIndex,trialsc.ran,calibration_x,calibration_y,participant,session,date,expName,psychopyVersion,OS,frameRate,calibrationClick.clicked_name,ScreenRes_pixels,Camera_pixels,mouse_2.x,mouse_2.y,mouse_2.leftButton,mouse_2.midButton,mouse_2.rightButton,mouse_2.time,mouse_2.clicked_name,mouse.x,mouse.y,mouse.leftButton,mouse.midButton,mouse.rightButton,mouse.time,mouse.clicked_name,Choice,Trial,TrialDuration,MOUSE_GAZE,ET_GAZE,ET_GAZE_x_T,time,unixTime,ET_GAZE_NF,Loc_Option1_label,Loc_Option2_label,Loc_Cost_label,Loc_Qual_label,Loc_Option1_cost,Loc_Option2_cost,Loc_Option1_quality,Loc_Option2_quality,trials.thisRepN,trials.thisTrialN,trials.thisN,trials.thisIndex,trials.ran,Block,Device,cost1,qual1,cost2,qual2
space,3.7152,0.095833333,0.35,1,0,0,-0.0125,-0.335185185,1,0,0,0,0,0,10,1,0,-0.33,34,001,2024-12-01_15h50.27.763,Attention_exp_legacy,2023.1.0,Win32,60.24096386,,,,,,,,,,,,,,,,,,,,,,,,,,,,,,,,,,,,,,,,,,,,,
,,,,,,,-0.654166667,-0.301851852,1,0,0,0,1,1,1,1,-0.67,-0.33,34,001,2024-12-01_15h50.27.763,Attention_exp_legacy,2023.1.0,Win32,60.24096386,,,,,,,,,,,,,,,,,,,,,,,,,,,,,,,,,,,,,,,,,,,,,
,,,,,,,0.323958333,0.012962963,1,0,0,0,2,2,16,1,0.33,0,34,001,2024-12-01_15h50.27.763,Attention_exp_legacy,2023.1.0,Win32,60.24096386,,,,,,,,,,,,,,,,,,,,,,,,,,,,,,,,,,,,,,,,,,,,,
,,,,,,,-0.002083333,0.309259259,1,0,0,0,3,3,12,1,0,0.33,34,001,2024-12-01_15h50.27.763,Attention_exp_legacy,2023.1.0,Win32,60.24096386,,,,,,,,,,,,,,,,,,,,,,,,,,,,,,,,,,,,,,,,,,,,,
,,,,,,,-0.005208333,0.640740741,1,0,0,0,4,4,13,1,0,0.67,34,001,2024-12-01_15h50.27.763,Attention_exp_legacy,2023.1.0,Win32,60.24096386,,,,,,,,,,,,,,,,,,,,,,,,,,,,,,,,,,,,,,,,,,,,,
,,,,,,,-0.683333333,-0.65,1,0,0,0,5,5,0,1,-0.67,-0.67,34,001,2024-12-01_15h50.27.763,Attention_exp_legacy,2023.1.0,Win32,60.24096386,,,,,,,,,,,,,,,,,,,,,,,,,,,,,,,,,,,,,,,,,,,,,
,,,,,,,-0.01875,-0.692592593,1,0,0,0,6,6,9,1,0,-0.67,34,001,2024-12-01_15h50.27.763,Attention_exp_legacy,2023.1.0,Win32,60.24096386,,,,,,,,,,,,,,,,,,,,,,,,,,,,,,,,,,,,,,,,,,,,,
,,,,,,,-0.335416667,-0.351851852,1,0,0,0,7,7,5,1,-0.33,-0.33,34,001,2024-12-01_15h50.27.763,Attention_exp_legacy,2023.1.0,Win32,60.24096386,,,,,,,,,,,,,,,,,,,,,,,,,,,,,,,,,,,,,,,,,,,,,
,,,,,,,0.325,-0.35,1,0,0,0,8,8,15,1,0.33,-0.33,34,001,2024-12-01_15h50.27.763,Attention_exp_legacy,2023.1.0,Win32,60.24096386,,,,,,,,,,,,,,,,,,,,,,,,,,,,,,,,,,,,,,,,,,,,,
,,,,,,,0.335416667,-0.677777778,1,0,0,0,9,9,14,1,0.33,-0.67,34,001,2024-12-01_15h50.27.763,Attention_exp_legacy,2023.1.0,Win32,60.24096386,calibration_square,,,,,,,,,,,,,,,,,,,,,,,,,,,,,,,,,,,,,,,,,,,,
,,,,,,,0.642708333,-0.685185185,1,0,0,0,10,10,20,1,0.67,-0.67,34,001,2024-12-01_15h50.27.763,Attention_exp_legacy,2023.1.0,Win32,60.24096386,,,,,,,,,,,,,,,,,,,,,,,,,,,,,,,,,,,,,,,,,,,,,
,,,,,,,-0.315625,0.007407407,1,0,0,0,11,11,6,1,-0.33,0,34,001,2024-12-01_15h50.27.763,Attention_exp_legacy,2023.1.0,Win32,60.24096386,,,,,,,,,,,,,,,,,,,,,,,,,,,,,,,,,,,,,,,,,,,,,
,,,,,,,-0.66875,0.337037037,1,0,0,0,12,12,3,1,-0.67,0.33,34,001,2024-12-01_15h50.27.763,Attention_exp_legacy,2023.1.0,Win32,60.24096386,calibration_square,,,,,,,,,,,,,,,,,,,,,,,,,,,,,,,,,,,,,,,,,,,,
,,,,,,,-0.3375,0.696296296,1,0,0,0,13,13,8,1,-0.33,0.67,34,001,2024-12-01_15h50.27.763,Attention_exp_legacy,2023.1.0,Win32,60.24096386,,,,,,,,,,,,,,,,,,,,,,,,,,,,,,,,,,,,,,,,,,,,,
,,,,,,,-0.357291667,-0.668518519,1,0,0,0,14,14,4,1,-0.33,-0.67,34,001,2024-12-01_15h50.27.763,Attention_exp_legacy,2023.1.0,Win32,60.24096386,,,,,,,,,,,,,,,,,,,,,,,,,,,,,,,,,,,,,,,,,,,,,
,,,,,,,0.335416667,0.674074074,1,0,0,0,15,15,18,1,0.33,0.67,34,001,2024-12-01_15h50.27.763,Attention_exp_legacy,2023.1.0,Win32,60.24096386,calibration_square,,,,,,,,,,,,,,,,,,,,,,,,,,,,,,,,,,,,,,,,,,,,
,,,,,,,0.383333333,0.298148148,1,0,0,0,16,16,17,1,0.33,0.33,34,001,2024-12-01_15h50.27.763,Attention_exp_legacy,2023.1.0,Win32,60.24096386,,,,,,,,,,,,,,,,,,,,,,,,,,,,,,,,,,,,,,,,,,,,,
,,,,,,,-0.679166667,-0.007407407,1,0,0,0,17,17,2,1,-0.67,0,34,001,2024-12-01_15h50.27.763,Attention_exp_legacy,2023.1.0,Win32,60.24096386,calibration_square,,,,,,,,,,,,,,,,,,,,,,,,,,,,,,,,,,,,,,,,,,,,
,,,,,,,-0.323958333,0.309259259,1,0,0,0,18,18,7,1,-0.33,0.33,34,001,2024-12-01_15h50.27.763,Attention_exp_legacy,2023.1.0,Win32,60.24096386,,,,,,,,,,,,,,,,,,,,,,,,,,,,,,,,,,,,,,,,,,,,,
,,,,,,,0.683333333,0.67037037,1,0,0,0,19,19,19,1,0.67,0.67,34,001,2024-12-01_15h50.27.763,Attention_exp_legacy,2023.1.0,Win32,60.24096386,,,,,,,,,,,,,,,,,,,,,,,,,,,,,,,,,,,,,,,,,,,,,
,,,,,,,-0.001041667,-0.011111111,1,0,0,0,20,20,11,1,0,0,34,001,2024-12-01_15h50.27.763,Attention_exp_legacy,2023.1.0,Win32,60.24096386,,,,,,,,,,,,,,,,,,,,,,,,,,,,,,,,,,,,,,,,,,,,,
,,,,,,,,,,,,,,,,,,,34,001,2024-12-01_15h50.27.763,Attention_exp_legacy,2023.1.0,Win32,60.24096386,,"[1920,1080]","[640,480]",[-0.0010416666666666667],[-0.48333333333333334],[1],[0],[0],[12.994],"[""StartButton""]",[0.022916666666666665],[0.3592592592592593],[1],[0],[0],[6.00539999997617],"[""Option1_label""]",Option1_label,1,7.0144,"[[0.128125,0.12222222222222222],[0.128125,0.12222222222222222],[0.128125,0.12222222222222222],[0.128125,0.12222222222222222],[0.128125,0.12222222222222222],[0.128125,0.12222222222222222],[0.128125,0.12222222222222222],[0.128125,0.12222222222222222],[0.12916666666666668,0.12037037037037036],[0.12916666666666668,0.12037037037037036],[0.13020833333333334,0.11851851851851852],[0.13125,0.11666666666666667],[0.13229166666666667,0.11481481481481481],[0.13229166666666667,0.11481481481481481],[0.13333333333333333,0.11481481481481481],[0.13541666666666666,0.11481481481481481],[0.1375,0.11481481481481481],[0.13958333333333334,0.11481481481481481],[0.14166666666666666,0.11666666666666667],[0.15208333333333332,0.12407407407407407],[0.15729166666666666,0.12777777777777777],[0.16145833333333334,0.13703703703703704],[0.16354166666666667,0.14074074074074075],[0.165625,0.15185185185185185],[0.16666666666666666,0.16111111111111112],[0.16666666666666666,0.17592592592592593],[0.16666666666666666,0.19444444444444445],[0.16666666666666666,0.21481481481481482],[0.16354166666666667,0.2351851851851852],[0.16041666666666668,0.25555555555555554],[0.15520833333333334,0.2722222222222222],[0.14166666666666666,0.3055555555555556],[0.13229166666666667,0.3296296296296296],[0.12291666666666666,0.34814814814814815],[0.11354166666666667,0.36666666666666664],[0.10208333333333333,0.387037037037037],[0.08958333333333333,0.4074074074074074],[0.07604166666666666,0.42407407407407405],[0.0625,0.43703703703703706],[0.04895833333333333,0.4462962962962963],[0.03229166666666667,0.45555555555555555],[0.016666666666666666,0.46111111111111114],[0.0010416666666666667,0.46296296296296297],[-0.025,0.46296296296296297],[-0.04375,0.46296296296296297],[-0.065625,0.46296296296296297],[-0.090625,0.45925925925925926],[-0.11354166666666667,0.4462962962962963],[-0.1375,0.43148148148148147],[-0.16041666666666668,0.4185185185185185],[-0.18229166666666666,0.3962962962962963],[-0.20416666666666666,0.3685185185185185],[-0.22708333333333333,0.337037037037037],[-0.24791666666666667,0.30185185185185187],[-0.2677083333333333,0.26481481481481484],[-0.296875,0.21296296296296297],[-0.31354166666666666,0.17592592592592593],[-0.325,0.14444444444444443],[-0.33541666666666664,0.11851851851851852],[-0.33958333333333335,0.09259259259259259],[-0.34270833333333334,0.06666666666666667],[-0.34479166666666666,0.05185185185185185],[-0.34479166666666666,0.037037037037037035],[-0.3458333333333333,0.027777777777777776],[-0.3458333333333333,0.018518518518518517],[-0.3458333333333333,0.009259259259259259],[-0.34375,-0.001851851851851852],[-0.34270833333333334,-0.007407407407407408],[-0.33958333333333335,-0.016666666666666666],[-0.33958333333333335,-0.020370370370370372],[-0.3375,-0.024074074074074074],[-0.33645833333333336,-0.027777777777777776],[-0.334375,-0.02962962962962963],[-0.33125,-0.02962962962962963],[-0.32708333333333334,-0.02962962962962963],[-0.3229166666666667,-0.02962962962962963],[-0.31666666666666665,-0.02962962962962963],[-0.3072916666666667,-0.027777777777777776],[-0.29583333333333334,-0.016666666666666666],[-0.26875,0.003703703703703704],[-0.24791666666666667,0.018518518518518517],[-0.221875,0.040740740740740744],[-0.19166666666666668,0.06296296296296296],[-0.15520833333333334,0.08888888888888889],[-0.11145833333333334,0.11666666666666667],[-0.06875,0.14074074074074075],[-0.023958333333333335,0.15925925925925927],[0.016666666666666666,0.17222222222222222],[0.0625,0.18333333333333332],[0.078125,0.18518518518518517],[0.1125,0.18888888888888888],[0.121875,0.18888888888888888],[0.14375,0.18888888888888888],[0.153125,0.18888888888888888],[0.16041666666666668,0.18888888888888888],[0.16458333333333333,0.18888888888888888],[0.16458333333333333,0.18888888888888888],[0.16458333333333333,0.18888888888888888],[0.16458333333333333,0.18888888888888888],[0.16458333333333333,0.18888888888888888],[0.165625,0.18888888888888888],[0.165625,0.18888888888888888],[0.165625,0.18333333333333332],[0.15208333333333332,0.16111111111111112],[0.13645833333333332,0.1425925925925926],[0.12291666666666666,0.12222222222222222],[0.10416666666666667,0.09444444444444444],[0.08645833333333333,0.06296296296296296],[0.06770833333333333,0.027777777777777776],[0.05,-0.009259259259259259],[0.034375,-0.04259259259259259],[0.020833333333333332,-0.07407407407407407],[-0.0020833333333333333,-0.1259259259259259],[-0.015625,-0.15925925925925927],[-0.020833333333333332,-0.17592592592592593],[-0.03125,-0.20925925925925926],[-0.034375,-0.22407407407407406],[-0.0375,-0.24444444444444444],[-0.0375,-0.25925925925925924],[-0.0375,-0.2722222222222222],[-0.0375,-0.2814814814814815],[-0.036458333333333336,-0.29444444444444445],[-0.03229166666666667,-0.3037037037037037],[-0.030208333333333334,-0.30925925925925923],[-0.030208333333333334,-0.30925925925925923],[-0.029166666666666667,-0.3111111111111111],[-0.029166666666666667,-0.3111111111111111],[-0.026041666666666668,-0.31296296296296294],[-0.025,-0.31666666666666665],[-0.023958333333333335,-0.31666666666666665],[-0.021875,-0.32222222222222224],[-0.016666666666666666,-0.3277777777777778],[-0.013541666666666667,-0.3333333333333333],[-0.00625,-0.3425925925925926],[-0.0020833333333333333,-0.34629629629629627],[0.003125,-0.35],[0.013541666666666667,-0.35185185185185186],[0.017708333333333333,-0.35185185185185186],[0.025,-0.3537037037037037],[0.0375,-0.3537037037037037],[0.04895833333333333,-0.3537037037037037],[0.0625,-0.3537037037037037],[0.078125,-0.3537037037037037],[0.09583333333333334,-0.35],[0.11354166666666667,-0.35],[0.13333333333333333,-0.35],[0.15520833333333334,-0.35],[0.18229166666666666,-0.35],[0.21458333333333332,-0.35],[0.24791666666666667,-0.3592592592592593],[0.2791666666666667,-0.3648148148148148],[0.3260416666666667,-0.37592592592592594],[0.35208333333333336,-0.38333333333333336],[0.375,-0.38333333333333336],[0.3927083333333333,-0.38333333333333336],[0.4083333333333333,-0.38333333333333336],[0.4239583333333333,-0.38333333333333336],[0.4375,-0.38333333333333336],[0.44166666666666665,-0.38333333333333336],[0.45,-0.38333333333333336],[0.453125,-0.3814814814814815],[0.45625,-0.37962962962962965],[0.45729166666666665,-0.37962962962962965],[0.4583333333333333,-0.37592592592592594],[0.4583333333333333,-0.37592592592592594],[0.459375,-0.37592592592592594],[0.459375,-0.37592592592592594],[0.459375,-0.37592592592592594],[0.459375,-0.37592592592592594],[0.46041666666666664,-0.37407407407407406],[0.46041666666666664,-0.37407407407407406],[0.46041666666666664,-0.37407407407407406],[0.46041666666666664,-0.37407407407407406],[0.46041666666666664,-0.37407407407407406],[0.46041666666666664,-0.37407407407407406],[0.46041666666666664,-0.37407407407407406],[0.46041666666666664,-0.37407407407407406],[0.46041666666666664,-0.37407407407407406],[0.46041666666666664,-0.37407407407407406],[0.46041666666666664,-0.37407407407407406],[0.46041666666666664,-0.37407407407407406],[0.46041666666666664,-0.37407407407407406],[0.46041666666666664,-0.37407407407407406],[0.46041666666666664,-0.37407407407407406],[0.46041666666666664,-0.37407407407407406],[0.46041666666666664,-0.37407407407407406],[0.46041666666666664,-0.37407407407407406],[0.46041666666666664,-0.37407407407407406],[0.46041666666666664,-0.37407407407407406],[0.46041666666666664,-0.37407407407407406],[0.46041666666666664,-0.37407407407407406],[0.46041666666666664,-0.37407407407407406],[0.46041666666666664,-0.37407407407407406],[0.46041666666666664,-0.37407407407407406],[0.46041666666666664,-0.37407407407407406],[0.46041666666666664,-0.37407407407407406],[0.46041666666666664,-0.37407407407407406],[0.46041666666666664,-0.37407407407407406],[0.46041666666666664,-0.37407407407407406],[0.46041666666666664,-0.37407407407407406],[0.46041666666666664,-0.37407407407407406],[0.46041666666666664,-0.37407407407407406],[0.46041666666666664,-0.37407407407407406],[0.46041666666666664,-0.37407407407407406],[0.46041666666666664,-0.37407407407407406],[0.46041666666666664,-0.37407407407407406],[0.46041666666666664,-0.37407407407407406],[0.46041666666666664,-0.37407407407407406],[0.46041666666666664,-0.37407407407407406],[0.46041666666666664,-0.37407407407407406],[0.46041666666666664,-0.37407407407407406],[0.46041666666666664,-0.37407407407407406],[0.46041666666666664,-0.37407407407407406],[0.46041666666666664,-0.37407407407407406],[0.46041666666666664,-0.37407407407407406],[0.46041666666666664,-0.37407407407407406],[0.46041666666666664,-0.37407407407407406],[0.46041666666666664,-0.37407407407407406],[0.46041666666666664,-0.37407407407407406],[0.46041666666666664,-0.37407407407407406],[0.46041666666666664,-0.37407407407407406],[0.46041666666666664,-0.37407407407407406],[0.46041666666666664,-0.37407407407407406],[0.46041666666666664,-0.37407407407407406],[0.46041666666666664,-0.37407407407407406],[0.46041666666666664,-0.37407407407407406],[0.46041666666666664,-0.37407407407407406],[0.46041666666666664,-0.37407407407407406],[0.46041666666666664,-0.37407407407407406],[0.46041666666666664,-0.37407407407407406],[0.46041666666666664,-0.37407407407407406],[0.46041666666666664,-0.37407407407407406],[0.46041666666666664,-0.37407407407407406],[0.46041666666666664,-0.37407407407407406],[0.46041666666666664,-0.37407407407407406],[0.46041666666666664,-0.37407407407407406],[0.46041666666666664,-0.37407407407407406],[0.46041666666666664,-0.37407407407407406],[0.46041666666666664,-0.37407407407407406],[0.46041666666666664,-0.37407407407407406],[0.46041666666666664,-0.37407407407407406],[0.46041666666666664,-0.37407407407407406],[0.46041666666666664,-0.37407407407407406],[0.46041666666666664,-0.37407407407407406],[0.46041666666666664,-0.37407407407407406],[0.46041666666666664,-0.37407407407407406],[0.46041666666666664,-0.37407407407407406],[0.46041666666666664,-0.37407407407407406],[0.46041666666666664,-0.37407407407407406],[0.46041666666666664,-0.37407407407407406],[0.46041666666666664,-0.37407407407407406],[0.46041666666666664,-0.37407407407407406],[0.46041666666666664,-0.37407407407407406],[0.46041666666666664,-0.37407407407407406],[0.46041666666666664,-0.37407407407407406],[0.46041666666666664,-0.37407407407407406],[0.46041666666666664,-0.37407407407407406],[0.46041666666666664,-0.37407407407407406],[0.46041666666666664,-0.37407407407407406],[0.46041666666666664,-0.37407407407407406],[0.46041666666666664,-0.37407407407407406],[0.46041666666666664,-0.37407407407407406],[0.46041666666666664,-0.37407407407407406],[0.46041666666666664,-0.37407407407407406],[0.46041666666666664,-0.37407407407407406],[0.46041666666666664,-0.37407407407407406],[0.46041666666666664,-0.37407407407407406],[0.46041666666666664,-0.37407407407407406],[0.46041666666666664,-0.37407407407407406],[0.46041666666666664,-0.37407407407407406],[0.46041666666666664,-0.37407407407407406],[0.46041666666666664,-0.37407407407407406],[0.46041666666666664,-0.37407407407407406],[0.46041666666666664,-0.37407407407407406],[0.46041666666666664,-0.37407407407407406],[0.46041666666666664,-0.37407407407407406],[0.46041666666666664,-0.37407407407407406],[0.46041666666666664,-0.37407407407407406],[0.46041666666666664,-0.37407407407407406],[0.46041666666666664,-0.37407407407407406],[0.46041666666666664,-0.37407407407407406],[0.46041666666666664,-0.37407407407407406],[0.46041666666666664,-0.37037037037037035],[0.46041666666666664,-0.35],[0.46041666666666664,-0.3296296296296296],[0.46041666666666664,-0.30185185185185187],[0.46041666666666664,-0.2740740740740741],[0.46041666666666664,-0.2388888888888889],[0.46041666666666664,-0.20185185185185187],[0.46041666666666664,-0.1685185185185185],[0.46041666666666664,-0.14629629629629629],[0.46041666666666664,-0.13148148148148148],[0.46041666666666664,-0.11851851851851852],[0.46041666666666664,-0.10925925925925926],[0.46041666666666664,-0.1],[0.46041666666666664,-0.08888888888888889],[0.46041666666666664,-0.08333333333333333],[0.46041666666666664,-0.07962962962962963],[0.46041666666666664,-0.07777777777777778],[0.46041666666666664,-0.07777777777777778],[0.46041666666666664,-0.07777777777777778],[0.46041666666666664,-0.07407407407407407],[0.45625,-0.06666666666666667],[0.44895833333333335,-0.06111111111111111],[0.4239583333333333,-0.044444444444444446],[0.38645833333333335,-0.03148148148148148],[0.321875,-0.018518518518518517],[0.19166666666666668,-0.018518518518518517],[0.08958333333333333,-0.024074074074074074],[-0.005208333333333333,-0.05555555555555555],[-0.0875,-0.10740740740740741],[-0.13958333333333334,-0.1574074074074074],[-0.17916666666666667,-0.2111111111111111],[-0.19791666666666666,-0.25925925925925924],[-0.20833333333333334,-0.3111111111111111],[-0.21041666666666667,-0.3537037037037037],[-0.21041666666666667,-0.3851851851851852],[-0.21041666666666667,-0.40925925925925927],[-0.20833333333333334,-0.42407407407407405],[-0.20520833333333333,-0.4351851851851852],[-0.20416666666666666,-0.4388888888888889],[-0.203125,-0.44074074074074077],[-0.19895833333333332,-0.44074074074074077],[-0.190625,-0.44074074074074077],[-0.17916666666666667,-0.44074074074074077],[-0.16145833333333334,-0.42962962962962964],[-0.14270833333333333,-0.4148148148148148],[-0.125,-0.40370370370370373],[-0.103125,-0.3925925925925926],[-0.08541666666666667,-0.387037037037037],[-0.06145833333333333,-0.387037037037037],[-0.051041666666666666,-0.387037037037037],[-0.04791666666666667,-0.387037037037037],[-0.04479166666666667,-0.387037037037037],[-0.04479166666666667,-0.387037037037037],[-0.04375,-0.387037037037037],[-0.042708333333333334,-0.387037037037037],[-0.041666666666666664,-0.387037037037037],[-0.040625,-0.387037037037037],[-0.0375,-0.387037037037037],[-0.026041666666666668,-0.37777777777777777],[-0.019791666666666666,-0.3685185185185185],[-0.008333333333333333,-0.34074074074074073],[0.0125,-0.24074074074074073],[0.025,-0.14629629629629629],[0.030208333333333334,-0.05740740740740741],[0.030208333333333334,0.044444444444444446],[0.030208333333333334,0.12407407407407407],[0.030208333333333334,0.2111111111111111],[0.030208333333333334,0.27037037037037037],[0.030208333333333334,0.31296296296296294],[0.028125,0.3351851851851852],[0.025,0.35185185185185186],[0.025,0.35555555555555557],[0.023958333333333335,0.3592592592592593],[0.022916666666666665,0.3592592592592593],[0.022916666666666665,0.3592592592592593],[0.022916666666666665,0.3592592592592593],[0.022916666666666665,0.3592592592592593],[0.022916666666666665,0.3592592592592593],[0.022916666666666665,0.3592592592592593],[0.022916666666666665,0.3592592592592593],[0.022916666666666665,0.3592592592592593],[0.022916666666666665,0.3592592592592593],[0.022916666666666665,0.3592592592592593],[0.022916666666666665,0.3592592592592593],[0.022916666666666665,0.3592592592592593],[0.022916666666666665,0.3592592592592593],[0.022916666666666665,0.3592592592592593],[0.022916666666666665,0.3611111111111111],[0.022916666666666665,0.3611111111111111],[0.022916666666666665,0.3611111111111111],[0.022916666666666665,0.3611111111111111],[0.021875,0.3611111111111111],[0.021875,0.3611111111111111],[0.021875,0.3611111111111111],[0.021875,0.3611111111111111],[0.021875,0.3611111111111111],[0.021875,0.3611111111111111],[0.021875,0.3611111111111111],[0.021875,0.3611111111111111],[0.021875,0.3611111111111111],[0.021875,0.3611111111111111],[0.021875,0.3611111111111111],[0.021875,0.3611111111111111],[0.021875,0.3611111111111111],[0.021875,0.3611111111111111],[0.021875,0.3611111111111111],[0.021875,0.3611111111111111],[0.021875,0.3611111111111111],[0.021875,0.3611111111111111],[0.021875,0.3611111111111111],[0.021875,0.3611111111111111],[0.021875,0.3611111111111111],[0.021875,0.3611111111111111],[0.021875,0.3611111111111111],[0.021875,0.3611111111111111],[0.021875,0.3611111111111111],[0.021875,0.3611111111111111],[0.021875,0.3611111111111111],[0.021875,0.3611111111111111],[0.021875,0.3611111111111111],[0.021875,0.3611111111111111],[0.021875,0.3611111111111111],[0.021875,0.3611111111111111],[0.021875,0.3611111111111111],[0.021875,0.3611111111111111],[0.021875,0.3611111111111111],[0.021875,0.3611111111111111],[0.021875,0.3611111111111111],[0.021875,0.3611111111111111],[0.021875,0.3611111111111111],[0.021875,0.3611111111111111],[0.021875,0.3611111111111111],[0.021875,0.3611111111111111],[0.021875,0.3611111111111111],[0.020833333333333332,0.3611111111111111],[0.01875,0.3611111111111111],[0.016666666666666666,0.362962962962963],[0.016666666666666666,0.3648148148148148],[0.014583333333333334,0.3685185185185185]]","[[0.0834374999999999,0.026111111111111154],[0.0834374999999999,0.026111111111111154],[0.058958333333333356,0.011481481481481566],[0.058958333333333356,0.011481481481481566],[0.05489583333333338,0.020555555555555598],[0.05489583333333338,0.020555555555555598],[0.08020833333333334,0.018888888888888972],[0.08958333333333333,0.026851851851851852],[0.07583333333333328,0.02907407407407416],[0.058437500000000024,0.01185185185185181],[0.06979166666666667,0.06870370370370374],[0.05593750000000005,0.08574074074074066],[0.05593750000000005,0.08574074074074066],[0.058333333333333334,0.05592592592592601],[0.058333333333333334,0.05592592592592601],[0.09072916666666657,0.019444444444444445],[0.13114583333333343,0.055740740740740785],[0.13947916666666677,0.06425925925925935],[0.13947916666666677,0.06425925925925935],[0.1388541666666666,0.07814814814814823],[0.09874999999999995,0.03981481481481482],[0.06812500000000009,0.02166666666666675],[0.06812500000000009,0.02166666666666675],[0.05635416666666669,0.05462962962962963],[0.03177083333333333,0.046296296296296294],[0.03864583333333336,0.06314814814814819],[0.03864583333333336,0.06314814814814819],[0.041979166666666616,0.04814814814814815],[0.041979166666666616,0.04814814814814815],[0.022500000000000023,0.07314814814814814],[0.022500000000000023,0.07314814814814814],[-0.03114583333333331,0.023148148148148147],[-0.04697916666666669,0.012592592592592508],[-0.05291666666666662,0.005185185185185101],[-0.021979166666666692,0.03296296296296288],[-0.021979166666666692,0.03296296296296288],[0.020729166666666642,0.022222222222222223],[0.020624999999999952,0.017407407407407365],[0.020624999999999952,0.017407407407407365],[0.041770833333333354,-0.06425925925925924],[0.06385416666666661,-0.11092592592592589],[0.06385416666666661,-0.1307407407407408],[0.06385416666666661,-0.1307407407407408],[0.0671875,-0.17740740740740743],[0.0671875,-0.17740740740740743],[0.12572916666666673,-0.18759259259259262],[0.12572916666666673,-0.18759259259259262],[0.10635416666666657,-0.2485185185185185],[0.07249999999999991,-0.29666666666666663],[0.05020833333333338,-0.30944444444444447],[0.041562499999999974,-0.36203703703703705],[0.01229166666666662,-0.4485185185185185],[0.01229166666666662,-0.4485185185185185],[0.0037500000000000237,-0.41277777777777774],[-0.011249999999999953,-0.4287037037037037],[0.013125000000000024,-0.4542592592592593],[-0.022916666666666665,-0.4372222222222223],[-0.08614583333333338,-0.42370370370370375],[-0.06947916666666672,-0.4088888888888889],[-0.08718750000000004,-0.38203703703703706],[-0.05166666666666669,-0.39351851851851855],[-0.041562499999999974,-0.3266666666666666],[-0.016250000000000025,-0.27925925925925926],[-0.016250000000000025,-0.27925925925925926],[-0.05166666666666669,-0.2603703703703704],[-0.057291666666666664,-0.255],[-0.09458333333333328,-0.2103703703703704],[-0.09458333333333328,-0.2103703703703704],[-0.06124999999999995,-0.20722222222222217],[0.00614583333333331,-0.2535185185185185],[0.033749999999999974,-0.2898148148148148],[0.033749999999999974,-0.2898148148148148],[0.10645833333333338,-0.29962962962962963],[0.09249999999999996,-0.24722222222222223],[0.07677083333333339,-0.20851851851851855],[0.07677083333333339,-0.20851851851851855],[0.07822916666666657,-0.22166666666666665],[0.09989583333333343,-0.2485185185185185],[0.09041666666666662,-0.24537037037037038],[0.08250000000000005,-0.2690740740740741],[0.035520833333333356,-0.2662962962962963],[-0.04552083333333338,-0.2140740740740741],[-0.15656249999999997,-0.13129629629629624],[-0.15656249999999997,-0.13129629629629624],[-0.21135416666666665,-0.11833333333333329],[-0.24624999999999997,-0.18703703703703703],[-0.2633333333333333,-0.2190740740740741],[-0.2642708333333334,-0.19907407407407407],[-0.256875,-0.13388888888888892],[-0.28552083333333333,-0.10129629629629627],[-0.3142708333333334,-0.018148148148148063],[-0.3039583333333333,0.03851851851851843],[-0.2916666666666667,0.09407407407407399],[-0.2341666666666666,0.08444444444444449],[-0.234375,0.09870370370370361],[-0.20093749999999996,0.12462962962962955],[-0.16447916666666665,0.12129629629629629],[-0.22666666666666668,0.21574074074074073],[-0.22083333333333333,0.1742592592592593],[-0.17458333333333337,0.17851851851851847],[-0.17458333333333337,0.17851851851851847],[-0.15125000000000005,0.1411111111111112],[-0.1273958333333333,0.059999999999999956],[-0.10437500000000005,-0.010185185185185186],[-0.10437500000000005,-0.010185185185185186],[-0.05437500000000005,-0.03629629629629634],[-0.03427083333333331,-0.06962962962962967],[-0.03427083333333331,-0.06962962962962967],[-0.0203125,-0.07148148148148152],[-0.03843749999999998,-0.08037037037037033],[0.019270833333333334,-0.19370370370370374],[0.022187499999999954,-0.18259259259259264],[0.0421875,-0.15462962962962962],[0.11041666666666666,-0.15055555555555558],[0.11041666666666666,-0.15055555555555558],[0.1462500000000001,-0.11222222222222226],[0.1462500000000001,-0.11222222222222226],[0.17635416666666662,-0.03814814814814819],[0.17635416666666662,-0.03814814814814819],[0.11843750000000004,-0.012962962962962963],[0.11843750000000004,-0.012962962962962963],[0.12645833333333342,0.009629629629629714],[0.14031250000000003,0.03333333333333333],[0.14343750000000005,0.047037037037036995],[0.14343750000000005,0.047037037037036995],[0.17312500000000006,0.06425925925925935],[0.1616666666666667,0.08666666666666659],[0.1375,0.06870370370370374],[0.1375,0.06870370370370374],[0.07958333333333342,0.07703703703703708],[0.07958333333333342,0.07703703703703708],[0.05635416666666669,0.069074074074074],[0.02385416666666664,0.041666666666666664],[0.02385416666666664,0.041666666666666664],[0.04614583333333329,0.07037037037037037],[0.017708333333333333,0.07666666666666662],[0.003958333333333286,0.10703703703703696],[0.003958333333333286,0.10703703703703696],[-0.007395833333333357,0.15185185185185185],[-0.007395833333333357,0.15185185185185185],[-0.04010416666666667,0.20018518518518522],[-0.04010416666666667,0.20018518518518522],[-0.03604166666666669,0.20037037037037045],[-0.057187499999999974,0.19962962962962955],[-0.057187499999999974,0.19962962962962955],[-0.06312500000000003,0.2140740740740741],[-0.05020833333333338,0.26481481481481484],[-0.03781249999999995,0.287962962962963],[-0.03781249999999995,0.287962962962963],[-0.018229166666666668,0.2898148148148148],[0.011249999999999953,0.33481481481481473],[0.04645833333333336,0.327962962962963],[0.10302083333333342,0.33000000000000007],[0.10302083333333342,0.33000000000000007],[0.1570833333333333,0.3333333333333333],[0.14406249999999995,0.28962962962962957],[0.15187499999999995,0.2594444444444445],[0.11822916666666666,0.19907407407407407],[0.11822916666666666,0.19907407407407407],[0.14427083333333332,0.17925925925925917],[0.1476041666666667,0.1411111111111112],[0.1476041666666667,0.1411111111111112],[0.18520833333333328,0.127962962962963],[0.19260416666666677,0.09370370370370375],[0.18166666666666675,0.10092592592592593],[0.18166666666666675,0.10092592592592593],[0.14541666666666658,0.11055555555555564],[0.09885416666666676,0.11203703703703703],[0.13770833333333338,0.17462962962962955],[0.2040625000000001,0.23444444444444448],[0.2040625000000001,0.23444444444444448],[0.2890625,0.30166666666666664],[0.3155208333333334,0.2818518518518519],[0.3155208333333334,0.2818518518518519],[0.4039583333333333,0.2881481481481482],[0.3841666666666666,0.2490740740740741],[0.3993750000000001,0.22018518518518515],[0.42999999999999994,0.18925925925925935],[0.42999999999999994,0.18925925925925935],[0.496875,0.1905555555555555],[0.5903125,0.19000000000000003],[0.6040625000000001,0.13722222222222227],[0.6052083333333333,0.11962962962962967],[0.6139583333333334,0.10962962962962972],[0.6018749999999999,0.1287037037037037],[0.5523958333333333,0.1316666666666667],[0.566875,0.15148148148148138],[0.5770833333333333,0.17074074074074083],[0.5912499999999999,0.175],[0.5912499999999999,0.175],[0.6104166666666667,0.12981481481481486],[0.5833333333333334,0.10240740740740732],[0.6116666666666667,0.11703703703703712],[0.6501041666666666,0.09277777777777782],[0.6501041666666666,0.09277777777777782],[0.6765625,0.06111111111111111],[0.6825,0.03796296296296296],[0.7474999999999999,0.03537037037037041],[0.8005208333333333,0.0418518518518519],[0.8111458333333333,0.026481481481481398],[0.7875,0],[0.7608333333333335,-0.016111111111111194],[0.7608333333333335,-0.016111111111111194],[0.7616666666666667,-0.041111111111111195],[0.7734375,-0.060555555555555536],[0.7734375,-0.060555555555555536],[0.7988541666666668,-0.05796296296296299],[0.7773958333333333,-0.05648148148148148],[0.7799999999999999,-0.0764814814814815],[0.7799999999999999,-0.0764814814814815],[0.7652083333333333,-0.09981481481481477],[0.7652083333333333,-0.09981481481481477],[0.7478125000000001,-0.12851851851851848],[0.7770833333333333,-0.13481481481481483],[0.7770833333333333,-0.13481481481481483],[0.7936458333333334,-0.13240740740740742],[0.7641666666666665,-0.14092592592592595],[0.7328125,-0.14481481481481479],[0.6898958333333333,-0.15537037037037033],[0.6221875,-0.15907407407407403],[0.6111458333333334,-0.16277777777777774],[0.6131249999999999,-0.10777777777777775],[0.5617708333333333,-0.08277777777777776],[0.49885416666666677,-0.08444444444444449],[0.41281249999999997,-0.0868518518518518],[0.41281249999999997,-0.0868518518518518],[0.35989583333333336,-0.10129629629629627],[0.3476041666666667,-0.08296296296296299],[0.37489583333333343,-0.05388888888888893],[0.4078125,0.008888888888888804],[0.38697916666666665,-0.001851851851851852],[0.36833333333333323,-0.004074074074074159],[0.34697916666666656,-0.026111111111111154],[0.3497916666666666,-0.02555555555555547],[0.3554166666666667,0.001851851851851852],[0.3931250000000001,0.003888888888888931],[0.4018749999999999,0.03314814814814811],[0.403125,0.044999999999999915],[0.34562499999999996,0.050370370370370454],[0.28312499999999996,0.023148148148148147],[0.25968749999999996,0.0507407407407407],[0.23854166666666668,0.0801851851851851],[0.2046875,0.08629629629629634],[0.2046875,0.08629629629629634],[0.14895833333333333,0.11592592592592597],[0.11937499999999991,0.16111111111111112],[0.08083333333333324,0.2324074074074074],[0.05697916666666671,0.22462962962962954],[0.036562500000000026,0.21777777777777782],[0.03875000000000005,0.20092592592592592],[0.04052083333333331,0.20314814814814824],[0.04052083333333331,0.20314814814814824],[0.04364583333333331,0.18907407407407412],[0.05510416666666664,0.1816666666666667],[0.05645833333333338,0.1794444444444444],[0.05645833333333338,0.1794444444444444],[0.0796875,0.1537037037037037],[0.058749999999999976,0.12148148148148152],[0.08333333333333333,0.08518518518518518],[0.08333333333333333,0.08518518518518518],[0.09833333333333343,0.11018518518518519],[0.10739583333333323,0.1037037037037037],[0.12614583333333323,0.09907407407407408],[0.12614583333333323,0.09907407407407408],[0.1453125,0.07537037037037045],[0.15,0.08277777777777787],[0.15625,0.06500000000000004],[0.1609375,0.07259259259259268],[0.171875,0.08481481481481473],[0.21989583333333323,0.04740740740740745],[0.22239583333333332,0.014074074074074116],[0.22239583333333332,0.014074074074074116],[0.23864583333333325,-0.04129629629629621],[0.25656249999999997,-0.05259259259259255],[0.26593749999999994,-0.07037037037037037],[0.27531249999999996,-0.08814814814814818],[0.27531249999999996,-0.16203703703703703],[0.2631249999999999,-0.2192592592592592],[0.2727083333333333,-0.2831481481481481],[0.2760416666666667,-0.3516666666666666],[0.2881249999999999,-0.33055555555555555],[0.28187499999999993,-0.3479629629629629],[0.2542708333333332,-0.2846296296296296],[0.2542708333333332,-0.2846296296296296],[0.253125,-0.25555555555555554],[0.253125,-0.25555555555555554],[0.25322916666666656,-0.24351851851851852],[0.25322916666666656,-0.24351851851851852],[0.25812499999999994,-0.19425925925925921],[0.23041666666666671,-0.08611111111111111],[0.20979166666666677,0.019999999999999917],[0.15947916666666656,0.11944444444444445],[0.11760416666666676,0.21796296296296305],[0.11541666666666663,0.2492592592592593],[0.13156249999999994,0.319074074074074],[0.14729166666666677,0.32111111111111107],[0.14729166666666677,0.32111111111111107],[0.1586458333333333,0.32111111111111107],[0.10395833333333329,0.36666666666666664],[0.10135416666666662,0.37222222222222223],[0.10135416666666662,0.37222222222222223],[0.10177083333333338,0.35648148148148145],[0.1319791666666667,0.3487037037037036],[0.17864583333333334,0.327962962962963],[0.17864583333333334,0.327962962962963],[0.22447916666666667,0.29148148148148145],[0.22708333333333333,0.26722222222222214],[0.2296875,0.24296296296296305],[0.22843749999999996,0.256111111111111],[0.17625000000000005,0.24759259259259267],[0.19114583333333332,0.2161111111111112],[0.15875000000000009,0.1896296296296296],[0.15875000000000009,0.1896296296296296],[0.18166666666666675,0.16666666666666666],[0.07645833333333343,0.11629629629629622],[0.022083333333333382,0.05814814814814811],[0.022083333333333382,0.05814814814814811],[-0.05947916666666669,0.03370370370370379],[-0.15135416666666662,0.01777777777777782],[-0.2453125,0.02629629629629638],[-0.28937499999999994,0.025370370370370456],[-0.30375,0.06888888888888897],[-0.336875,0.10259259259259255],[-0.336875,0.10259259259259255],[-0.3602083333333333,0.14444444444444443],[-0.3857291666666666,0.1874074074074075],[-0.34427083333333336,0.2294444444444444],[-0.32833333333333337,0.29222222222222216],[-0.32833333333333337,0.29222222222222216],[-0.284375,0.3566666666666667],[-0.2860416666666667,0.3874074074074075],[-0.21614583333333334,0.4359259259259259],[-0.18083333333333335,0.4594444444444445],[-0.18083333333333335,0.4594444444444445],[-0.17739583333333328,0.42888888888888893],[-0.17739583333333328,0.42888888888888893],[-0.13770833333333338,0.4455555555555556],[-0.13770833333333338,0.4455555555555556],[-0.10677083333333333,0.4222222222222222],[-0.07374999999999995,0.444074074074074],[-0.05656249999999995,0.4725925925925927],[-0.05656249999999995,0.4725925925925927],[-0.024583333333333356,0.4842592592592593],[-0.005416666666666714,0.47925925925925916],[-0.005416666666666714,0.47925925925925916],[0.050625000000000024,0.4787037037037037],[0.050625000000000024,0.4787037037037037],[0.027708333333333356,0.42407407407407405],[0.033749999999999974,0.35611111111111104],[0.033749999999999974,0.35611111111111104],[0.06041666666666667,0.3272222222222223],[0.07333333333333343,0.2718518518518518],[0.04895833333333333,0.2037037037037037],[0.04895833333333333,0.2037037037037037],[0.036249999999999956,0.1037037037037037],[0.06364583333333336,0.019444444444444445],[0.06031249999999998,-0.03796296296296296],[0.09593749999999991,-0.08777777777777773],[0.09593749999999991,-0.08777777777777773],[0.14354166666666662,-0.10666666666666672],[0.17218749999999997,-0.11703703703703702],[0.18520833333333328,-0.15333333333333335],[0.2099999999999999,-0.17629629629629628],[0.1955208333333334,-0.22666666666666663],[0.2109375,-0.24055555555555552],[0.21218750000000006,-0.2581481481481481],[0.21343750000000009,-0.2757407407407407],[0.19854166666666656,-0.29203703703703704],[0.1490624999999999,-0.31796296296296295],[0.09958333333333323,-0.34388888888888886],[0.09958333333333323,-0.34388888888888886],[0.07260416666666672,-0.395],[0.020833333333333332,-0.3642592592592592],[0.007187499999999976,-0.3344444444444445],[0.00791666666666669,-0.2916666666666667],[-0.02177083333333331,-0.21074074074074076],[-0.0021875000000000236,-0.16314814814814818],[0.008958333333333356,-0.13203703703703706],[0.02687499999999995,-0.12518518518518523],[-0.0067708333333333336,-0.11833333333333329],[-0.05,-0.10999999999999996],[-0.07520833333333338,-0.07759259259259255],[-0.07520833333333338,-0.07759259259259255],[-0.0889583333333333,-0.08777777777777773],[-0.12218749999999995,-0.056666666666666705],[-0.11541666666666663,-0.08370370370370368],[-0.08145833333333338,-0.14296296296296293],[-0.10281250000000004,-0.11037037037037041],[-0.1295833333333333,-0.09814814814814815],[-0.1297916666666667,-0.062037037037037036],[-0.09656250000000005,0.000925925925925926],[-0.051250000000000046,-0.013518518518518435],[-0.018020833333333285,-0.0235185185185186],[0.013333333333333286,-0.03166666666666671],[0.022395833333333334,-0.09277777777777782],[0,-0.09074074074074075],[-0.003541666666666643,-0.07388888888888885],[-0.029375000000000047,-0.13444444444444448],[-0.029375000000000047,-0.13444444444444448],[-0.01864583333333331,-0.14370370370370375],[-0.044062499999999956,-0.24296296296296294],[-0.03791666666666664,-0.35481481481481486],[-0.04364583333333331,-0.39814814814814814],[-0.03770833333333338,-0.42314814814814816],[-0.018229166666666668,-0.4457407407407407],[-0.018229166666666668,-0.4457407407407407],[-0.012812499999999952,-0.47129629629629627],[-0.0036458333333333334,-0.47833333333333333],[-0.013645833333333357,-0.5005555555555555],[0.008020833333333382,-0.5181481481481481],[0.012083333333333357,-0.5392592592592592],[-0.0014583333333333095,-0.5009259259259259],[-0.019791666666666666,-0.4922222222222222],[-0.020937500000000022,-0.46518518518518515],[-0.0296875,-0.46037037037037043],[-0.049583333333333354,-0.47000000000000003],[-0.04635416666666667,-0.46592592592592597],[-0.04635416666666667,-0.46592592592592597],[-0.044062499999999956,-0.465],[-0.030312500000000023,-0.459074074074074],[-0.04624999999999998,-0.44592592592592595]]","[[0.0834374999999999,0.026111111111111154,0.0001999999880837322],[0.0834374999999999,0.026111111111111154,0.040100000023841176],[0.058958333333333356,0.011481481481481566,0.05250000000000199],[0.058958333333333356,0.011481481481481566,0.07130000001192371],[0.05489583333333338,0.020555555555555598,0.08769999998808231],[0.05489583333333338,0.020555555555555598,0.0958000000119199],[0.08020833333333334,0.018888888888888972,0.11010000002384146],[0.08958333333333333,0.026851851851851852,0.12690000003576074],[0.07583333333333328,0.02907407407407416,0.14569999998808214],[0.058437500000000024,0.01185185185185181,0.16049999999999898],[0.06979166666666667,0.06870370370370374,0.178199999988081],[0.05593750000000005,0.08574074074074066,0.19930000001192383],[0.05593750000000005,0.08574074074074066,0.21019999998807748],[0.058333333333333334,0.05592592592592601,0.22680000001192013],[0.058333333333333334,0.05592592592592601,0.24360000002384652],[0.09072916666666657,0.019444444444444445,0.2623000000119191],[0.13114583333333343,0.055740740740740785,0.2779999999999987],[0.13947916666666677,0.06425925925925935,0.29400000000000404],[0.13947916666666677,0.06425925925925935,0.3101999999880789],[0.1388541666666666,0.07814814814814823,0.3290000000000006],[0.09874999999999995,0.03981481481481482,0.3446000000238456],[0.06812500000000009,0.02166666666666675,0.3604000000357672],[0.06812500000000009,0.02166666666666675,0.37940000003576557],[0.05635416666666669,0.05462962962962963,0.3936999999880797],[0.03177083333333333,0.046296296296296294,0.41030000001192235],[0.03864583333333336,0.06314814814814819,0.4291000000238441],[0.03864583333333336,0.06314814814814819,0.44369999998808396],[0.041979166666666616,0.04814814814814815,0.4603000000119195],[0.041979166666666616,0.04814814814814815,0.4795000000000016],[0.022500000000000023,0.07314814814814814,0.4936999999880811],[0.022500000000000023,0.07314814814814814,0.5103000000119238],[-0.03114583333333331,0.023148148148148147,0.5288000000119197],[-0.04697916666666669,0.012592592592592508,0.544699999988083],[-0.05291666666666662,0.005185185185185101,0.5606000000238467],[-0.021979166666666692,0.03296296296296288,0.5799000000357637],[-0.021979166666666692,0.03296296296296288,0.5936000000238408],[0.020729166666666642,0.022222222222222223,0.6103000000119252],[0.020624999999999952,0.017407407407407365,0.6311000000238423],[0.020624999999999952,0.017407407407407365,0.6439000000357638],[0.041770833333333354,-0.06425925925925924,0.660499999999999],[0.06385416666666661,-0.11092592592592589,0.6769999999999996],[0.06385416666666661,-0.1307407407407408,0.695199999988084],[0.06385416666666661,-0.1307407407407408,0.7103000000119195],[0.0671875,-0.17740740740740743,0.7269000000357622],[0.0671875,-0.17740740740740743,0.7436000000238465],[0.12572916666666673,-0.18759259259259262,0.7633000000119239],[0.12572916666666673,-0.18759259259259262,0.777100000023843],[0.10635416666666657,-0.2485185185185185,0.7936999999880783],[0.07249999999999991,-0.29666666666666663,0.8103000000119209],[0.05020833333333338,-0.30944444444444447,0.8290000000000006],[0.041562499999999974,-0.36203703703703705,0.8456999999880779],[0.01229166666666662,-0.4485185185185185,0.8603000000119252],[0.01229166666666662,-0.4485185185185185,0.8791000000238398],[0.0037500000000000237,-0.41277777777777774,0.8936000000238451],[-0.011249999999999953,-0.4287037037037037,0.9103000000119224],[0.013125000000000024,-0.4542592592592593,0.9289000000357674],[-0.022916666666666665,-0.4372222222222223,0.9451000000238423],[-0.08614583333333338,-0.42370370370370375,0.9603000000119195],[-0.06947916666666672,-0.4088888888888889,0.9804999999999993],[-0.08718750000000004,-0.38203703703703706,0.9948000000119208],[-0.05166666666666669,-0.39351851851851855,1.0105000000000004],[-0.041562499999999974,-0.3266666666666666,1.027000000000001],[-0.016250000000000025,-0.27925925925925926,1.0466999999880784],[-0.016250000000000025,-0.27925925925925926,1.060199999988079],[-0.05166666666666669,-0.2603703703703704,1.0771000000238402],[-0.057291666666666664,-0.255,1.0956000000238433],[-0.09458333333333328,-0.2103703703703704,1.1113000000119229],[-0.09458333333333328,-0.2103703703703704,1.1269000000357607],[-0.06124999999999995,-0.20722222222222217,1.1466000000238452],[0.00614583333333331,-0.2535185185185185,1.1616999999880804],[0.033749999999999974,-0.2898148148148148,1.1796000000238465],[0.033749999999999974,-0.2898148148148148,1.1936000000238423],[0.10645833333333338,-0.29962962962962963,1.212400000035764],[0.09249999999999996,-0.24722222222222223,1.2270000000000039],[0.07677083333333339,-0.20851851851851855,1.2436000000238465],[0.07677083333333339,-0.20851851851851855,1.2603000000119238],[0.07822916666666657,-0.22166666666666665,1.2798000000119245],[0.09989583333333343,-0.2485185185185185,1.2936000000238437],[0.09041666666666662,-0.24537037037037038,1.310300000011921],[0.08250000000000005,-0.2690740740740741,1.3314000000357638],[0.035520833333333356,-0.2662962962962963,1.3448000000119222],[-0.04552083333333338,-0.2140740740740741,1.3603000000119252],[-0.15656249999999997,-0.13129629629629624,1.3780000000000001],[-0.15656249999999997,-0.13129629629629624,1.3969000000357639],[-0.21135416666666665,-0.11833333333333329,1.4103000000119224],[-0.24624999999999997,-0.18703703703703703,1.426900000035765],[-0.2633333333333333,-0.2190740740740741,1.4455000000000027],[-0.2642708333333334,-0.19907407407407407,1.4609999999999985],[-0.256875,-0.13388888888888892,1.479400000035767],[-0.28552083333333333,-0.10129629629629627,1.4958000000119256],[-0.3142708333333334,-0.018148148148148063,1.511499999999998],[-0.3039583333333333,0.03851851851851843,1.5271999999880776],[-0.2916666666666667,0.09407407407407399,1.5461000000238414],[-0.2341666666666666,0.08444444444444449,1.5606999999880813],[-0.234375,0.09870370370370361,1.5775000000000006],[-0.20093749999999996,0.12462962962962955,1.5984000000357668],[-0.16447916666666665,0.12129629629629629,1.6126000000238463],[-0.22666666666666668,0.21574074074074073,1.6281000000238421],[-0.22083333333333333,0.1742592592592593,1.6434000000357614],[-0.17458333333333337,0.17851851851851847,1.6615000000000038],[-0.17458333333333337,0.17851851851851847,1.6804000000357675],[-0.15125000000000005,0.1411111111111112,1.6936000000238423],[-0.1273958333333333,0.059999999999999956,1.7104000000357615],[-0.10437500000000005,-0.010185185185185186,1.7325000000000017],[-0.10437500000000005,-0.010185185185185186,1.7436000000238465],[-0.05437500000000005,-0.03629629629629634,1.7604000000357658],[-0.03427083333333331,-0.06962962962962967,1.7850000000000037],[-0.03427083333333331,-0.06962962962962967,1.7944999999999993],[-0.0203125,-0.07148148148148152,1.810300000011921],[-0.03843749999999998,-0.08037037037037033,1.8269000000357636],[0.019270833333333334,-0.19370370370370374,1.8468000000119247],[0.022187499999999954,-0.18259259259259264,1.8629999999999995],[0.0421875,-0.15462962962962962,1.881400000035761],[0.11041666666666666,-0.15055555555555558,1.9009000000357616],[0.11041666666666666,-0.15055555555555558,1.9101999999880803],[0.1462500000000001,-0.11222222222222226,1.9271999999880833],[0.1462500000000001,-0.11222222222222226,1.9436000000238423],[0.17635416666666662,-0.03814814814814819,1.965300000011922],[0.17635416666666662,-0.03814814814814819,1.9769000000357622],[0.11843750000000004,-0.012962962962962963,1.9936000000238465],[0.11843750000000004,-0.012962962962962963,2.0101999999880817],[0.12645833333333342,0.009629629629629714,2.0314000000357666],[0.14031250000000003,0.03333333333333333,2.048100000023844],[0.14343750000000005,0.047037037037036995,2.064900000035763],[0.14343750000000005,0.047037037037036995,2.0768000000119216],[0.17312500000000006,0.06425925925925935,2.097400000035762],[0.1616666666666667,0.08666666666666659,2.1138000000119206],[0.1375,0.06870370370370374,2.129900000035761],[0.1375,0.06870370370370374,2.143600000023845],[0.07958333333333342,0.07703703703703708,2.164600000023846],[0.07958333333333342,0.07703703703703708,2.1769999999999996],[0.05635416666666669,0.069074074074074,2.1936000000238423],[0.02385416666666664,0.041666666666666664,2.2158000000119245],[0.02385416666666664,0.041666666666666664,2.226900000035762],[0.04614583333333329,0.07037037037037037,2.243699999988081],[0.017708333333333333,0.07666666666666662,2.2603000000119238],[0.003958333333333286,0.10703703703703696,2.2826999999880826],[0.003958333333333286,0.10703703703703696,2.2936000000238437],[-0.007395833333333357,0.15185185185185185,2.310300000011921],[-0.007395833333333357,0.15185185185185185,2.3269000000357636],[-0.04010416666666667,0.20018518518518522,2.3493000000119224],[-0.04010416666666667,0.20018518518518522,2.360300000011925],[-0.03604166666666669,0.20037037037037045,2.3771000000238445],[-0.057187499999999974,0.19962962962962955,2.398300000011922],[-0.057187499999999974,0.19962962962962955,2.4104000000357644],[-0.06312500000000003,0.2140740740740741,2.426900000035765],[-0.05020833333333338,0.26481481481481484,2.4436000000238423],[-0.03781249999999995,0.287962962962963,2.463900000035764],[-0.03781249999999995,0.287962962962963,2.476900000035762],[-0.018229166666666668,0.2898148148148148,2.4936000000238465],[0.011249999999999953,0.33481481481481473,2.5136000000238425],[0.04645833333333336,0.327962962962963,2.5306000000238456],[0.10302083333333342,0.33000000000000007,2.548100000023844],[0.10302083333333342,0.33000000000000007,2.560300000011921],[0.1570833333333333,0.3333333333333333,2.581100000023845],[0.14406249999999995,0.28962962962962957,2.5979000000357644],[0.15187499999999995,0.2594444444444445,2.614199999988081],[0.11822916666666666,0.19907407407407407,2.63360000002384],[0.11822916666666666,0.19907407407407407,2.643600000023845],[0.14427083333333332,0.17925925925925917,2.6604000000357644],[0.1476041666666667,0.1411111111111112,2.6773000000119254],[0.1476041666666667,0.1411111111111112,2.6973000000119214],[0.18520833333333328,0.127962962962963,2.7103000000119195],[0.19260416666666677,0.09370370370370375,2.7274000000357645],[0.18166666666666675,0.10092592592592593,2.7466999999880812],[0.18166666666666675,0.10092592592592593,2.766199999988082],[0.14541666666666658,0.11055555555555564,2.7768000000119244],[0.09885416666666676,0.11203703703703703,2.7944000000357647],[0.13770833333333338,0.17462962962962955,2.8108000000119233],[0.2040625000000001,0.23444444444444448,2.8339000000357615],[0.2040625000000001,0.23444444444444448,2.843400000035764],[0.2890625,0.30166666666666664,2.8601000000238486],[0.3155208333333334,0.2818518518518519,2.8778000000119164],[0.3155208333333334,0.2818518518518519,2.8934000000357685],[0.4039583333333333,0.2881481481481482,2.9101000000238457],[0.3841666666666666,0.2490740740740741,2.926699999988074],[0.3993750000000001,0.22018518518518515,2.9441000000238375],[0.42999999999999994,0.18925925925925935,2.966100000023843],[0.42999999999999994,0.18925925925925935,2.97680000001192],[0.496875,0.1905555555555555,2.9934999999999974],[0.5903125,0.19000000000000003,3.0103000000119238],[0.6040625000000001,0.13722222222222227,3.02710000002385],[0.6052083333333333,0.11962962962962967,3.0444000000357647],[0.6139583333333334,0.10962962962962972,3.060100000023837],[0.6018749999999999,0.1287037037037037,3.0768000000119287],[0.5523958333333333,0.1316666666666667,3.0941000000238432],[0.566875,0.15148148148148138,3.113600000023837],[0.5770833333333333,0.17074074074074083,3.1291999999880744],[0.5912499999999999,0.175,3.147199999988075],[0.5912499999999999,0.175,3.1601000000238457],[0.6104166666666667,0.12981481481481486,3.176900000035758],[0.5833333333333334,0.10240740740740732,3.1958000000119284],[0.6116666666666667,0.11703703703703712,3.2141999999880824],[0.6501041666666666,0.09277777777777782,3.2333000000119227],[0.6501041666666666,0.09277777777777782,3.2434999999999974],[0.6765625,0.06111111111111111,3.2601999999880746],[0.6825,0.03796296296296296,3.2786999999880777],[0.7474999999999999,0.03537037037037041,3.297100000023846],[0.8005208333333333,0.0418518518518519,3.3144999999999953],[0.8111458333333333,0.026481481481481398,3.3299999999999983],[0.7875,0,3.3448000000119293],[0.7608333333333335,-0.016111111111111194,3.363500000000002],[0.7608333333333335,-0.016111111111111194,3.376800000011926],[0.7616666666666667,-0.041111111111111195,3.3934000000357685],[0.7734375,-0.060555555555555536,3.411199999988085],[0.7734375,-0.060555555555555536,3.426800000011923],[0.7988541666666668,-0.05796296296296299,3.4435000000000002],[0.7773958333333333,-0.05648148148148148,3.460100000023843],[0.7799999999999999,-0.0764814814814815,3.4789000000357646],[0.7799999999999999,-0.0764814814814815,3.500800000011921],[0.7652083333333333,-0.09981481481481477,3.516400000035759],[0.7652083333333333,-0.09981481481481477,3.5266999999880824],[0.7478125000000001,-0.12851851851851848,3.5434999999999945],[0.7770833333333333,-0.13481481481481483,3.560100000023837],[0.7770833333333333,-0.13481481481481483,3.5768000000119287],[0.7936458333333334,-0.13240740740740742,3.5934000000357713],[0.7641666666666665,-0.14092592592592595,3.610199999988083],[0.7328125,-0.14481481481481479,3.6266999999880767],[0.6898958333333333,-0.15537037037037033,3.647199999988075],[0.6221875,-0.15907407407407403,3.6610000000000014],[0.6111458333333334,-0.16277777777777774,3.676699999988074],[0.6131249999999999,-0.10777777777777775,3.6935000000000002],[0.5617708333333333,-0.08277777777777776,3.71460000002385],[0.49885416666666677,-0.08444444444444449,3.727800000011925],[0.41281249999999997,-0.0868518518518518,3.7434999999999974],[0.41281249999999997,-0.0868518518518518,3.76010000002384],[0.35989583333333336,-0.10129629629629627,3.7769000000357664],[0.3476041666666667,-0.08296296296296299,3.796600000023844],[0.37489583333333343,-0.05388888888888893,3.810100000023837],[0.4078125,0.008888888888888804,3.8269000000357636],[0.38697916666666665,-0.001851851851851852,3.8434000000357713],[0.36833333333333323,-0.004074074074074159,3.8599999999999994],[0.34697916666666656,-0.026111111111111154,3.876800000011926],[0.3497916666666666,-0.02555555555555547,3.893500000000003],[0.3554166666666667,0.001851851851851852,3.9101999999880803],[0.3931250000000001,0.003888888888888931,3.926800000011923],[0.4018749999999999,0.03314814814814811,3.9434000000357656],[0.403125,0.044999999999999915,3.960100000023843],[0.34562499999999996,0.050370370370370454,3.9771999999880876],[0.28312499999999996,0.023148148148148147,3.9934999999999974],[0.25968749999999996,0.0507407407407407,4.01010000002384],[0.23854166666666668,0.0801851851851851,4.026800000011917],[0.2046875,0.08629629629629634,4.0434999999999945],[0.2046875,0.08629629629629634,4.060100000023837],[0.14895833333333333,0.11592592592592597,4.0766999999880795],[0.11937499999999991,0.16111111111111112,4.093400000035771],[0.08083333333333324,0.2324074074074074,4.110100000023849],[0.05697916666666671,0.22462962962962954,4.126699999988077],[0.036562500000000026,0.21777777777777782,4.1434000000357685],[0.03875000000000005,0.20092592592592592,4.160100000023846],[0.04052083333333331,0.20314814814814824,4.176800000011923],[0.04052083333333331,0.20314814814814824,4.1933000000119165],[0.04364583333333331,0.18907407407407412,4.210100000023843],[0.05510416666666664,0.1816666666666667,4.226699999988085],[0.05645833333333338,0.1794444444444444,4.243400000035763],[0.05645833333333338,0.1794444444444444,4.26010000002384],[0.0796875,0.1537037037037037,4.276800000011917],[0.058749999999999976,0.12148148148148152,4.2934999999999945],[0.08333333333333333,0.08518518518518518,4.310100000023837],[0.08333333333333333,0.08518518518518518,4.3266999999880795],[0.09833333333333343,0.11018518518518519,4.343400000035771],[0.10739583333333323,0.1037037037037037,4.360100000023849],[0.12614583333333323,0.09907407407407408,4.376699999988077],[0.12614583333333323,0.09907407407407408,4.393600000023838],[0.1453125,0.07537037037037045,4.409999999999997],[0.15,0.08277777777777787,4.426699999988074],[0.15625,0.06500000000000004,4.443400000035766],[0.1609375,0.07259259259259268,4.4604000000357615],[0.171875,0.08481481481481473,4.476900000035769],[0.21989583333333323,0.04740740740740745,4.493499999999997],[0.22239583333333332,0.014074074074074116,4.510199999988075],[0.22239583333333332,0.014074074074074116,4.526699999988082],[0.23864583333333325,-0.04129629629629621,4.5434999999999945],[0.25656249999999997,-0.05259259259259255,4.560100000023837],[0.26593749999999994,-0.07037037037037037,4.576800000011929],[0.27531249999999996,-0.08814814814814818,4.598199999988083],[0.27531249999999996,-0.16203703703703703,4.613400000035767],[0.2631249999999999,-0.2192592592592592,4.626999999999995],[0.2727083333333333,-0.2831481481481481,4.6434000000357685],[0.2760416666666667,-0.3516666666666666,4.66019999998808],[0.2881249999999999,-0.33055555555555555,4.676800000011923],[0.28187499999999993,-0.3479629629629629,4.693400000035766],[0.2542708333333332,-0.2846296296296296,4.712400000035771],[0.2542708333333332,-0.2846296296296296,4.726900000035769],[0.253125,-0.25555555555555554,4.743699999988081],[0.253125,-0.25555555555555554,4.7628000000119215],[0.25322916666666656,-0.24351851851851852,4.777199999988085],[0.25322916666666656,-0.24351851851851852,4.793699999988078],[0.25812499999999994,-0.19425925925925921,4.812300000011916],[0.23041666666666671,-0.08611111111111111,4.826800000011929],[0.20979166666666677,0.019999999999999917,4.843500000000006],[0.15947916666666656,0.11944444444444445,4.860300000011918],[0.11760416666666676,0.21796296296296305,4.879500000000007],[0.11541666666666663,0.2492592592592593,4.893500000000003],[0.13156249999999994,0.319074074074074,4.91019999998808],[0.14729166666666677,0.32111111111111107,4.927000000000007],[0.14729166666666677,0.32111111111111107,4.945699999988079],[0.1586458333333333,0.32111111111111107,4.960300000011927],[0.10395833333333329,0.36666666666666664,4.976900000035769],[0.10135416666666662,0.37222222222222223,4.993499999999997],[0.10135416666666662,0.37222222222222223,5.01010000002384],[0.10177083333333338,0.35648148148148145,5.028900000035762],[0.1319791666666667,0.3487037037037036,5.0434999999999945],[0.17864583333333334,0.327962962962963,5.06040000003577],[0.17864583333333334,0.327962962962963,5.079000000000008],[0.22447916666666667,0.29148148148148145,5.093699999988075],[0.22708333333333333,0.26722222222222214,5.110199999988083],[0.2296875,0.24296296296296305,5.126900000035761],[0.22843749999999996,0.256111111111111,5.149199999988085],[0.17625000000000005,0.24759259259259267,5.1648000000119225],[0.19114583333333332,0.2161111111111112,5.181300000011916],[0.15875000000000009,0.1896296296296296,5.200400000035771],[0.15875000000000009,0.1896296296296296,5.2101999999880775],[0.18166666666666675,0.16666666666666666,5.227000000000004],[0.07645833333333343,0.11629629629629622,5.243699999988081],[0.022083333333333382,0.05814814814814811,5.263900000035761],[0.022083333333333382,0.05814814814814811,5.276900000035766],[-0.05947916666666669,0.03370370370370379,5.293600000023844],[-0.15135416666666662,0.01777777777777782,5.310199999988086],[-0.2453125,0.02629629629629638,5.33060000002385],[-0.28937499999999994,0.025370370370370456,5.347600000023846],[-0.30375,0.06888888888888897,5.364999999999995],[-0.336875,0.10259259259259255,5.384800000011921],[-0.336875,0.10259259259259255,5.393500000000003],[-0.3602083333333333,0.14444444444444443,5.4103000000119295],[-0.3857291666666666,0.1874074074074075,5.427000000000007],[-0.34427083333333336,0.2294444444444444,5.447000000000003],[-0.32833333333333337,0.29222222222222216,5.462900000035759],[-0.32833333333333337,0.29222222222222216,5.476900000035769],[-0.284375,0.3566666666666667,5.497199999988084],[-0.2860416666666667,0.3874074074074075,5.514499999999998],[-0.21614583333333334,0.4359259259259259,5.529400000035764],[-0.18083333333333335,0.4594444444444445,5.551600000023839],[-0.18083333333333335,0.4594444444444445,5.560199999988086],[-0.17739583333333328,0.42888888888888893,5.576800000011929],[-0.17739583333333328,0.42888888888888893,5.593500000000006],[-0.13770833333333338,0.4455555555555556,5.617000000000004],[-0.13770833333333338,0.4455555555555556,5.626900000035761],[-0.10677083333333333,0.4222222222222222,5.643600000023838],[-0.07374999999999995,0.444074074074074,5.6640000000000015],[-0.05656249999999995,0.4725925925925927,5.6831999999880765],[-0.05656249999999995,0.4725925925925927,5.6935],[-0.024583333333333356,0.4842592592592593,5.710300000011927],[-0.005416666666666714,0.47925925925925916,5.73090000003576],[-0.005416666666666714,0.47925925925925916,5.743900000035765],[0.050625000000000024,0.4787037037037037,5.760400000035759],[0.050625000000000024,0.4787037037037037,5.777000000000001],[0.027708333333333356,0.42407407407407405,5.797199999988081],[0.033749999999999974,0.35611111111111104,5.811999999999998],[0.033749999999999974,0.35611111111111104,5.826900000035764],[0.06041666666666667,0.3272222222222223,5.843600000023841],[0.07333333333333343,0.2718518518518518,5.863499999999995],[0.04895833333333333,0.2037037037037037,5.881400000035775],[0.04895833333333333,0.2037037037037037,5.893499999999996],[0.036249999999999956,0.1037037037037037,5.910300000011922],[0.06364583333333336,0.019444444444444445,5.9301999999880834],[0.06031249999999998,-0.03796296296296296,5.946800000011912],[0.09593749999999991,-0.08777777777777773,5.965600000023848],[0.09593749999999991,-0.08777777777777773,5.976800000011913],[0.14354166666666662,-0.10666666666666672,5.99340000003577],[0.17218749999999997,-0.11703703703703702,6.012800000011914],[0.18520833333333328,-0.15333333333333335,6.030199999988078],[0.2099999999999999,-0.17629629629629628,6.046300000011918],[0.1955208333333334,-0.22666666666666663,6.06010000002383],[0.2109375,-0.24055555555555552,6.076699999988087],[0.21218750000000006,-0.2581481481481481,6.09410000002385],[0.21343750000000009,-0.2757407407407407,6.11040000003576],[0.19854166666666656,-0.29203703703703704,6.12669999998807],[0.1490624999999999,-0.31796296296296295,6.143600000023845],[0.09958333333333323,-0.34388888888888886,6.166300000011923],[0.09958333333333323,-0.34388888888888886,6.176699999988081],[0.07260416666666672,-0.395,6.1934000000357585],[0.020833333333333332,-0.3642592592592592,6.210699999988073],[0.007187499999999976,-0.3344444444444445,6.231900000035758],[0.00791666666666669,-0.2916666666666667,6.247900000035777],[-0.02177083333333331,-0.21074074074074076,6.262699999988094],[-0.0021875000000000236,-0.16314814814814818,6.2811999999880825],[0.008958333333333356,-0.13203703703703706,6.298800000011916],[0.02687499999999995,-0.12518518518518523,6.315199999988074],[-0.0067708333333333336,-0.11833333333333329,6.331800000011931],[-0.05,-0.10999999999999996,6.349100000023846],[-0.07520833333333338,-0.07759259259259255,6.366100000023842],[-0.07520833333333338,-0.07759259259259255,6.37669999998807],[-0.0889583333333333,-0.08777777777777773,6.393400000035776],[-0.12218749999999995,-0.056666666666666705,6.410000000000004],[-0.11541666666666663,-0.08370370370370368,6.426699999988081],[-0.08145833333333338,-0.14296296296296293,6.444400000035763],[-0.10281250000000004,-0.11037037037037041,6.460199999988085],[-0.1295833333333333,-0.09814814814814815,6.478800000011923],[-0.1297916666666667,-0.062037037037037036,6.494699999988093],[-0.09656250000000005,0.000925925925925926,6.511699999988089],[-0.051250000000000046,-0.013518518518518435,6.52769999998808],[-0.018020833333333285,-0.0235185185185186,6.543400000035753],[0.013333333333333286,-0.03166666666666671,6.56010000002383],[0.022395833333333334,-0.09277777777777782,6.578100000023831],[0,-0.09074074074074075,6.5951999999880755],[-0.003541666666666643,-0.07388888888888885,6.613100000023856],[-0.029375000000000047,-0.13444444444444448,6.627600000023854],[-0.029375000000000047,-0.13444444444444448,6.643600000023845],[-0.01864583333333331,-0.14370370370370375,6.660100000023853],[-0.044062499999999956,-0.24296296296296294,6.678800000011911],[-0.03791666666666664,-0.35481481481481486,6.696600000023842],[-0.04364583333333331,-0.39814814814814814,6.716000000000015],[-0.03770833333333338,-0.42314814814814816,6.731699999988088],[-0.018229166666666668,-0.4457407407407407,6.749000000000002],[-0.018229166666666668,-0.4457407407407407,6.760100000023847],[-0.012812499999999952,-0.47129629629629627,6.776800000011924],[-0.0036458333333333334,-0.47833333333333333,6.797100000023853],[-0.013645833333333357,-0.5005555555555555,6.812600000023856],[0.008020833333333382,-0.5181481481481481,6.827400000035773],[0.012083333333333357,-0.5392592592592592,6.845600000023843],[-0.0014583333333333095,-0.5009259259259259,6.863300000011925],[-0.019791666666666666,-0.4922222222222222,6.881199999988077],[-0.020937500000000022,-0.46518518518518515,6.896800000011929],[-0.0296875,-0.46037037037037043,6.913800000011925],[-0.049583333333333354,-0.47000000000000003,6.932100000023844],[-0.04635416666666667,-0.46592592592592597,6.950900000035752],[-0.04635416666666667,-0.46592592592592597,6.960100000023836],[-0.044062499999999956,-0.465,6.976900000035762],[-0.030312500000000023,-0.459074074074074,6.994600000023844],[-0.04624999999999998,-0.44592592592592595,7.0144000000357565]]","[0.0001999999880837322,0.040100000023841176,0.05250000000000199,0.07130000001192371,0.08769999998808231,0.0958000000119199,0.11010000002384146,0.12690000003576074,0.14569999998808214,0.16049999999999898,0.178199999988081,0.19930000001192383,0.21019999998807748,0.22680000001192013,0.24360000002384652,0.2623000000119191,0.2779999999999987,0.29400000000000404,0.3101999999880789,0.3290000000000006,0.3446000000238456,0.3604000000357672,0.37940000003576557,0.3936999999880797,0.41030000001192235,0.4291000000238441,0.44369999998808396,0.4603000000119195,0.4795000000000016,0.4936999999880811,0.5103000000119238,0.5288000000119197,0.544699999988083,0.5606000000238467,0.5799000000357637,0.5936000000238408,0.6103000000119252,0.6311000000238423,0.6439000000357638,0.660499999999999,0.6769999999999996,0.695199999988084,0.7103000000119195,0.7269000000357622,0.7436000000238465,0.7633000000119239,0.777100000023843,0.7936999999880783,0.8103000000119209,0.8290000000000006,0.8456999999880779,0.8603000000119252,0.8791000000238398,0.8936000000238451,0.9103000000119224,0.9289000000357674,0.9451000000238423,0.9603000000119195,0.9804999999999993,0.9948000000119208,1.0105000000000004,1.027000000000001,1.0466999999880784,1.060199999988079,1.0771000000238402,1.0956000000238433,1.1113000000119229,1.1269000000357607,1.1466000000238452,1.1616999999880804,1.1796000000238465,1.1936000000238423,1.212400000035764,1.2270000000000039,1.2436000000238465,1.2603000000119238,1.2798000000119245,1.2936000000238437,1.310300000011921,1.3314000000357638,1.3448000000119222,1.3603000000119252,1.3780000000000001,1.3969000000357639,1.4103000000119224,1.426900000035765,1.4455000000000027,1.4609999999999985,1.479400000035767,1.4958000000119256,1.511499999999998,1.5271999999880776,1.5461000000238414,1.5606999999880813,1.5775000000000006,1.5984000000357668,1.6126000000238463,1.6281000000238421,1.6434000000357614,1.6615000000000038,1.6804000000357675,1.6936000000238423,1.7104000000357615,1.7325000000000017,1.7436000000238465,1.7604000000357658,1.7850000000000037,1.7944999999999993,1.810300000011921,1.8269000000357636,1.8468000000119247,1.8629999999999995,1.881400000035761,1.9009000000357616,1.9101999999880803,1.9271999999880833,1.9436000000238423,1.965300000011922,1.9769000000357622,1.9936000000238465,2.0101999999880817,2.0314000000357666,2.048100000023844,2.064900000035763,2.0768000000119216,2.097400000035762,2.1138000000119206,2.129900000035761,2.143600000023845,2.164600000023846,2.1769999999999996,2.1936000000238423,2.2158000000119245,2.226900000035762,2.243699999988081,2.2603000000119238,2.2826999999880826,2.2936000000238437,2.310300000011921,2.3269000000357636,2.3493000000119224,2.360300000011925,2.3771000000238445,2.398300000011922,2.4104000000357644,2.426900000035765,2.4436000000238423,2.463900000035764,2.476900000035762,2.4936000000238465,2.5136000000238425,2.5306000000238456,2.548100000023844,2.560300000011921,2.581100000023845,2.5979000000357644,2.614199999988081,2.63360000002384,2.643600000023845,2.6604000000357644,2.6773000000119254,2.6973000000119214,2.7103000000119195,2.7274000000357645,2.7466999999880812,2.766199999988082,2.7768000000119244,2.7944000000357647,2.8108000000119233,2.8339000000357615,2.843400000035764,2.8601000000238486,2.8778000000119164,2.8934000000357685,2.9101000000238457,2.926699999988074,2.9441000000238375,2.966100000023843,2.97680000001192,2.9934999999999974,3.0103000000119238,3.02710000002385,3.0444000000357647,3.060100000023837,3.0768000000119287,3.0941000000238432,3.113600000023837,3.1291999999880744,3.147199999988075,3.1601000000238457,3.176900000035758,3.1958000000119284,3.2141999999880824,3.2333000000119227,3.2434999999999974,3.2601999999880746,3.2786999999880777,3.297100000023846,3.3144999999999953,3.3299999999999983,3.3448000000119293,3.363500000000002,3.376800000011926,3.3934000000357685,3.411199999988085,3.426800000011923,3.4435000000000002,3.460100000023843,3.4789000000357646,3.500800000011921,3.516400000035759,3.5266999999880824,3.5434999999999945,3.560100000023837,3.5768000000119287,3.5934000000357713,3.610199999988083,3.6266999999880767,3.647199999988075,3.6610000000000014,3.676699999988074,3.6935000000000002,3.71460000002385,3.727800000011925,3.7434999999999974,3.76010000002384,3.7769000000357664,3.796600000023844,3.810100000023837,3.8269000000357636,3.8434000000357713,3.8599999999999994,3.876800000011926,3.893500000000003,3.9101999999880803,3.926800000011923,3.9434000000357656,3.960100000023843,3.9771999999880876,3.9934999999999974,4.01010000002384,4.026800000011917,4.0434999999999945,4.060100000023837,4.0766999999880795,4.093400000035771,4.110100000023849,4.126699999988077,4.1434000000357685,4.160100000023846,4.176800000011923,4.1933000000119165,4.210100000023843,4.226699999988085,4.243400000035763,4.26010000002384,4.276800000011917,4.2934999999999945,4.310100000023837,4.3266999999880795,4.343400000035771,4.360100000023849,4.376699999988077,4.393600000023838,4.409999999999997,4.426699999988074,4.443400000035766,4.4604000000357615,4.476900000035769,4.493499999999997,4.510199999988075,4.526699999988082,4.5434999999999945,4.560100000023837,4.576800000011929,4.598199999988083,4.613400000035767,4.626999999999995,4.6434000000357685,4.66019999998808,4.676800000011923,4.693400000035766,4.712400000035771,4.726900000035769,4.743699999988081,4.7628000000119215,4.777199999988085,4.793699999988078,4.812300000011916,4.826800000011929,4.843500000000006,4.860300000011918,4.879500000000007,4.893500000000003,4.91019999998808,4.927000000000007,4.945699999988079,4.960300000011927,4.976900000035769,4.993499999999997,5.01010000002384,5.028900000035762,5.0434999999999945,5.06040000003577,5.079000000000008,5.093699999988075,5.110199999988083,5.126900000035761,5.149199999988085,5.1648000000119225,5.181300000011916,5.200400000035771,5.2101999999880775,5.227000000000004,5.243699999988081,5.263900000035761,5.276900000035766,5.293600000023844,5.310199999988086,5.33060000002385,5.347600000023846,5.364999999999995,5.384800000011921,5.393500000000003,5.4103000000119295,5.427000000000007,5.447000000000003,5.462900000035759,5.476900000035769,5.497199999988084,5.514499999999998,5.529400000035764,5.551600000023839,5.560199999988086,5.576800000011929,5.593500000000006,5.617000000000004,5.626900000035761,5.643600000023838,5.6640000000000015,5.6831999999880765,5.6935,5.710300000011927,5.73090000003576,5.743900000035765,5.760400000035759,5.777000000000001,5.797199999988081,5.811999999999998,5.826900000035764,5.843600000023841,5.863499999999995,5.881400000035775,5.893499999999996,5.910300000011922,5.9301999999880834,5.946800000011912,5.965600000023848,5.976800000011913,5.99340000003577,6.012800000011914,6.030199999988078,6.046300000011918,6.06010000002383,6.076699999988087,6.09410000002385,6.11040000003576,6.12669999998807,6.143600000023845,6.166300000011923,6.176699999988081,6.1934000000357585,6.210699999988073,6.231900000035758,6.247900000035777,6.262699999988094,6.2811999999880825,6.298800000011916,6.315199999988074,6.331800000011931,6.349100000023846,6.366100000023842,6.37669999998807,6.393400000035776,6.410000000000004,6.426699999988081,6.444400000035763,6.460199999988085,6.478800000011923,6.494699999988093,6.511699999988089,6.52769999998808,6.543400000035753,6.56010000002383,6.578100000023831,6.5951999999880755,6.613100000023856,6.627600000023854,6.643600000023845,6.660100000023853,6.678800000011911,6.696600000023842,6.716000000000015,6.731699999988088,6.749000000000002,6.760100000023847,6.776800000011924,6.797100000023853,6.812600000023856,6.827400000035773,6.845600000023843,6.863300000011925,6.881199999988077,6.896800000011929,6.913800000011925,6.932100000023844,6.950900000035752,6.960100000023836,6.976900000035762,6.994600000023844,7.0144000000357565]","[1733039479611,1733039479643,1733039479655,1733039479674,1733039479691,1733039479699,1733039479713,1733039479730,1733039479749,1733039479763,1733039479781,1733039479802,1733039479813,1733039479830,1733039479847,1733039479865,1733039479881,1733039479897,1733039479913,1733039479932,1733039479948,1733039479963,1733039479982,1733039479997,1733039480013,1733039480032,1733039480047,1733039480063,1733039480082,1733039480097,1733039480113,1733039480132,1733039480148,1733039480164,1733039480183,1733039480197,1733039480213,1733039480234,1733039480247,1733039480263,1733039480280,1733039480298,1733039480313,1733039480330,1733039480347,1733039480366,1733039480380,1733039480397,1733039480413,1733039480432,1733039480449,1733039480463,1733039480482,1733039480497,1733039480513,1733039480532,1733039480548,1733039480563,1733039480583,1733039480598,1733039480613,1733039480630,1733039480650,1733039480663,1733039480680,1733039480699,1733039480714,1733039480730,1733039480750,1733039480765,1733039480782,1733039480797,1733039480815,1733039480830,1733039480847,1733039480863,1733039480883,1733039480897,1733039480913,1733039480934,1733039480948,1733039480963,1733039480981,1733039481000,1733039481013,1733039481030,1733039481048,1733039481064,1733039481082,1733039481099,1733039481115,1733039481130,1733039481149,1733039481164,1733039481180,1733039481201,1733039481216,1733039481231,1733039481246,1733039481265,1733039481283,1733039481296,1733039481313,1733039481335,1733039481347,1733039481363,1733039481388,1733039481397,1733039481413,1733039481430,1733039481450,1733039481466,1733039481484,1733039481504,1733039481513,1733039481530,1733039481547,1733039481568,1733039481580,1733039481597,1733039481613,1733039481634,1733039481651,1733039481668,1733039481680,1733039481700,1733039481717,1733039481733,1733039481746,1733039481768,1733039481780,1733039481797,1733039481819,1733039481830,1733039481847,1733039481863,1733039481886,1733039481897,1733039481913,1733039481930,1733039481952,1733039481963,1733039481980,1733039482001,1733039482013,1733039482030,1733039482047,1733039482067,1733039482080,1733039482097,1733039482117,1733039482134,1733039482151,1733039482163,1733039482184,1733039482201,1733039482217,1733039482237,1733039482247,1733039482263,1733039482280,1733039482300,1733039482313,1733039482330,1733039482350,1733039482369,1733039482380,1733039482397,1733039482414,1733039482437,1733039482446,1733039482463,1733039482481,1733039482496,1733039482513,1733039482530,1733039482547,1733039482569,1733039482580,1733039482596,1733039482613,1733039482630,1733039482647,1733039482663,1733039482680,1733039482697,1733039482717,1733039482732,1733039482750,1733039482763,1733039482780,1733039482799,1733039482817,1733039482836,1733039482846,1733039482863,1733039482882,1733039482900,1733039482918,1733039482933,1733039482948,1733039482966,1733039482980,1733039482996,1733039483014,1733039483030,1733039483046,1733039483063,1733039483082,1733039483104,1733039483119,1733039483130,1733039483146,1733039483163,1733039483180,1733039483196,1733039483213,1733039483230,1733039483250,1733039483264,1733039483280,1733039483296,1733039483318,1733039483331,1733039483346,1733039483363,1733039483380,1733039483400,1733039483413,1733039483430,1733039483446,1733039483463,1733039483480,1733039483496,1733039483513,1733039483530,1733039483546,1733039483563,1733039483580,1733039483596,1733039483613,1733039483630,1733039483646,1733039483663,1733039483680,1733039483696,1733039483713,1733039483730,1733039483746,1733039483763,1733039483780,1733039483796,1733039483813,1733039483830,1733039483846,1733039483863,1733039483880,1733039483896,1733039483913,1733039483930,1733039483946,1733039483963,1733039483980,1733039483997,1733039484013,1733039484030,1733039484046,1733039484063,1733039484080,1733039484096,1733039484113,1733039484130,1733039484146,1733039484163,1733039484180,1733039484201,1733039484216,1733039484230,1733039484246,1733039484263,1733039484280,1733039484296,1733039484315,1733039484330,1733039484347,1733039484366,1733039484380,1733039484397,1733039484415,1733039484430,1733039484446,1733039484463,1733039484482,1733039484497,1733039484513,1733039484530,1733039484549,1733039484563,1733039484580,1733039484596,1733039484613,1733039484632,1733039484646,1733039484663,1733039484682,1733039484697,1733039484713,1733039484730,1733039484752,1733039484768,1733039484784,1733039484803,1733039484813,1733039484830,1733039484847,1733039484867,1733039484880,1733039484897,1733039484913,1733039484934,1733039484951,1733039484968,1733039484988,1733039484996,1733039485013,1733039485030,1733039485050,1733039485066,1733039485080,1733039485100,1733039485117,1733039485132,1733039485155,1733039485163,1733039485180,1733039485196,1733039485220,1733039485230,1733039485247,1733039485267,1733039485286,1733039485296,1733039485313,1733039485334,1733039485347,1733039485363,1733039485380,1733039485400,1733039485415,1733039485430,1733039485447,1733039485466,1733039485484,1733039485496,1733039485513,1733039485533,1733039485550,1733039485569,1733039485580,1733039485596,1733039485616,1733039485633,1733039485649,1733039485663,1733039485680,1733039485697,1733039485713,1733039485730,1733039485747,1733039485769,1733039485780,1733039485796,1733039485814,1733039485835,1733039485851,1733039485866,1733039485884,1733039485902,1733039485918,1733039485935,1733039485952,1733039485969,1733039485980,1733039485996,1733039486013,1733039486030,1733039486047,1733039486063,1733039486082,1733039486098,1733039486115,1733039486131,1733039486146,1733039486163,1733039486181,1733039486198,1733039486216,1733039486231,1733039486247,1733039486263,1733039486282,1733039486300,1733039486319,1733039486335,1733039486352,1733039486363,1733039486380,1733039486400,1733039486416,1733039486430,1733039486449,1733039486466,1733039486484,1733039486500,1733039486517,1733039486535,1733039486554,1733039486563,1733039486580,1733039486598,1733039486617]","[[1040.1,554.1],[1040.1,554.1],[1016.6,546.2],[1016.6,546.2],[1012.7,551.1],[1012.7,551.1],[1037,550.2],[1046,554.5],[1032.8,555.7],[1016.1,546.4],[1027,577.1],[1013.7,586.3],[1013.7,586.3],[1016,570.2],[1016,570.2],[1047.1,550.5],[1085.9,570.1],[1093.9,574.7],[1093.9,574.7],[1093.3,582.2],[1054.8,561.5],[1025.4,551.7],[1025.4,551.7],[1014.1,569.5],[990.5,565],[997.1,574.1],[997.1,574.1],[1000.3,566],[1000.3,566],[981.6,579.5],[981.6,579.5],[930.1,552.5],[914.9,546.8],[909.2,542.8],[938.9,557.8],[938.9,557.8],[979.9,552],[979.8,549.4],[979.8,549.4],[1000.1,505.3],[1021.3,480.1],[1021.3,469.4],[1021.3,469.4],[1024.5,444.2],[1024.5,444.2],[1080.7,438.7],[1080.7,438.7],[1062.1,405.8],[1029.6,379.8],[1008.2,372.9],[999.9,344.5],[971.8,297.8],[971.8,297.8],[963.6,317.1],[949.2,308.5],[972.6,294.7],[938,303.9],[877.3,311.2],[893.3,319.2],[876.3,333.7],[910.4,327.5],[920.1,363.6],[944.4,389.2],[944.4,389.2],[910.4,399.4],[905,402.3],[869.2,426.4],[869.2,426.4],[901.2,428.1],[965.9,403.1],[992.4,383.5],[992.4,383.5],[1062.2,378.2],[1048.8,406.5],[1033.7,427.4],[1033.7,427.4],[1035.1,420.3],[1055.9,405.8],[1046.8,407.5],[1039.2,394.7],[994.1,396.2],[916.3,424.4],[809.7,469.1],[809.7,469.1],[757.1,476.1],[723.6,439],[707.2,421.7],[706.3,432.5],[713.4,467.7],[685.9,485.3],[658.3,530.2],[668.2,560.8],[680,590.8],[735.2,585.6],[735,593.3],[767.1,607.3],[802.1,605.5],[742.4,656.5],[748,634.1],[792.4,636.4],[792.4,636.4],[814.8,616.2],[837.7,572.4],[859.8,534.5],[859.8,534.5],[907.8,520.4],[927.1,502.4],[927.1,502.4],[940.5,501.4],[923.1,496.6],[978.5,435.4],[981.3,441.4],[1000.5,456.5],[1066,458.7],[1066,458.7],[1100.4,479.4],[1100.4,479.4],[1129.3,519.4],[1129.3,519.4],[1073.7,533],[1073.7,533],[1081.4,545.2],[1094.7,558],[1097.7,565.4],[1097.7,565.4],[1126.2,574.7],[1115.2,586.8],[1092,577.1],[1092,577.1],[1036.4,581.6],[1036.4,581.6],[1014.1,577.3],[982.9,562.5],[982.9,562.5],[1004.3,578],[977,581.4],[963.8,597.8],[963.8,597.8],[952.9,622],[952.9,622],[921.5,648.1],[921.5,648.1],[925.4,648.2],[905.1,647.8],[905.1,647.8],[899.4,655.6],[911.8,683],[923.7,695.5],[923.7,695.5],[942.5,696.5],[970.8,720.8],[1004.6,717.1],[1058.9,718.2],[1058.9,718.2],[1110.8,720],[1098.3,696.4],[1105.8,680.1],[1073.5,647.5],[1073.5,647.5],[1098.5,636.8],[1101.7,616.2],[1101.7,616.2],[1137.8,609.1],[1144.9,590.6],[1134.4,594.5],[1134.4,594.5],[1099.6,599.7],[1054.9,600.5],[1092.2,634.3],[1155.9,666.6],[1155.9,666.6],[1237.5,702.9],[1262.9,692.2],[1262.9,692.2],[1347.8,695.6],[1328.8,674.5],[1343.4,658.9],[1372.8,642.2],[1372.8,642.2],[1437,642.9],[1526.7,642.6],[1539.9,614.1],[1541,604.6],[1549.4,599.2],[1537.8,609.5],[1490.3,611.1],[1504.2,621.8],[1514,632.2],[1527.6,634.5],[1527.6,634.5],[1546,610.1],[1520,595.3],[1547.2,603.2],[1584.1,590.1],[1584.1,590.1],[1609.5,573],[1615.2,560.5],[1677.6,559.1],[1728.5,562.6],[1738.7,554.3],[1716,540],[1690.4,531.3],[1690.4,531.3],[1691.2,517.8],[1702.5,507.3],[1702.5,507.3],[1726.9,508.7],[1706.3,509.5],[1708.8,498.7],[1708.8,498.7],[1694.6,486.1],[1694.6,486.1],[1677.9,470.6],[1706,467.2],[1706,467.2],[1721.9,468.5],[1693.6,463.9],[1663.5,461.8],[1622.3,456.1],[1557.3,454.1],[1546.7,452.1],[1548.6,481.8],[1499.3,495.3],[1438.9,494.4],[1356.3,493.1],[1356.3,493.1],[1305.5,485.3],[1293.7,495.2],[1319.9,510.9],[1351.5,544.8],[1331.5,539],[1313.6,537.8],[1293.1,525.9],[1295.8,526.2],[1301.2,541],[1337.4,542.1],[1345.8,557.9],[1347,564.3],[1291.8,567.2],[1231.8,552.5],[1209.3,567.4],[1189,583.3],[1156.5,586.6],[1156.5,586.6],[1103,602.6],[1074.6,627],[1037.6,665.5],[1014.7,661.3],[995.1,657.6],[997.2,648.5],[998.9,649.7],[998.9,649.7],[1001.9,642.1],[1012.9,638.1],[1014.2,636.9],[1014.2,636.9],[1036.5,623],[1016.4,605.6],[1040,586],[1040,586],[1054.4,599.5],[1063.1,596],[1081.1,593.5],[1081.1,593.5],[1099.5,580.7],[1104,584.7],[1110,575.1],[1114.5,579.2],[1125,585.8],[1171.1,565.6],[1173.5,547.6],[1173.5,547.6],[1189.1,517.7],[1206.3,511.6],[1215.3,502],[1224.3,492.4],[1224.3,452.5],[1212.6,421.6],[1221.8,387.1],[1225,350.1],[1236.6,361.5],[1230.6,352.1],[1204.1,386.3],[1204.1,386.3],[1203,402],[1203,402],[1203.1,408.5],[1203.1,408.5],[1207.8,435.1],[1181.2,493.5],[1161.4,550.8],[1113.1,604.5],[1072.9,657.7],[1070.8,674.6],[1086.3,712.3],[1101.4,713.4],[1101.4,713.4],[1112.3,713.4],[1059.8,738],[1057.3,741],[1057.3,741],[1057.7,732.5],[1086.7,728.3],[1131.5,717.1],[1131.5,717.1],[1175.5,697.4],[1178,684.3],[1180.5,671.2],[1179.3,678.3],[1129.2,673.7],[1143.5,656.7],[1112.4,642.4],[1112.4,642.4],[1134.4,630],[1033.4,602.8],[981.2,571.4],[981.2,571.4],[902.9,558.2],[814.7,549.6],[724.5,554.2],[682.2,553.7],[668.4,577.2],[636.6,595.4],[636.6,595.4],[614.2,618],[589.7,641.2],[629.5,663.9],[644.8,697.8],[644.8,697.8],[687,732.6],[685.4,749.2],[752.5,775.4],[786.4,788.1],[786.4,788.1],[789.7,771.6],[789.7,771.6],[827.8,780.6],[827.8,780.6],[857.5,768],[889.2,779.8],[905.7,795.2],[905.7,795.2],[936.4,801.5],[954.8,798.8],[954.8,798.8],[1008.6,798.5],[1008.6,798.5],[986.6,769],[992.4,732.3],[992.4,732.3],[1018,716.7],[1030.4,686.8],[1007,650],[1007,650],[994.8,596],[1021.1,550.5],[1017.9,519.5],[1052.1,492.6],[1052.1,492.6],[1097.8,482.4],[1125.3,476.8],[1137.8,457.2],[1161.6,444.8],[1147.7,417.6],[1162.5,410.1],[1163.7,400.6],[1164.9,391.1],[1150.6,382.3],[1103.1,368.3],[1055.6,354.3],[1055.6,354.3],[1029.7,326.7],[980,343.3],[966.9,359.4],[967.6,382.5],[939.1,426.2],[957.9,451.9],[968.6,468.7],[985.8,472.4],[953.5,476.1],[912,480.6],[887.8,498.1],[887.8,498.1],[874.6,492.6],[842.7,509.4],[849.2,494.8],[881.8,462.8],[861.3,480.4],[835.6,487],[835.4,506.5],[867.3,540.5],[910.8,532.7],[942.7,527.3],[972.8,522.9],[981.5,489.9],[960,491],[956.6,500.1],[931.8,467.4],[931.8,467.4],[942.1,462.4],[917.7,408.8],[923.6,348.4],[918.1,325],[923.8,311.5],[942.5,299.3],[942.5,299.3],[947.7,285.5],[956.5,281.7],[946.9,269.7],[967.7,260.2],[971.6,248.8],[958.6,269.5],[941,274.2],[939.9,288.8],[931.5,291.4],[912.4,286.2],[915.5,288.4],[915.5,288.4],[917.7,288.9],[930.9,292.1],[915.6,299.2]]","[0,0.37864299999999995]","[0.37864299999999995,0.37864299999999995]","[-0.37864299999999995,-0.37864299999999995]","[-0.37864299999999995,0]","[0,-0.37864299999999995]","[0.37864299999999995,-0.37864299999999995]","[0,0]","[0.37864299999999995,0]",0,0,0,0,1,3,Laptop,11,9,9,1
