inst1_resp.keys,inst1_resp.rt,calibrationMouse.x,calibrationMouse.y,calibrationMouse.leftButton,calibrationMouse.midButton,calibrationMouse.rightButton,calibrationClick.x,calibrationClick.y,calibrationClick.leftButton,calibrationClick.midButton,calibrationClick.rightButton,trialsc.thisRepN,trialsc.thisTrialN,trialsc.thisN,trialsc.thisIndex,trialsc.ran,calibration_x,calibration_y,participant,session,date,expName,psychopyVersion,OS,frameRate,calibrationClick.clicked_name,ScreenRes_pixels,Camera_pixels,mouse_2.x,mouse_2.y,mouse_2.leftButton,mouse_2.midButton,mouse_2.rightButton,mouse_2.time,mouse_2.clicked_name,mouse.x,mouse.y,mouse.leftButton,mouse.midButton,mouse.rightButton,mouse.time,mouse.clicked_name,Choice,Trial,TrialDuration,MOUSE_GAZE,ET_GAZE,ET_GAZE_x_T,time,unixTime,ET_GAZE_NF,Loc_Option1_label,Loc_Option2_label,Loc_Cost_label,Loc_Qual_label,Loc_Option1_cost,Loc_Option2_cost,Loc_Option1_quality,Loc_Option2_quality,trials.thisRepN,trials.thisTrialN,trials.thisN,trials.thisIndex,trials.ran,Block,Device,cost1,qual1,cost2,qual2
space,1.3082,-0.054166667,-0.059259259,1,0,0,0.313541667,-0.657407407,1,0,0,0,0,0,14,1,0.33,-0.67,46,001,2024-12-02_13h39.44.376,Attention_exp_legacy,2023.1.0,Win32,59.88023952,,,,,,,,,,,,,,,,,,,,,,,,,,,,,,,,,,,,,,,,,,,,,
,,,,,,,0.017708333,-0.724074074,0,0,0,0,1,1,9,1,0,-0.67,46,001,2024-12-02_13h39.44.376,Attention_exp_legacy,2023.1.0,Win32,59.88023952,,,,,,,,,,,,,,,,,,,,,,,,,,,,,,,,,,,,,,,,,,,,,
,,,,,,,-0.005208333,0.32962963,1,0,0,0,2,2,12,1,0,0.33,46,001,2024-12-02_13h39.44.376,Attention_exp_legacy,2023.1.0,Win32,59.88023952,calibration_square,,,,,,,,,,,,,,,,,,,,,,,,,,,,,,,,,,,,,,,,,,,,
,,,,,,,0.30625,0.337037037,1,0,0,0,3,3,17,1,0.33,0.33,46,001,2024-12-02_13h39.44.376,Attention_exp_legacy,2023.1.0,Win32,59.88023952,,,,,,,,,,,,,,,,,,,,,,,,,,,,,,,,,,,,,,,,,,,,,
,,,,,,,-0.677083333,0.346296296,1,0,0,0,4,4,3,1,-0.67,0.33,46,001,2024-12-02_13h39.44.376,Attention_exp_legacy,2023.1.0,Win32,59.88023952,,,,,,,,,,,,,,,,,,,,,,,,,,,,,,,,,,,,,,,,,,,,,
,,,,,,,-0.325,-0.651851852,1,0,0,0,5,5,4,1,-0.33,-0.67,46,001,2024-12-02_13h39.44.376,Attention_exp_legacy,2023.1.0,Win32,59.88023952,,,,,,,,,,,,,,,,,,,,,,,,,,,,,,,,,,,,,,,,,,,,,
,,,,,,,0,-0.351851852,1,0,0,0,6,6,10,1,0,-0.33,46,001,2024-12-02_13h39.44.376,Attention_exp_legacy,2023.1.0,Win32,59.88023952,,,,,,,,,,,,,,,,,,,,,,,,,,,,,,,,,,,,,,,,,,,,,
,,,,,,,0.009375,0.662962963,1,0,0,0,7,7,13,1,0,0.67,46,001,2024-12-02_13h39.44.376,Attention_exp_legacy,2023.1.0,Win32,59.88023952,calibration_square,,,,,,,,,,,,,,,,,,,,,,,,,,,,,,,,,,,,,,,,,,,,
,,,,,,,0.667708333,0.67037037,1,0,0,0,8,8,19,1,0.67,0.67,46,001,2024-12-02_13h39.44.376,Attention_exp_legacy,2023.1.0,Win32,59.88023952,calibration_square,,,,,,,,,,,,,,,,,,,,,,,,,,,,,,,,,,,,,,,,,,,,
,,,,,,,-0.341666667,-0.346296296,1,0,0,0,9,9,5,1,-0.33,-0.33,46,001,2024-12-02_13h39.44.376,Attention_exp_legacy,2023.1.0,Win32,59.88023952,,,,,,,,,,,,,,,,,,,,,,,,,,,,,,,,,,,,,,,,,,,,,
,,,,,,,0.323958333,-0.038888889,1,0,0,0,10,10,16,1,0.33,0,46,001,2024-12-02_13h39.44.376,Attention_exp_legacy,2023.1.0,Win32,59.88023952,,,,,,,,,,,,,,,,,,,,,,,,,,,,,,,,,,,,,,,,,,,,,
,,,,,,,0.685416667,-0.651851852,1,0,0,0,11,11,20,1,0.67,-0.67,46,001,2024-12-02_13h39.44.376,Attention_exp_legacy,2023.1.0,Win32,59.88023952,,,,,,,,,,,,,,,,,,,,,,,,,,,,,,,,,,,,,,,,,,,,,
,,,,,,,-0.301041667,0.338888889,1,0,0,0,12,12,7,1,-0.33,0.33,46,001,2024-12-02_13h39.44.376,Attention_exp_legacy,2023.1.0,Win32,59.88023952,,,,,,,,,,,,,,,,,,,,,,,,,,,,,,,,,,,,,,,,,,,,,
,,,,,,,-0.357291667,0.009259259,1,0,0,0,13,13,6,1,-0.33,0,46,001,2024-12-02_13h39.44.376,Attention_exp_legacy,2023.1.0,Win32,59.88023952,,,,,,,,,,,,,,,,,,,,,,,,,,,,,,,,,,,,,,,,,,,,,
,,,,,,,-0.68125,-0.622222222,1,0,0,0,14,14,0,1,-0.67,-0.67,46,001,2024-12-02_13h39.44.376,Attention_exp_legacy,2023.1.0,Win32,59.88023952,,,,,,,,,,,,,,,,,,,,,,,,,,,,,,,,,,,,,,,,,,,,,
,,,,,,,-0.017708333,-0.009259259,1,0,0,0,15,15,11,1,0,0,46,001,2024-12-02_13h39.44.376,Attention_exp_legacy,2023.1.0,Win32,59.88023952,,,,,,,,,,,,,,,,,,,,,,,,,,,,,,,,,,,,,,,,,,,,,
,,,,,,,0.338541667,-0.309259259,1,0,0,0,16,16,15,1,0.33,-0.33,46,001,2024-12-02_13h39.44.376,Attention_exp_legacy,2023.1.0,Win32,59.88023952,,,,,,,,,,,,,,,,,,,,,,,,,,,,,,,,,,,,,,,,,,,,,
,,,,,,,-0.686458333,-0.024074074,1,0,0,0,17,17,2,1,-0.67,0,46,001,2024-12-02_13h39.44.376,Attention_exp_legacy,2023.1.0,Win32,59.88023952,,,,,,,,,,,,,,,,,,,,,,,,,,,,,,,,,,,,,,,,,,,,,
,,,,,,,0.332291667,0.683333333,1,0,0,0,18,18,18,1,0.33,0.67,46,001,2024-12-02_13h39.44.376,Attention_exp_legacy,2023.1.0,Win32,59.88023952,,,,,,,,,,,,,,,,,,,,,,,,,,,,,,,,,,,,,,,,,,,,,
,,,,,,,-0.680208333,-0.324074074,1,0,0,0,19,19,1,1,-0.67,-0.33,46,001,2024-12-02_13h39.44.376,Attention_exp_legacy,2023.1.0,Win32,59.88023952,,,,,,,,,,,,,,,,,,,,,,,,,,,,,,,,,,,,,,,,,,,,,
,,,,,,,-0.344791667,0.674074074,1,0,0,0,20,20,8,1,-0.33,0.67,46,001,2024-12-02_13h39.44.376,Attention_exp_legacy,2023.1.0,Win32,59.88023952,,,,,,,,,,,,,,,,,,,,,,,,,,,,,,,,,,,,,,,,,,,,,
,,,,,,,,,,,,,,,,,,,46,001,2024-12-02_13h39.44.376,Attention_exp_legacy,2023.1.0,Win32,59.88023952,,"[1920,1080]","[640,480]",[0.010416666666666666],[-0.5],[1],[0],[0],[1.2645000000000124],"[""StartButton""]",[0.016666666666666666],[0.42407407407407405],[1],[0],[0],[1.2377000000001743],"[""Option1_label""]",Option1_label,1,2.248,"[[0.08229166666666667,-0.08703703703703704],[0.08229166666666667,-0.08703703703703704],[0.08229166666666667,-0.08703703703703704],[0.08229166666666667,-0.08703703703703704],[0.08229166666666667,-0.08703703703703704],[0.08229166666666667,-0.08703703703703704],[0.08229166666666667,-0.08703703703703704],[0.08229166666666667,-0.08703703703703704],[0.08229166666666667,-0.08703703703703704],[0.08229166666666667,-0.08703703703703704],[0.08229166666666667,-0.08703703703703704],[0.08020833333333334,-0.08518518518518518],[0.078125,-0.07962962962962963],[0.075,-0.07222222222222222],[0.07291666666666667,-0.06481481481481481],[0.06875,-0.05740740740740741],[0.06666666666666667,-0.053703703703703705],[0.06666666666666667,-0.05185185185185185],[0.065625,-0.05185185185185185],[0.065625,-0.05185185185185185],[0.065625,-0.05185185185185185],[0.065625,-0.05185185185185185],[0.065625,-0.05185185185185185],[0.065625,-0.05185185185185185],[0.065625,-0.05185185185185185],[0.065625,-0.05185185185185185],[0.06979166666666667,-0.05185185185185185],[0.08333333333333333,-0.05185185185185185],[0.11354166666666667,-0.05185185185185185],[0.140625,-0.05185185185185185],[0.16666666666666666,-0.05185185185185185],[0.18958333333333333,-0.05185185185185185],[0.2125,-0.05185185185185185],[0.234375,-0.05185185185185185],[0.25625,-0.03888888888888889],[0.27708333333333335,-0.012962962962962963],[0.2916666666666667,0.016666666666666666],[0.296875,0.05555555555555555],[0.296875,0.12407407407407407],[0.2947916666666667,0.17592592592592593],[0.27708333333333335,0.2351851851851852],[0.25,0.28888888888888886],[0.20208333333333334,0.34074074074074073],[0.14375,0.3888888888888889],[0.06145833333333333,0.43333333333333335],[0,0.45925925925925926],[-0.034375,0.45925925925925926],[-0.040625,0.45925925925925926],[-0.040625,0.45925925925925926],[-0.04791666666666667,0.45925925925925926],[-0.051041666666666666,0.4537037037037037],[-0.051041666666666666,0.4537037037037037],[-0.051041666666666666,0.4537037037037037],[-0.052083333333333336,0.4537037037037037],[-0.052083333333333336,0.4537037037037037],[-0.052083333333333336,0.4537037037037037],[-0.052083333333333336,0.4537037037037037],[-0.052083333333333336,0.4537037037037037],[-0.052083333333333336,0.4537037037037037],[-0.052083333333333336,0.4537037037037037],[-0.052083333333333336,0.45185185185185184],[-0.052083333333333336,0.45],[-0.04479166666666667,0.4425925925925926],[-0.03854166666666667,0.4388888888888889],[-0.030208333333333334,0.43333333333333335],[-0.019791666666666666,0.43148148148148147],[-0.007291666666666667,0.42777777777777776],[0.0020833333333333333,0.42777777777777776],[0.009375,0.42592592592592593],[0.013541666666666667,0.42407407407407405],[0.014583333333333334,0.42407407407407405],[0.016666666666666666,0.42407407407407405],[0.016666666666666666,0.42407407407407405],[0.016666666666666666,0.42407407407407405],[0.016666666666666666,0.42407407407407405],[0.016666666666666666,0.42407407407407405],[0.016666666666666666,0.42407407407407405],[0.016666666666666666,0.42407407407407405],[0.016666666666666666,0.42407407407407405],[0.016666666666666666,0.42407407407407405],[0.016666666666666666,0.42407407407407405],[0.016666666666666666,0.42407407407407405],[0.016666666666666666,0.42407407407407405],[0.016666666666666666,0.42407407407407405],[0.016666666666666666,0.42407407407407405],[0.016666666666666666,0.42407407407407405],[0.016666666666666666,0.4222222222222222],[0.016666666666666666,0.4203703703703704],[0.016666666666666666,0.4166666666666667],[0.016666666666666666,0.4166666666666667],[0.016666666666666666,0.4148148148148148],[0.016666666666666666,0.4148148148148148],[0.016666666666666666,0.4148148148148148],[0.016666666666666666,0.4148148148148148],[0.016666666666666666,0.4111111111111111],[0.016666666666666666,0.4111111111111111],[0.016666666666666666,0.40925925925925927],[0.016666666666666666,0.40555555555555556],[0.016666666666666666,0.4],[0.016666666666666666,0.4],[0.016666666666666666,0.39444444444444443],[0.016666666666666666,0.3925925925925926],[0.015625,0.3907407407407407],[0.015625,0.3888888888888889],[0.015625,0.3888888888888889],[0.015625,0.3888888888888889],[0.015625,0.3888888888888889],[0.015625,0.3888888888888889],[0.015625,0.3888888888888889],[0.015625,0.3888888888888889],[0.015625,0.3888888888888889],[0.015625,0.3888888888888889],[0.015625,0.387037037037037],[0.015625,0.387037037037037],[0.015625,0.387037037037037],[0.015625,0.387037037037037],[0.015625,0.387037037037037],[0.015625,0.387037037037037],[0.015625,0.387037037037037],[0.015625,0.387037037037037],[0.015625,0.387037037037037],[0.015625,0.387037037037037],[0.015625,0.387037037037037],[0.015625,0.387037037037037],[0.015625,0.387037037037037],[0.015625,0.387037037037037],[0.015625,0.387037037037037],[0.015625,0.387037037037037],[0.015625,0.387037037037037],[0.015625,0.387037037037037],[0.015625,0.387037037037037],[0.015625,0.387037037037037],[0.015625,0.387037037037037],[0.015625,0.387037037037037],[0.015625,0.387037037037037]]","[[0.10343749999999995,0.0985185185185186],[0.10343749999999995,0.0985185185185186],[0.1078125,0.1],[0.1078125,0.1],[0.08885416666666662,0.09648148148148153],[0.08885416666666662,0.09648148148148153],[0.09260416666666677,0.0764814814814814],[0.09260416666666677,0.0764814814814814],[0.09572916666666677,0.055740740740740785],[0.09572916666666677,0.055740740740740785],[0.10145833333333343,0.06481481481481481],[0.10145833333333343,0.06481481481481481],[0.1009375000000001,0.08537037037037042],[0.10645833333333338,0.10574074074074079],[0.11520833333333323,0.08592592592592588],[0.11687500000000005,0.057777777777777865],[0.11677083333333324,0.05277777777777778],[0.11677083333333324,0.05277777777777778],[0.12781250000000005,0.07592592592592592],[0.12614583333333323,0.10185185185185185],[0.115625,0.13185185185185194],[0.13020833333333334,0.13259259259259262],[0.13156249999999994,0.13555555555555565],[0.12958333333333344,0.12685185185185185],[0.1256249999999999,0.13277777777777786],[0.14322916666666666,0.13222222222222219],[0.15760416666666663,0.12537037037037047],[0.1474999999999999,0.10944444444444448],[0.13739583333333344,0.09351851851851851],[0.1443749999999999,0.08851851851851844],[0.13812499999999991,0.07481481481481478],[0.14114583333333333,0.061666666666666585],[0.1671875,0.040370370370370286],[0.1929166666666667,0.0625925925925925],[0.20583333333333323,0.06351851851851843],[0.21135416666666676,0.0551851851851851],[0.2195833333333333,0.0514814814814814],[0.21666666666666667,0.07574074074074069],[0.2319791666666667,0.05759259259259263],[0.24020833333333325,0.026666666666666623],[0.2698958333333332,0.006851851851851936],[0.271875,-0.016111111111111194],[0.25812499999999994,-0.03888888888888889],[0.234375,-0.0772222222222222],[0.22770833333333323,-0.08555555555555554],[0.22770833333333323,-0.08555555555555554],[0.2071875000000001,-0.09203703703703701],[0.2071875000000001,-0.09203703703703701],[0.2071875000000001,-0.09203703703703701],[0.18354166666666671,-0.06222222222222226],[0.15833333333333333,-0.08481481481481483],[0.0896874999999999,-0.03611111111111111],[0.021041666666666715,0.012592592592592508],[-0.044375000000000026,0.05907407407407403],[-0.07739583333333329,0.03722222222222227],[-0.11468750000000003,0.040370370370370286],[-0.1560416666666666,0.03462962962962971],[-0.16156250000000003,0.018333333333333292],[-0.16010416666666671,0.01648148148148144],[-0.171875,-0.01314814814814819],[-0.1570833333333333,-0.050370370370370454],[-0.11166666666666672,-0.1427777777777778],[-0.06281249999999995,-0.21740740740740735],[-0.025416666666666643,-0.2922222222222222],[-0.021875,-0.2537037037037037],[-0.0140625,-0.24018518518518517],[0.013020833333333334,-0.2294444444444444],[0.00010416666666669035,-0.2168518518518519],[-0.0109375,-0.24018518518518517],[-0.008645833333333287,-0.26370370370370366],[-0.006562499999999953,-0.2712962962962963],[-0.005729166666666666,-0.22462962962962965],[-0.007500000000000047,-0.22999999999999998],[0.0009374999999999763,-0.2035185185185185],[0.014583333333333334,-0.20722222222222217],[0.0068750000000000235,-0.23629629629629634],[-0.000833333333333286,-0.26537037037037037],[0.003541666666666643,-0.3068518518518518],[0.008854166666666666,-0.28851851851851856],[0.024374999999999977,-0.2853703703703704],[0.03083333333333336,-0.3020370370370371],[0.0265625,-0.35759259259259263],[0.03708333333333336,-0.36518518518518517],[0.015312500000000047,-0.3725925925925926],[-0.006458333333333381,-0.38],[0.013020833333333334,-0.3683333333333333],[0.015312500000000047,-0.36148148148148146],[0.01416666666666669,-0.35537037037037034],[0.021458333333333357,-0.36500000000000005],[0.022083333333333382,-0.3661111111111111],[0.03177083333333333,-0.34740740740740744],[0.033645833333333285,-0.3164814814814814],[0.0265625,-0.30185185185185187],[0.02322916666666662,-0.2975925925925926],[0.014583333333333334,-0.2831481481481481],[-0.00927083333333331,-0.2948148148148148],[-0.01593749999999995,-0.30166666666666664],[-0.021979166666666692,-0.34388888888888886],[-0.03322916666666664,-0.35055555555555556],[-0.058437500000000024,-0.36740740740740735],[-0.06385416666666661,-0.3588888888888889],[-0.06541666666666662,-0.3638888888888889],[-0.07364583333333338,-0.36629629629629634],[-0.07291666666666667,-0.3857407407407408],[-0.05291666666666662,-0.4212962962962963],[-0.03197916666666671,-0.4214814814814815],[-0.013541666666666667,-0.4274074074074074],[-0.024374999999999977,-0.4035185185185185],[-0.025,-0.4177777777777778],[-0.0015625,-0.4368518518518518],[0.0020833333333333333,-0.4812962962962963],[0.011041666666666691,-0.5033333333333333],[0.03114583333333331,-0.5487037037037037],[0.04520833333333331,-0.5544444444444444],[0.0453125,-0.5542592592592592],[0.04041666666666662,-0.5596296296296296],[0.03802083333333333,-0.5592592592592592],[0.04562499999999995,-0.5431481481481482],[0.03697916666666667,-0.5325925925925926],[0.030312500000000023,-0.5111111111111111],[0.02364583333333338,-0.4896296296296296],[0.013645833333333357,-0.4872222222222223],[0.0013541666666666192,-0.4551851851851852],[-0.010104166666666714,-0.46703703703703703],[-0.020624999999999952,-0.48148148148148145],[-0.024479166666666666,-0.5061111111111112],[-0.02833333333333338,-0.5307407407407407],[-0.020833333333333332,-0.5424074074074073],[-0.013541666666666667,-0.5577777777777777],[-0.009583333333333381,-0.5648148148148148],[-0.005624999999999976,-0.5718518518518518],[-0.007500000000000047,-0.567037037037037],[-0.013854166666666619,-0.528888888888889],[-0.00614583333333331,-0.5127777777777778],[-0.0046875,-0.4812962962962963]]","[[0.10343749999999995,0.0985185185185186,0.00020000000019138042],[0.10343749999999995,0.0985185185185186,0.04139999999944166],[0.1078125,0.1,0.05109999999962156],[0.1078125,0.1,0.06209999999963145],[0.08885416666666662,0.09648148148148153,0.07859999999962497],[0.08885416666666662,0.09648148148148153,0.09529999999980987],[0.09260416666666677,0.0764814814814814,0.11189999999943723],[0.09260416666666677,0.0764814814814814,0.12870000000017967],[0.09572916666666677,0.055740740740740785,0.1452000000001874],[0.09572916666666677,0.055740740740740785,0.1618999999994486],[0.10145833333333343,0.06481481481481481,0.17849999999999966],[0.10145833333333343,0.06481481481481481,0.19979999999981146],[0.1009375000000001,0.08537037037037042,0.21209999999962292],[0.10645833333333338,0.10574074074074079,0.22889999999944166],[0.11520833333333323,0.08592592592592588,0.24529999999981555],[0.11687500000000005,0.057777777777777865,0.26470000000018956],[0.11677083333333324,0.05277777777777778,0.2785999999996278],[0.11677083333333324,0.05277777777777778,0.29539999999944655],[0.12781250000000005,0.07592592592592592,0.3119999999999976],[0.12614583333333323,0.10185185185185185,0.32859999999962497],[0.115625,0.13185185185185194,0.34520000000019024],[0.13020833333333334,0.13259259259259262,0.3618999999994372],[0.13156249999999994,0.13555555555555565,0.37839999999944496],[0.12958333333333344,0.12685185185185185,0.3952000000001874],[0.1256249999999999,0.13277777777777786,0.4117000000001809],[0.14322916666666666,0.13222222222222219,0.4285999999996335],[0.15760416666666663,0.12537037037037047,0.4479999999999933],[0.1474999999999999,0.10944444444444448,0.4620999999996229],[0.13739583333333344,0.09351851851851851,0.47859999999963065],[0.1443749999999999,0.08851851851851844,0.4983999999994353],[0.13812499999999991,0.07481481481481478,0.5147999999998092],[0.14114583333333333,0.061666666666666585,0.5287000000001854],[0.1671875,0.040370370370370286,0.5453999999994465],[0.1929166666666667,0.0625925925925925,0.5649999999999977],[0.20583333333333323,0.06351851851851843,0.5800999999996321],[0.21135416666666676,0.0551851851851851,0.5953999999994437],[0.2195833333333333,0.0514814814814814,0.6119999999999948],[0.21666666666666667,0.07574074074074069,0.632000000000005],[0.2319791666666667,0.05759259259259263,0.6482999999998071],[0.24020833333333325,0.026666666666666623,0.6622999999998171],[0.2698958333333332,0.006851851851851936,0.6825000000000045],[0.271875,-0.016111111111111194,0.6985999999996295],[0.25812499999999994,-0.03888888888888889,0.7125000000000057],[0.234375,-0.0772222222222222,0.7287999999998078],[0.22770833333333323,-0.08555555555555554,0.7585999999996318],[0.22770833333333323,-0.08555555555555554,0.7787999999998192],[0.2071875000000001,-0.09203703703703701,0.7992000000001838],[0.2071875000000001,-0.09203703703703701,0.8062000000001888],[0.2071875000000001,-0.09203703703703701,0.8118999999994401],[0.18354166666666671,-0.06222222222222226,0.8315999999996251],[0.15833333333333333,-0.08481481481481483,0.847099999999628],[0.0896874999999999,-0.03611111111111111,0.8620999999996286],[0.021041666666666715,0.012592592592592508,0.8785999999996221],[-0.044375000000000026,0.05907407407407403,0.89809999999963],[-0.07739583333333329,0.03722222222222227,0.9142999999998125],[-0.11468750000000003,0.040370370370370286,0.928700000000191],[-0.1560416666666666,0.03462962962962971,0.9452000000001846],[-0.16156250000000003,0.018333333333333292,0.9620000000000033],[-0.16010416666666671,0.01648148148148144,0.9785999999996307],[-0.171875,-0.01314814814814819,0.9952999999998156],[-0.1570833333333333,-0.050370370370370454,1.014299999999821],[-0.11166666666666672,-0.1427777777777778,1.0287999999998192],[-0.06281249999999995,-0.21740740740740735,1.0472000000001884],[-0.025416666666666643,-0.2922222222222222,1.0652999999998087],[-0.021875,-0.2537037037037037,1.0810999999996227],[-0.0140625,-0.24018518518518517,1.097399999999439],[0.013020833333333334,-0.2294444444444444,1.1120999999996286],[0.00010416666666669035,-0.2168518518518519,1.1315999999996222],[-0.0109375,-0.24018518518518517,1.1472000000001827],[-0.008645833333333287,-0.26370370370370366,1.1622000000001833],[-0.006562499999999953,-0.2712962962962963,1.1785999999996335],[-0.005729166666666666,-0.22462962962962965,1.1978999999994357],[-0.007500000000000047,-0.22999999999999998,1.211799999999812],[0.0009374999999999763,-0.2035185185185185,1.2285999999996307],[0.014583333333333334,-0.20722222222222217,1.2450999999996242],[0.0068750000000000235,-0.23629629629629634,1.2620000000000005],[-0.000833333333333286,-0.26537037037037037,1.2785999999996278],[0.003541666666666643,-0.3068518518518518,1.2952999999998127],[0.008854166666666666,-0.28851851851851856,1.3117999999998204],[0.024374999999999977,-0.2853703703703704,1.328599999999625],[0.03083333333333336,-0.3020370370370371,1.3452000000001902],[0.0265625,-0.35759259259259263,1.3618999999994372],[0.03708333333333336,-0.36518518518518517,1.3785000000000025],[0.015312500000000047,-0.3725925925925926,1.395299999999807],[-0.006458333333333381,-0.38,1.4117999999998148],[0.013020833333333334,-0.3683333333333333,1.4285999999996335],[0.015312500000000047,-0.36148148148148146,1.4475000000000051],[0.01416666666666669,-0.35537037037037034,1.4622000000001805],[0.021458333333333357,-0.36500000000000005,1.4787000000001882],[0.022083333333333382,-0.3661111111111111,1.4952000000001817],[0.03177083333333333,-0.34740740740740744,1.514299999999821],[0.033645833333333285,-0.3164814814814814,1.5285999999996278],[0.0265625,-0.30185185185185187,1.545200000000193],[0.02322916666666662,-0.2975925925925926,1.5619999999999976],[0.014583333333333334,-0.2831481481481481,1.5808999999994455],[-0.00927083333333331,-0.2948148148148148,1.5952999999998099],[-0.01593749999999995,-0.30166666666666664,1.6119999999999948],[-0.021979166666666692,-0.34388888888888886,1.6317000000001798],[-0.03322916666666664,-0.35055555555555556,1.6472000000001827],[-0.058437500000000024,-0.36740740740740735,1.6620000000000061],[-0.06385416666666661,-0.3588888888888889,1.6820999999996218],[-0.06541666666666662,-0.3638888888888889,1.6984999999999957],[-0.07364583333333338,-0.36629629629629634,1.713899999999441],[-0.07291666666666667,-0.3857407407407408,1.7335000000000065],[-0.05291666666666662,-0.4212962962962963,1.7487000000001842],[-0.03197916666666671,-0.4214814814814815,1.761899999999443],[-0.013541666666666667,-0.4274074074074074,1.7783999999994364],[-0.024374999999999977,-0.4035185185185185,1.796700000000186],[-0.025,-0.4177777777777778,1.81189999999944],[-0.0015625,-0.4368518518518518,1.8285000000000053],[0.0020833333333333333,-0.4812962962962963,1.8450999999996327],[0.011041666666666691,-0.5033333333333333,1.8620999999996286],[0.03114583333333331,-0.5487037037037037,1.8815999999996222],[0.04520833333333331,-0.5544444444444444,1.8970999999996252],[0.0453125,-0.5542592592592592,1.911700000000181],[0.04041666666666662,-0.5596296296296296,1.9285999999996335],[0.03802083333333333,-0.5592592592592592,1.945099999999627],[0.04562499999999995,-0.5431481481481482,1.9618999999994458],[0.03697916666666667,-0.5325925925925926,1.9784999999999968],[0.030312500000000023,-0.5111111111111111,1.9955999999996266],[0.02364583333333338,-0.4896296296296296,2.011799999999809],[0.013645833333333357,-0.4872222222222223,2.028599999999628],[0.0013541666666666192,-0.4551851851851852,2.0450999999996213],[-0.010104166666666714,-0.46703703703703703,2.06189999999944],[-0.020624999999999952,-0.48148148148148145,2.0785000000000053],[-0.024479166666666666,-0.5061111111111112,2.0982000000001904],[-0.02833333333333338,-0.5307407407407407,2.1117999999998176],[-0.020833333333333332,-0.5424074074074073,2.1285000000000025],[-0.013541666666666667,-0.5577777777777777,2.145399999999441],[-0.009583333333333381,-0.5648148148148148,2.164500000000004],[-0.005624999999999976,-0.5718518518518518,2.182399999999447],[-0.007500000000000047,-0.567037037037037,2.1988999999994405],[-0.013854166666666619,-0.528888888888889,2.215999999999994],[-0.00614583333333331,-0.5127777777777778,2.2309999999999945],[-0.0046875,-0.4812962962962963,2.2480000000000047]]","[0.00020000000019138042,0.04139999999944166,0.05109999999962156,0.06209999999963145,0.07859999999962497,0.09529999999980987,0.11189999999943723,0.12870000000017967,0.1452000000001874,0.1618999999994486,0.17849999999999966,0.19979999999981146,0.21209999999962292,0.22889999999944166,0.24529999999981555,0.26470000000018956,0.2785999999996278,0.29539999999944655,0.3119999999999976,0.32859999999962497,0.34520000000019024,0.3618999999994372,0.37839999999944496,0.3952000000001874,0.4117000000001809,0.4285999999996335,0.4479999999999933,0.4620999999996229,0.47859999999963065,0.4983999999994353,0.5147999999998092,0.5287000000001854,0.5453999999994465,0.5649999999999977,0.5800999999996321,0.5953999999994437,0.6119999999999948,0.632000000000005,0.6482999999998071,0.6622999999998171,0.6825000000000045,0.6985999999996295,0.7125000000000057,0.7287999999998078,0.7585999999996318,0.7787999999998192,0.7992000000001838,0.8062000000001888,0.8118999999994401,0.8315999999996251,0.847099999999628,0.8620999999996286,0.8785999999996221,0.89809999999963,0.9142999999998125,0.928700000000191,0.9452000000001846,0.9620000000000033,0.9785999999996307,0.9952999999998156,1.014299999999821,1.0287999999998192,1.0472000000001884,1.0652999999998087,1.0810999999996227,1.097399999999439,1.1120999999996286,1.1315999999996222,1.1472000000001827,1.1622000000001833,1.1785999999996335,1.1978999999994357,1.211799999999812,1.2285999999996307,1.2450999999996242,1.2620000000000005,1.2785999999996278,1.2952999999998127,1.3117999999998204,1.328599999999625,1.3452000000001902,1.3618999999994372,1.3785000000000025,1.395299999999807,1.4117999999998148,1.4285999999996335,1.4475000000000051,1.4622000000001805,1.4787000000001882,1.4952000000001817,1.514299999999821,1.5285999999996278,1.545200000000193,1.5619999999999976,1.5808999999994455,1.5952999999998099,1.6119999999999948,1.6317000000001798,1.6472000000001827,1.6620000000000061,1.6820999999996218,1.6984999999999957,1.713899999999441,1.7335000000000065,1.7487000000001842,1.761899999999443,1.7783999999994364,1.796700000000186,1.81189999999944,1.8285000000000053,1.8450999999996327,1.8620999999996286,1.8815999999996222,1.8970999999996252,1.911700000000181,1.9285999999996335,1.945099999999627,1.9618999999994458,1.9784999999999968,1.9955999999996266,2.011799999999809,2.028599999999628,2.0450999999996213,2.06189999999944,2.0785000000000053,2.0982000000001904,2.1117999999998176,2.1285000000000025,2.145399999999441,2.164500000000004,2.182399999999447,2.1988999999994405,2.215999999999994,2.2309999999999945,2.2480000000000047]","[1733118020686,1733118020720,1733118020730,1733118020740,1733118020757,1733118020774,1733118020790,1733118020807,1733118020824,1733118020840,1733118020857,1733118020878,1733118020890,1733118020907,1733118020924,1733118020943,1733118020957,1733118020974,1733118020990,1733118021007,1733118021024,1733118021040,1733118021057,1733118021074,1733118021090,1733118021107,1733118021126,1733118021140,1733118021157,1733118021177,1733118021193,1733118021207,1733118021224,1733118021243,1733118021258,1733118021274,1733118021290,1733118021310,1733118021327,1733118021341,1733118021361,1733118021377,1733118021391,1733118021407,1733118021437,1733118021457,1733118021478,1733118021485,1733118021490,1733118021510,1733118021525,1733118021540,1733118021557,1733118021576,1733118021593,1733118021607,1733118021624,1733118021640,1733118021657,1733118021674,1733118021693,1733118021707,1733118021725,1733118021744,1733118021760,1733118021776,1733118021790,1733118021810,1733118021825,1733118021841,1733118021857,1733118021876,1733118021890,1733118021907,1733118021924,1733118021940,1733118021957,1733118021974,1733118021990,1733118022007,1733118022024,1733118022040,1733118022057,1733118022074,1733118022090,1733118022107,1733118022126,1733118022141,1733118022157,1733118022174,1733118022193,1733118022207,1733118022224,1733118022240,1733118022259,1733118022274,1733118022290,1733118022310,1733118022326,1733118022340,1733118022360,1733118022377,1733118022392,1733118022412,1733118022427,1733118022440,1733118022457,1733118022475,1733118022490,1733118022507,1733118022523,1733118022540,1733118022560,1733118022575,1733118022590,1733118022607,1733118022623,1733118022640,1733118022657,1733118022674,1733118022690,1733118022707,1733118022723,1733118022740,1733118022757,1733118022777,1733118022790,1733118022807,1733118022824,1733118022843,1733118022861,1733118022877,1733118022894,1733118022909,1733118022926]","[[1059.3,593.2],[1059.3,593.2],[1063.5,594],[1063.5,594],[1045.3,592.1],[1045.3,592.1],[1048.9,581.3],[1048.9,581.3],[1051.9,570.1],[1051.9,570.1],[1057.4,575],[1057.4,575],[1056.9,586.1],[1062.2,597.1],[1070.6,586.4],[1072.2,571.2],[1072.1,568.5],[1072.1,568.5],[1082.7,581],[1081.1,595],[1071,611.2],[1085,611.6],[1086.3,613.2],[1084.4,608.5],[1080.6,611.7],[1097.5,611.4],[1111.3,607.7],[1101.6,599.1],[1091.9,590.5],[1098.6,587.8],[1092.6,580.4],[1095.5,573.3],[1120.5,561.8],[1145.2,573.8],[1157.6,574.3],[1162.9,569.8],[1170.8,567.8],[1168,580.9],[1182.7,571.1],[1190.6,554.4],[1219.1,543.7],[1221,531.3],[1207.8,519],[1185,498.3],[1178.6,493.8],[1178.6,493.8],[1158.9,490.3],[1158.9,490.3],[1158.9,490.3],[1136.2,506.4],[1112,494.2],[1046.1,520.5],[980.2,546.8],[917.4,571.9],[885.7,560.1],[849.9,561.8],[810.2,558.7],[804.9,549.9],[806.3,548.9],[795,532.9],[809.2,512.8],[852.8,462.9],[899.7,422.6],[935.6,382.2],[939,403],[946.5,410.3],[972.5,416.1],[960.1,422.9],[949.5,410.3],[951.7,397.6],[953.7,393.5],[954.5,418.7],[952.8,415.8],[960.9,430.1],[974,428.1],[966.6,412.4],[959.2,396.7],[963.4,374.3],[968.5,384.2],[983.4,385.9],[989.6,376.9],[985.5,346.9],[995.6,342.8],[974.7,338.8],[953.8,334.8],[972.5,341.1],[974.7,344.8],[973.6,348.1],[980.6,342.9],[981.2,342.3],[990.5,352.4],[992.3,369.1],[985.5,377],[982.3,379.3],[974,387.1],[951.1,380.8],[944.7,377.1],[938.9,354.3],[928.1,350.7],[903.9,341.6],[898.7,346.2],[897.2,343.5],[889.3,342.2],[890,331.7],[909.2,312.5],[929.3,312.4],[947,309.2],[936.6,322.1],[936,314.4],[958.5,304.1],[962,280.1],[970.6,268.2],[989.9,243.7],[1003.4,240.6],[1003.5,240.7],[998.8,237.8],[996.5,238],[1003.8,246.7],[995.5,252.4],[989.1,264],[982.7,275.6],[973.1,276.9],[961.3,294.2],[950.3,287.8],[940.2,280],[936.5,266.7],[932.8,253.4],[940,247.1],[947,238.8],[950.8,235],[954.6,231.2],[952.8,233.8],[946.7,254.4],[954.1,263.1],[955.5,280.1]]","[0,0.37864299999999995]","[0.37864299999999995,0.37864299999999995]","[-0.37864299999999995,0]","[-0.37864299999999995,-0.37864299999999995]","[0,0]","[0.37864299999999995,0]","[0,-0.37864299999999995]","[0.37864299999999995,-0.37864299999999995]",0,0,0,0,1,3,Laptop,11,9,9,1
,,,,,,,,,,,,,,,,,,,46,001,2024-12-02_13h39.44.376,Attention_exp_legacy,2023.1.0,Win32,59.88023952,,,,,,,,,,,[0.29791666666666666],[0.3277777777777778],[1],[0],[0],[1.4003000000007404],"[""Option2_label""]",Option2_label,2,2.4161,"[[0.015625,0.387037037037037],[0.015625,0.387037037037037],[0.015625,0.387037037037037],[0.015625,0.387037037037037],[0.015625,0.387037037037037],[0.015625,0.387037037037037],[0.015625,0.387037037037037],[0.015625,0.387037037037037],[0.015625,0.387037037037037],[0.015625,0.387037037037037],[0.015625,0.387037037037037],[0.015625,0.387037037037037],[0.015625,0.387037037037037],[0.015625,0.387037037037037],[0.015625,0.387037037037037],[0.015625,0.387037037037037],[0.015625,0.387037037037037],[0.015625,0.387037037037037],[0.015625,0.387037037037037],[0.015625,0.387037037037037],[0.015625,0.387037037037037],[0.015625,0.387037037037037],[0.015625,0.387037037037037],[0.015625,0.387037037037037],[0.015625,0.387037037037037],[0.015625,0.387037037037037],[0.015625,0.387037037037037],[0.015625,0.387037037037037],[0.015625,0.387037037037037],[0.015625,0.387037037037037],[0.015625,0.387037037037037],[0.015625,0.387037037037037],[0.015625,0.387037037037037],[0.015625,0.387037037037037],[0.015625,0.387037037037037],[0.015625,0.387037037037037],[0.015625,0.387037037037037],[0.015625,0.387037037037037],[0.015625,0.387037037037037],[0.015625,0.387037037037037],[0.015625,0.387037037037037],[0.015625,0.387037037037037],[0.015625,0.387037037037037],[0.015625,0.387037037037037],[0.015625,0.387037037037037],[0.015625,0.387037037037037],[0.015625,0.387037037037037],[0.015625,0.387037037037037],[0.015625,0.387037037037037],[0.015625,0.387037037037037],[0.015625,0.387037037037037],[0.015625,0.387037037037037],[0.015625,0.387037037037037],[0.015625,0.387037037037037],[0.015625,0.387037037037037],[0.015625,0.387037037037037],[0.015625,0.387037037037037],[0.015625,0.387037037037037],[0.015625,0.387037037037037],[0.015625,0.387037037037037],[0.015625,0.387037037037037],[0.015625,0.387037037037037],[0.016666666666666666,0.3851851851851852],[0.03333333333333333,0.37592592592592594],[0.0625,0.3611111111111111],[0.103125,0.34814814814814815],[0.14895833333333333,0.3351851851851852],[0.19270833333333334,0.32222222222222224],[0.221875,0.31851851851851853],[0.24791666666666667,0.3111111111111111],[0.25416666666666665,0.30925925925925923],[0.25625,0.30925925925925923],[0.2604166666666667,0.30925925925925923],[0.2625,0.30925925925925923],[0.26458333333333334,0.30925925925925923],[0.26875,0.3111111111111111],[0.27395833333333336,0.3111111111111111],[0.278125,0.31296296296296294],[0.28229166666666666,0.31666666666666665],[0.2864583333333333,0.32037037037037036],[0.290625,0.32037037037037036],[0.29375,0.32407407407407407],[0.29583333333333334,0.32592592592592595],[0.29791666666666666,0.3277777777777778],[0.29791666666666666,0.3277777777777778],[0.2989583333333333,0.3277777777777778],[0.3,0.3296296296296296],[0.3,0.3296296296296296],[0.3,0.3296296296296296],[0.3,0.3296296296296296],[0.3,0.3296296296296296],[0.3,0.3296296296296296],[0.3,0.3296296296296296],[0.3,0.3296296296296296],[0.3,0.3296296296296296],[0.3,0.3296296296296296],[0.3,0.3296296296296296],[0.3,0.3296296296296296],[0.3,0.3296296296296296],[0.3,0.3296296296296296],[0.3,0.3296296296296296],[0.3,0.3296296296296296],[0.3,0.3296296296296296],[0.3,0.3296296296296296],[0.3,0.3296296296296296],[0.3,0.3296296296296296],[0.3,0.3296296296296296],[0.3,0.3296296296296296],[0.3,0.3296296296296296],[0.3,0.3296296296296296],[0.3,0.3296296296296296],[0.3,0.3296296296296296],[0.3,0.3296296296296296],[0.3,0.3296296296296296],[0.3,0.3296296296296296],[0.3,0.3296296296296296],[0.3,0.3296296296296296],[0.3,0.3296296296296296],[0.3,0.3296296296296296],[0.3,0.3296296296296296],[0.3,0.3296296296296296],[0.3,0.3296296296296296],[0.3,0.3296296296296296],[0.3,0.3296296296296296],[0.3,0.3296296296296296],[0.3,0.3296296296296296],[0.3,0.3296296296296296],[0.3,0.3296296296296296],[0.3,0.3296296296296296],[0.3,0.3296296296296296],[0.3,0.3296296296296296],[0.3,0.3296296296296296],[0.3,0.3296296296296296],[0.3,0.3296296296296296],[0.3,0.3296296296296296],[0.3,0.3296296296296296],[0.3,0.3296296296296296],[0.3,0.3296296296296296],[0.3,0.3296296296296296],[0.3,0.3296296296296296],[0.3,0.3296296296296296],[0.3,0.3296296296296296],[0.3,0.3296296296296296],[0.3,0.3296296296296296],[0.3,0.3296296296296296],[0.3,0.3296296296296296]]","[[0.01906249999999995,-0.25092592592592594],[0.014791666666666713,-0.27629629629629626],[0.016666666666666666,-0.3175925925925926],[0.01854166666666662,-0.3588888888888889],[0.02833333333333338,-0.35537037037037034],[0.029999999999999954,-0.34685185185185186],[0.03333333333333333,-0.33666666666666667],[0.036666666666666715,-0.3264814814814815],[0.05291666666666662,-0.3264814814814815],[0.06916666666666677,-0.3264814814814815],[0.07260416666666672,-0.3424074074074074],[0.06906249999999996,-0.334074074074074],[0.06843750000000005,-0.30648148148148147],[0.05802083333333338,-0.3118518518518518],[0.04593750000000003,-0.3375925925925926],[0.0359375,-0.37648148148148153],[0.04458333333333329,-0.39944444444444444],[0.05322916666666669,-0.42240740740740745],[0.03697916666666667,-0.40981481481481485],[0.020729166666666642,-0.3972222222222222],[0.0234375,-0.39092592592592595],[0.03312499999999995,-0.4088888888888889],[0.035312499999999976,-0.43037037037037035],[0.04729166666666664,-0.41888888888888887],[0.05916666666666662,-0.3979629629629629],[0.07104166666666671,-0.37703703703703706],[0.08583333333333343,-0.3875925925925926],[0.08229166666666667,-0.3888888888888889],[0.07666666666666658,-0.35907407407407405],[0.07104166666666671,-0.3292592592592593],[0.07239583333333334,-0.32629629629629625],[0.07374999999999995,-0.32333333333333336],[0.08354166666666671,-0.27907407407407403],[0.09166666666666666,-0.2485185185185185],[0.09989583333333343,-0.22740740740740742],[0.1109375,-0.23962962962962958],[0.10989583333333333,-0.23111111111111113],[0.10791666666666658,-0.22000000000000003],[0.12927083333333325,-0.2512962962962963],[0.14552083333333338,-0.2874074074074074],[0.15333333333333338,-0.3001851851851852],[0.16114583333333338,-0.31296296296296294],[0.17302083333333323,-0.3594444444444445],[0.1865624999999999,-0.39222222222222225],[0.1806250000000001,-0.3622222222222223],[0.171875,-0.29888888888888887],[0.17374999999999996,-0.27037037037037037],[0.19583333333333333,-0.2803703703703703],[0.20895833333333325,-0.2577777777777778],[0.20895833333333325,-0.2577777777777778],[0.2271874999999999,-0.23037037037037034],[0.21687500000000004,-0.2014814814814815],[0.21979166666666666,-0.18314814814814812],[0.21770833333333334,-0.16888888888888887],[0.22947916666666662,-0.17629629629629628],[0.2634375000000001,-0.2351851851851852],[0.2677083333333333,-0.2692592592592592],[0.2568749999999999,-0.2770370370370371],[0.2526041666666667,-0.24240740740740738],[0.23104166666666662,-0.2740740740740741],[0.20947916666666658,-0.30574074074074076],[0.2193749999999999,-0.32703703703703707],[0.21604166666666677,-0.33777777777777773],[0.19281249999999991,-0.34314814814814815],[0.16302083333333334,-0.3287037037037037],[0.14260416666666675,-0.33185185185185184],[0.14260416666666675,-0.36740740740740735],[0.13541666666666666,-0.3998148148148148],[0.12312500000000005,-0.3761111111111112],[0.13989583333333327,-0.3727777777777778],[0.14593749999999991,-0.3744444444444444],[0.14479166666666668,-0.3642592592592592],[0.13802083333333334,-0.3594444444444445],[0.1622916666666666,-0.35185185185185186],[0.17833333333333337,-0.36870370370370376],[0.18229166666666666,-0.3792592592592593],[0.1993750000000001,-0.3588888888888889],[0.21645833333333328,-0.33851851851851855],[0.23510416666666673,-0.36277777777777775],[0.2412499999999999,-0.36259259259259263],[0.2535416666666668,-0.3492592592592593],[0.2573958333333332,-0.34222222222222226],[0.2708333333333333,-0.3542592592592593],[0.2453125,-0.3588888888888889],[0.22489583333333343,-0.3303703703703703],[0.22489583333333343,-0.3303703703703703],[0.23395833333333324,-0.30185185185185187],[0.23916666666666658,-0.29666666666666663],[0.23989583333333328,-0.29500000000000004],[0.23666666666666672,-0.3205555555555556],[0.23729166666666662,-0.3307407407407408],[0.24249999999999997,-0.3490740740740741],[0.2490624999999999,-0.3646296296296296],[0.2490624999999999,-0.3646296296296296],[0.2508333333333333,-0.3464814814814815],[0.2763541666666666,-0.35333333333333333],[0.30104166666666665,-0.3668518518518519],[0.29625000000000007,-0.3803703703703703],[0.30322916666666655,-0.3881481481481482],[0.3146874999999999,-0.39240740740740737],[0.3109375,-0.39222222222222225],[0.30791666666666656,-0.38259259259259265],[0.29927083333333326,-0.3798148148148149],[0.29927083333333326,-0.3798148148148149],[0.2886458333333332,-0.37648148148148153],[0.2886458333333332,-0.37648148148148153],[0.2886458333333332,-0.37648148148148153],[0.29874999999999996,-0.3646296296296296],[0.29874999999999996,-0.3646296296296296],[0.29812500000000003,-0.3453703703703704],[0.29812500000000003,-0.3453703703703704],[0.2982291666666666,-0.36203703703703705],[0.2982291666666666,-0.36203703703703705],[0.3046875,-0.31870370370370377],[0.3046875,-0.31870370370370377],[0.29375,-0.3131481481481482],[0.29375,-0.3131481481481482],[0.27677083333333335,-0.2814814814814815],[0.28322916666666675,-0.2505555555555556],[0.28968749999999993,-0.21962962962962967],[0.30020833333333335,-0.23407407407407405],[0.3081249999999999,-0.2485185185185185],[0.3009375000000001,-0.26425925925925925],[0.3117708333333333,-0.28166666666666673],[0.3067708333333333,-0.2448148148148148],[0.28010416666666677,-0.27518518518518525],[0.2608333333333334,-0.28351851851851856],[0.24604166666666671,-0.30333333333333334],[0.2359375,-0.3285185185185185],[0.21572916666666658,-0.37351851851851847],[0.20364583333333333,-0.3396296296296296],[0.21041666666666667,-0.32037037037037036],[0.21239583333333342,-0.3175925925925926],[0.20343749999999997,-0.33648148148148144],[0.20625,-0.3738888888888888],[0.2243750000000001,-0.40407407407407403],[0.2334374999999999,-0.38055555555555554],[0.24406249999999996,-0.37166666666666665],[0.2430208333333333,-0.3642592592592592],[0.2560416666666666,-0.33129629629629626],[0.2560416666666666,-0.33129629629629626],[0.2663541666666667,-0.3394444444444445],[0.25541666666666674,-0.3479629629629629],[0.24447916666666672,-0.35648148148148145],[0.25,-0.31666666666666665],[0.2555208333333333,-0.27685185185185185]]","[[0.01906249999999995,-0.25092592592592594,0.00020000000019138042],[0.014791666666666713,-0.27629629629629626,0.018799999999814077],[0.016666666666666666,-0.3175925925925926,0.03350000000000364],[0.01854166666666662,-0.3588888888888889,0.04950000000000898],[0.02833333333333338,-0.35537037037037034,0.06620000000019388],[0.029999999999999954,-0.34685185185185186,0.08279999999982124],[0.03333333333333333,-0.33666666666666667,0.09959999999962577],[0.036666666666666715,-0.3264814814814815,0.11700000000000443],[0.05291666666666662,-0.3264814814814815,0.13299999999999557],[0.06916666666666677,-0.3264814814814815,0.15159999999963247],[0.07260416666666672,-0.3424074074074074,0.16629999999982203],[0.06906249999999996,-0.334074074074074,0.1829000000003731],[0.06843750000000005,-0.30648148148148147,0.19970000000019184],[0.05802083333333338,-0.3118518518518518,0.21620000000018536],[0.04593750000000003,-0.3375925925925926,0.23290000000037026],[0.0359375,-0.37648148148148153,0.2494999999999976],[0.04458333333333329,-0.39944444444444444,0.26629999999981635],[0.05322916666666669,-0.42240740740740745,0.2829000000003816],[0.03697916666666667,-0.40981481481481485,0.2995999999996286],[0.020729166666666642,-0.3972222222222222,0.3162000000001939],[0.0234375,-0.39092592592592595,0.3329000000003788],[0.03312499999999995,-0.4088888888888889,0.34950000000000614],[0.035312499999999976,-0.43037037037037035,0.36629999999981067],[0.04729166666666664,-0.41888888888888887,0.38290000000037594],[0.05916666666666662,-0.3979629629629629,0.3995000000000033],[0.07104166666666671,-0.37703703703703706,0.41609999999963065],[0.08583333333333343,-0.3875925925925926,0.4329000000003731],[0.08229166666666667,-0.3888888888888889,0.44950000000000045],[0.07666666666666658,-0.35907407407407405,0.4662999999998192],[0.07104166666666671,-0.3292592592592593,0.48290000000037026],[0.07239583333333334,-0.32629629629629625,0.49959999999963145],[0.07374999999999995,-0.32333333333333336,0.5162999999998164],[0.08354166666666671,-0.27907407407407403,0.535200000000188],[0.09166666666666666,-0.2485185185185185,0.54979999999982],[0.09989583333333343,-0.22740740740740742,0.5662999999998135],[0.1109375,-0.23962962962962958,0.5829000000003788],[0.10989583333333333,-0.23111111111111113,0.5995999999996258],[0.10791666666666658,-0.22000000000000003,0.6182000000001864],[0.12927083333333325,-0.2512962962962963,0.633200000000187],[0.14552083333333338,-0.2874074074074074,0.6495000000000033],[0.15333333333333338,-0.3001851851851852,0.6662000000001882],[0.16114583333333338,-0.31296296296296294,0.6827999999998156],[0.17302083333333323,-0.3594444444444445,0.6995999999996343],[0.1865624999999999,-0.39222222222222225,0.7162000000001854],[0.1806250000000001,-0.3622222222222223,0.7349000000003798],[0.171875,-0.29888888888888887,0.7494999999999976],[0.17374999999999996,-0.27037037037037037,0.7662000000001825],[0.19583333333333333,-0.2803703703703703,0.7827999999998099],[0.20895833333333325,-0.2577777777777778,0.7995999999996286],[0.20895833333333325,-0.2577777777777778,0.8162000000001939],[0.2271874999999999,-0.23037037037037034,0.8330999999996322],[0.21687500000000004,-0.2014814814814815,0.8495000000000061],[0.21979166666666666,-0.18314814814814812,0.8662999999998107],[0.21770833333333334,-0.16888888888888887,0.8829000000003759],[0.22947916666666662,-0.17629629629629628,0.8995999999996371],[0.2634375000000001,-0.2351851851851852,0.9162000000001882],[0.2677083333333333,-0.2692592592592592,0.9359000000003732],[0.2568749999999999,-0.2770370370370371,0.9525000000000006],[0.2526041666666667,-0.24240740740740738,0.9684000000003721],[0.23104166666666662,-0.2740740740740741,0.9830000000000041],[0.20947916666666658,-0.30574074074074076,0.9995999999996315],[0.2193749999999999,-0.32703703703703707,1.016099999999625],[0.21604166666666677,-0.33777777777777773,1.0352999999998218],[0.19281249999999991,-0.34314814814814815,1.0495999999996286],[0.16302083333333334,-0.3287037037037037,1.066400000000371],[0.14260416666666675,-0.33185185185185184,1.0862999999998095],[0.14260416666666675,-0.36740740740740735,1.100999999999999],[0.13541666666666666,-0.3998148148148148,1.1164000000003682],[0.12312500000000005,-0.3761111111111112,1.1367000000001894],[0.13989583333333327,-0.3727777777777778,1.1535000000000082],[0.14593749999999991,-0.3744444444444444,1.1689000000003773],[0.14479166666666668,-0.3642592592592592,1.183000000000007],[0.13802083333333334,-0.3594444444444445,1.2019000000003786],[0.1622916666666666,-0.35185185185185186,1.2164000000003767],[0.17833333333333337,-0.36870370370370376,1.2347000000001884],[0.18229166666666666,-0.3792592592592593,1.253099999999634],[0.1993750000000001,-0.3588888888888889,1.2677999999998093],[0.21645833333333328,-0.33851851851851855,1.2832000000001926],[0.23510416666666673,-0.36277777777777775,1.3017000000001957],[0.2412499999999999,-0.36259259259259263,1.316400000000371],[0.2535416666666668,-0.3492592592592593,1.3347000000001827],[0.2573958333333332,-0.34222222222222226,1.353799999999822],[0.2708333333333333,-0.3542592592592593,1.3694000000003683],[0.2453125,-0.3588888888888889,1.3857000000001847],[0.22489583333333343,-0.3303703703703703,1.4024000000003696],[0.22489583333333343,-0.3303703703703703,1.4164000000003796],[0.23395833333333324,-0.30185185185185187,1.4330999999996266],[0.23916666666666658,-0.29666666666666663,1.452099999999632],[0.23989583333333328,-0.29500000000000004,1.4665999999996302],[0.23666666666666672,-0.3205555555555556,1.4827999999998127],[0.23729166666666662,-0.3307407407407408,1.5019000000003757],[0.24249999999999997,-0.3490740740740741,1.5190000000000055],[0.2490624999999999,-0.3646296296296296,1.5397000000001952],[0.2490624999999999,-0.3646296296296296,1.549500000000009],[0.2508333333333333,-0.3464814814814815,1.5665000000000049],[0.2763541666666666,-0.35333333333333333,1.58559999999963],[0.30104166666666665,-0.3668518518518519,1.6017999999998125],[0.29625000000000007,-0.3803703703703703,1.6164000000003682],[0.30322916666666655,-0.3881481481481482,1.6352000000001823],[0.3146874999999999,-0.39240740740740737,1.6495000000000033],[0.3109375,-0.39222222222222225,1.6662000000001882],[0.30791666666666656,-0.38259259259259265,1.6827999999998156],[0.29927083333333326,-0.3798148148148149,1.6997999999998115],[0.29927083333333326,-0.3798148148148149,1.7387000000001933],[0.2886458333333332,-0.37648148148148153,1.7587999999998232],[0.2886458333333332,-0.37648148148148153,1.7652999999998116],[0.2886458333333332,-0.37648148148148153,1.7759999999999962],[0.29874999999999996,-0.3646296296296296,1.7829000000003816],[0.29874999999999996,-0.3646296296296296,1.7999000000003775],[0.29812500000000003,-0.3453703703703704,1.8162000000001939],[0.29812500000000003,-0.3453703703703704,1.8329000000003788],[0.2982291666666666,-0.36203703703703705,1.8497000000001833],[0.2982291666666666,-0.36203703703703705,1.866200000000191],[0.3046875,-0.31870370370370377,1.882900000000376],[0.3046875,-0.31870370370370377,1.8995999999996371],[0.29375,-0.3131481481481482,1.9162000000001882],[0.29375,-0.3131481481481482,1.933000000000007],[0.27677083333333335,-0.2814814814814815,1.9495000000000005],[0.28322916666666675,-0.2505555555555556,1.9662999999998192],[0.28968749999999993,-0.21962962962962967,1.9827999999998127],[0.30020833333333335,-0.23407407407407405,1.9995999999996315],[0.3081249999999999,-0.2485185185185185,2.016400000000374],[0.3009375000000001,-0.26425925925925925,2.0330000000000013],[0.3117708333333333,-0.28166666666666673,2.0495999999996286],[0.3067708333333333,-0.2448148148148148,2.0662999999998135],[0.28010416666666677,-0.27518518518518525,2.0827999999998212],[0.2608333333333334,-0.28351851851851856,2.0995999999996258],[0.24604166666666671,-0.30333333333333334,2.1160999999996335],[0.2359375,-0.3285185185185185,2.132900000000376],[0.21572916666666658,-0.37351851851851847,2.1495000000000033],[0.20364583333333333,-0.3396296296296296,2.166299999999822],[0.21041666666666667,-0.32037037037037036,2.1852000000001937],[0.21239583333333342,-0.3175925925925926,2.199700000000192],[0.20343749999999997,-0.33648148148148144,2.216099999999628],[0.20625,-0.3738888888888888,2.233000000000004],[0.2243750000000001,-0.40407407407407403,2.2494999999999976],[0.2334374999999999,-0.38055555555555554,2.2662000000001825],[0.24406249999999996,-0.37166666666666665,2.28279999999981],[0.2430208333333333,-0.3642592592592592,2.2995999999996286],[0.2560416666666666,-0.33129629629629626,2.319700000000182],[0.2560416666666666,-0.33129629629629626,2.332900000000379],[0.2663541666666667,-0.3394444444444445,2.3494000000003723],[0.25541666666666674,-0.3479629629629629,2.366200000000191],[0.24447916666666672,-0.35648148148148145,2.3827999999998184],[0.25,-0.31666666666666665,2.3997000000001947],[0.2555208333333333,-0.27685185185185185,2.4160999999996307]]","[0.00020000000019138042,0.018799999999814077,0.03350000000000364,0.04950000000000898,0.06620000000019388,0.08279999999982124,0.09959999999962577,0.11700000000000443,0.13299999999999557,0.15159999999963247,0.16629999999982203,0.1829000000003731,0.19970000000019184,0.21620000000018536,0.23290000000037026,0.2494999999999976,0.26629999999981635,0.2829000000003816,0.2995999999996286,0.3162000000001939,0.3329000000003788,0.34950000000000614,0.36629999999981067,0.38290000000037594,0.3995000000000033,0.41609999999963065,0.4329000000003731,0.44950000000000045,0.4662999999998192,0.48290000000037026,0.49959999999963145,0.5162999999998164,0.535200000000188,0.54979999999982,0.5662999999998135,0.5829000000003788,0.5995999999996258,0.6182000000001864,0.633200000000187,0.6495000000000033,0.6662000000001882,0.6827999999998156,0.6995999999996343,0.7162000000001854,0.7349000000003798,0.7494999999999976,0.7662000000001825,0.7827999999998099,0.7995999999996286,0.8162000000001939,0.8330999999996322,0.8495000000000061,0.8662999999998107,0.8829000000003759,0.8995999999996371,0.9162000000001882,0.9359000000003732,0.9525000000000006,0.9684000000003721,0.9830000000000041,0.9995999999996315,1.016099999999625,1.0352999999998218,1.0495999999996286,1.066400000000371,1.0862999999998095,1.100999999999999,1.1164000000003682,1.1367000000001894,1.1535000000000082,1.1689000000003773,1.183000000000007,1.2019000000003786,1.2164000000003767,1.2347000000001884,1.253099999999634,1.2677999999998093,1.2832000000001926,1.3017000000001957,1.316400000000371,1.3347000000001827,1.353799999999822,1.3694000000003683,1.3857000000001847,1.4024000000003696,1.4164000000003796,1.4330999999996266,1.452099999999632,1.4665999999996302,1.4827999999998127,1.5019000000003757,1.5190000000000055,1.5397000000001952,1.549500000000009,1.5665000000000049,1.58559999999963,1.6017999999998125,1.6164000000003682,1.6352000000001823,1.6495000000000033,1.6662000000001882,1.6827999999998156,1.6997999999998115,1.7387000000001933,1.7587999999998232,1.7652999999998116,1.7759999999999962,1.7829000000003816,1.7999000000003775,1.8162000000001939,1.8329000000003788,1.8497000000001833,1.866200000000191,1.882900000000376,1.8995999999996371,1.9162000000001882,1.933000000000007,1.9495000000000005,1.9662999999998192,1.9827999999998127,1.9995999999996315,2.016400000000374,2.0330000000000013,2.0495999999996286,2.0662999999998135,2.0827999999998212,2.0995999999996258,2.1160999999996335,2.132900000000376,2.1495000000000033,2.166299999999822,2.1852000000001937,2.199700000000192,2.216099999999628,2.233000000000004,2.2494999999999976,2.2662000000001825,2.28279999999981,2.2995999999996286,2.319700000000182,2.332900000000379,2.3494000000003723,2.366200000000191,2.3827999999998184,2.3997000000001947,2.4160999999996307]","[1733118023943,1733118023959,1733118023974,1733118023990,1733118024007,1733118024023,1733118024040,1733118024058,1733118024074,1733118024092,1733118024107,1733118024124,1733118024140,1733118024157,1733118024174,1733118024190,1733118024207,1733118024224,1733118024240,1733118024257,1733118024274,1733118024290,1733118024307,1733118024324,1733118024340,1733118024357,1733118024374,1733118024390,1733118024407,1733118024424,1733118024440,1733118024457,1733118024476,1733118024490,1733118024507,1733118024523,1733118024540,1733118024559,1733118024574,1733118024590,1733118024607,1733118024623,1733118024640,1733118024657,1733118024675,1733118024690,1733118024707,1733118024723,1733118024740,1733118024757,1733118024774,1733118024790,1733118024807,1733118024824,1733118024840,1733118024857,1733118024877,1733118024893,1733118024909,1733118024924,1733118024940,1733118024957,1733118024976,1733118024990,1733118025007,1733118025027,1733118025042,1733118025057,1733118025077,1733118025094,1733118025110,1733118025124,1733118025142,1733118025157,1733118025175,1733118025194,1733118025208,1733118025224,1733118025242,1733118025257,1733118025275,1733118025294,1733118025310,1733118025326,1733118025343,1733118025357,1733118025374,1733118025393,1733118025407,1733118025423,1733118025443,1733118025460,1733118025480,1733118025490,1733118025507,1733118025526,1733118025542,1733118025557,1733118025576,1733118025590,1733118025607,1733118025623,1733118025640,1733118025679,1733118025699,1733118025706,1733118025717,1733118025724,1733118025741,1733118025757,1733118025774,1733118025790,1733118025807,1733118025824,1733118025840,1733118025857,1733118025874,1733118025890,1733118025907,1733118025923,1733118025940,1733118025957,1733118025974,1733118025990,1733118026007,1733118026023,1733118026040,1733118026057,1733118026074,1733118026090,1733118026107,1733118026126,1733118026140,1733118026157,1733118026174,1733118026190,1733118026207,1733118026223,1733118026240,1733118026260,1733118026274,1733118026290,1733118026307,1733118026323,1733118026340,1733118026357]","[[978.3,404.5],[974.2,390.8],[976,368.5],[977.8,346.2],[987.2,348.1],[988.8,352.7],[992,358.2],[995.2,363.7],[1010.8,363.7],[1026.4,363.7],[1029.7,355.1],[1026.3,359.6],[1025.7,374.5],[1015.7,371.6],[1004.1,357.7],[994.5,336.7],[1002.8,324.3],[1011.1,311.9],[995.5,318.7],[979.9,325.5],[982.5,328.9],[991.8,319.2],[993.9,307.6],[1005.4,313.8],[1016.8,325.1],[1028.2,336.4],[1042.4,330.7],[1039,330],[1033.6,346.1],[1028.2,362.2],[1029.5,363.8],[1030.8,365.4],[1040.2,389.3],[1048,405.8],[1055.9,417.2],[1066.5,410.6],[1065.5,415.2],[1063.6,421.2],[1084.1,404.3],[1099.7,384.8],[1107.2,377.9],[1114.7,371],[1126.1,345.9],[1139.1,328.2],[1133.4,344.4],[1125,378.6],[1126.8,394],[1148,388.6],[1160.6,400.8],[1160.6,400.8],[1178.1,415.6],[1168.2,431.2],[1171,441.1],[1169,448.8],[1180.3,444.8],[1212.9,413],[1217,394.6],[1206.6,390.4],[1202.5,409.1],[1181.8,392],[1161.1,374.9],[1170.6,363.4],[1167.4,357.6],[1145.1,354.7],[1116.5,362.5],[1096.9,360.8],[1096.9,341.6],[1090,324.1],[1078.2,336.9],[1094.3,338.7],[1100.1,337.8],[1099,343.3],[1092.5,345.9],[1115.8,350],[1131.2,340.9],[1135,335.2],[1151.4,346.2],[1167.8,357.2],[1185.7,344.1],[1191.6,344.2],[1203.4,351.4],[1207.1,355.2],[1220,348.7],[1195.5,346.2],[1175.9,361.6],[1175.9,361.6],[1184.6,377],[1189.6,379.8],[1190.3,380.7],[1187.2,366.9],[1187.8,361.4],[1192.8,351.5],[1199.1,343.1],[1199.1,343.1],[1200.8,352.9],[1225.3,349.2],[1249,341.9],[1244.4,334.6],[1251.1,330.4],[1262.1,328.1],[1258.5,328.2],[1255.6,333.4],[1247.3,334.9],[1247.3,334.9],[1237.1,336.7],[1237.1,336.7],[1237.1,336.7],[1246.8,343.1],[1246.8,343.1],[1246.2,353.5],[1246.2,353.5],[1246.3,344.5],[1246.3,344.5],[1252.5,367.9],[1252.5,367.9],[1242,370.9],[1242,370.9],[1225.7,388],[1231.9,404.7],[1238.1,421.4],[1248.2,413.6],[1255.8,405.8],[1248.9,397.3],[1259.3,387.9],[1254.5,407.8],[1228.9,391.4],[1210.4,386.9],[1196.2,376.2],[1186.5,362.6],[1167.1,338.3],[1155.5,356.6],[1162,367],[1163.9,368.5],[1155.3,358.3],[1158,338.1],[1175.4,321.8],[1184.1,334.5],[1194.3,339.3],[1193.3,343.3],[1205.8,361.1],[1205.8,361.1],[1215.7,356.7],[1205.2,352.1],[1194.7,347.5],[1200,369],[1205.3,390.5]]","[0,0.37864299999999995]","[0.37864299999999995,0.37864299999999995]","[-0.37864299999999995,-0.37864299999999995]","[-0.37864299999999995,0]","[0,-0.37864299999999995]","[0.37864299999999995,-0.37864299999999995]","[0,0]","[0.37864299999999995,0]",0,1,1,1,1,3,Laptop,5,5,13,7
,,,,,,,,,,,,,,,,,,,46,001,2024-12-02_13h39.44.376,Attention_exp_legacy,2023.1.0,Win32,59.88023952,,,,,,,,,,,[0.3],[0.3296296296296296],[1],[0],[0],[0.9027999999998144],"[""Option2_label""]",Option2_label,3,1.9047,"[[0.3,0.3296296296296296],[0.3,0.3296296296296296],[0.3,0.3296296296296296],[0.3,0.3296296296296296],[0.3,0.3296296296296296],[0.3,0.3296296296296296],[0.3,0.3296296296296296],[0.3,0.3296296296296296],[0.3,0.3296296296296296],[0.3,0.3296296296296296],[0.3,0.3296296296296296],[0.3,0.3296296296296296],[0.3,0.3296296296296296],[0.3,0.3296296296296296],[0.3,0.3296296296296296],[0.3,0.3296296296296296],[0.3,0.3296296296296296],[0.3,0.3296296296296296],[0.3,0.3296296296296296],[0.3,0.3296296296296296],[0.3,0.3296296296296296],[0.3,0.3296296296296296],[0.3,0.3296296296296296],[0.3,0.3296296296296296],[0.3,0.3296296296296296],[0.3,0.3296296296296296],[0.3,0.3296296296296296],[0.3,0.3296296296296296],[0.3,0.3296296296296296],[0.3,0.3296296296296296],[0.3,0.3296296296296296],[0.3,0.3296296296296296],[0.3,0.3296296296296296],[0.3,0.3296296296296296],[0.3,0.3296296296296296],[0.3,0.3296296296296296],[0.3,0.3296296296296296],[0.3,0.3296296296296296],[0.3,0.3296296296296296],[0.3,0.3296296296296296],[0.3,0.3296296296296296],[0.3,0.3296296296296296],[0.3,0.3296296296296296],[0.3,0.3296296296296296],[0.3,0.3296296296296296],[0.3,0.3296296296296296],[0.3,0.3296296296296296],[0.3,0.3296296296296296],[0.3,0.3296296296296296],[0.3,0.3296296296296296],[0.3,0.3296296296296296],[0.3,0.3296296296296296],[0.3,0.3296296296296296],[0.3,0.3296296296296296],[0.3,0.3296296296296296],[0.3,0.3296296296296296],[0.3,0.3296296296296296],[0.3,0.3296296296296296],[0.3,0.3296296296296296],[0.3,0.3296296296296296],[0.3,0.3296296296296296],[0.3,0.3296296296296296],[0.3,0.3296296296296296],[0.3,0.3296296296296296],[0.3,0.3296296296296296],[0.3,0.3296296296296296],[0.3,0.3296296296296296],[0.3,0.3296296296296296],[0.3,0.3296296296296296],[0.3,0.3296296296296296],[0.3,0.3296296296296296],[0.3,0.3296296296296296],[0.3,0.3296296296296296],[0.3,0.3296296296296296],[0.3,0.3296296296296296],[0.3,0.3296296296296296],[0.3,0.3296296296296296],[0.3,0.3296296296296296],[0.3,0.3296296296296296],[0.3,0.3296296296296296],[0.3,0.3296296296296296],[0.3,0.3296296296296296],[0.3,0.3296296296296296],[0.3,0.3296296296296296],[0.3,0.3296296296296296],[0.3,0.3296296296296296],[0.3,0.3296296296296296],[0.3,0.3296296296296296],[0.3,0.3296296296296296],[0.3,0.3296296296296296],[0.3,0.3296296296296296],[0.3,0.3296296296296296],[0.3,0.3296296296296296],[0.3,0.3296296296296296],[0.3,0.3296296296296296],[0.3,0.3296296296296296],[0.3,0.3296296296296296],[0.3,0.3296296296296296],[0.3,0.3296296296296296],[0.3,0.3296296296296296],[0.3,0.3296296296296296],[0.3,0.3296296296296296],[0.3,0.3296296296296296],[0.3,0.3296296296296296],[0.3,0.3296296296296296],[0.3,0.3296296296296296],[0.3,0.3296296296296296],[0.3,0.3296296296296296],[0.3,0.3296296296296296],[0.3,0.3296296296296296],[0.3,0.3296296296296296],[0.3,0.3296296296296296],[0.3,0.3296296296296296],[0.3,0.3296296296296296],[0.3,0.3296296296296296]]","[[0.05593750000000005,-0.30185185185185187],[0.057083333333333285,-0.3227777777777778],[0.0655208333333333,-0.30277777777777776],[0.0865624999999999,-0.29888888888888887],[0.08520833333333329,-0.2455555555555556],[0.0625,-0.23777777777777773],[0.06854166666666663,-0.22629629629629627],[0.07885416666666671,-0.22111111111111106],[0.09927083333333328,-0.19518518518518516],[0.12218749999999995,-0.16796296296296295],[0.1430208333333333,-0.17481481481481478],[0.1638541666666666,-0.1816666666666667],[0.17354166666666657,-0.19462962962962968],[0.1790625000000001,-0.20166666666666663],[0.2087500000000001,-0.24685185185185188],[0.23125,-0.247037037037037],[0.22218749999999995,-0.2490740740740741],[0.2131249999999999,-0.2511111111111112],[0.20281250000000003,-0.28111111111111114],[0.18708333333333324,-0.3085185185185186],[0.17302083333333323,-0.28944444444444445],[0.16104166666666658,-0.29555555555555557],[0.14541666666666658,-0.2822222222222222],[0.14645833333333325,-0.2809259259259259],[0.13416666666666663,-0.2757407407407407],[0.1349999999999999,-0.2916666666666667],[0.14718749999999994,-0.3068518518518518],[0.159375,-0.322037037037037],[0.16697916666666662,-0.33481481481481484],[0.17458333333333323,-0.34759259259259256],[0.17604166666666668,-0.3403703703703704],[0.17541666666666675,-0.307962962962963],[0.18791666666666676,-0.32018518518518513],[0.18791666666666676,-0.32018518518518513],[0.17833333333333337,-0.32685185185185184],[0.17156250000000003,-0.3581481481481481],[0.18156249999999996,-0.3642592592592592],[0.19427083333333334,-0.36129629629629634],[0.20145833333333343,-0.37111111111111106],[0.18562500000000004,-0.35999999999999993],[0.1736458333333334,-0.34592592592592597],[0.1796875,-0.3611111111111111],[0.1796875,-0.3611111111111111],[0.1857291666666666,-0.3762962962962963],[0.17781250000000004,-0.3675925925925926],[0.17687499999999995,-0.3581481481481481],[0.17312500000000006,-0.32407407407407407],[0.1544791666666666,-0.34370370370370373],[0.1359375,-0.3638888888888889],[0.12000000000000005,-0.34574074074074074],[0.10104166666666667,-0.2933333333333333],[0.08458333333333339,-0.25685185185185183],[0.05583333333333336,-0.26740740740740737],[0.027395833333333286,-0.2977777777777778],[0.007708333333333309,-0.29259259259259257],[0.007708333333333309,-0.29259259259259257],[-0.013541666666666667,-0.28166666666666673],[-0.013541666666666667,-0.28166666666666673],[-0.043229166666666666,-0.2651851851851852],[-0.05291666666666662,-0.25277777777777777],[-0.08166666666666664,-0.24259259259259258],[-0.10750000000000005,-0.257962962962963],[-0.10364583333333334,-0.31962962962962965],[-0.10614583333333331,-0.3683333333333333],[-0.09239583333333339,-0.35111111111111115],[-0.06520833333333335,-0.3472222222222222],[-0.05249999999999998,-0.3581481481481481],[-0.05249999999999998,-0.3581481481481481],[-0.02374999999999995,-0.3464814814814815],[-0.02374999999999995,-0.3464814814814815],[-0.0032291666666666905,-0.3507407407407407],[-0.0032291666666666905,-0.3507407407407407],[-0.022395833333333334,-0.34592592592592597],[-0.022395833333333334,-0.34592592592592597],[-0.022500000000000023,-0.3388888888888889],[-0.022500000000000023,-0.3388888888888889],[0.007083333333333286,-0.3162962962962963],[0.007083333333333286,-0.3162962962962963],[-0.008229166666666643,-0.27388888888888885],[-0.008229166666666643,-0.27388888888888885],[-0.010312499999999976,-0.247037037037037],[-0.02364583333333338,-0.2687037037037037],[-0.0672916666666667,-0.2381481481481482],[-0.09791666666666667,-0.22777777777777777],[-0.13854166666666667,-0.2718518518518519],[-0.1625,-0.3055555555555556],[-0.16177083333333328,-0.2918518518518519],[-0.1610416666666667,-0.27814814814814814],[-0.1935416666666666,-0.2992592592592593],[-0.19260416666666663,-0.32981481481481484],[-0.19885416666666664,-0.34870370370370374],[-0.18979166666666672,-0.3592592592592593],[-0.1898958333333333,-0.3618518518518518],[-0.19083333333333338,-0.3787037037037037],[-0.1872916666666666,-0.3531481481481481],[-0.17229166666666665,-0.3307407407407408],[-0.16416666666666668,-0.3322222222222222],[-0.1560416666666666,-0.33370370370370367],[-0.14375,-0.32388888888888884],[-0.12572916666666673,-0.317037037037037],[-0.1063541666666667,-0.2898148148148148],[-0.10822916666666664,-0.2518518518518518],[-0.07572916666666671,-0.2433333333333333],[-0.026979166666666644,-0.2322222222222222],[-0.014791666666666713,-0.2161111111111111],[-0.0018749999999999527,-0.21296296296296297],[0.02010416666666662,-0.2096296296296296],[0.04208333333333331,-0.20629629629629626],[0.0655208333333333,-0.20537037037037034],[0.0821875000000001,-0.18462962962962962],[0.11010416666666671,-0.19537037037037036],[0.12979166666666658,-0.20388888888888893],[0.11197916666666667,-0.19944444444444442],[0.0787499999999999,-0.18333333333333332],[0.12291666666666666,-0.19296296296296295]]","[[0.05593750000000005,-0.30185185185185187,0.00010000000055754299],[0.057083333333333285,-0.3227777777777778,0.018300000000749606],[0.0655208333333333,-0.30277777777777776,0.03320000000019263],[0.0865624999999999,-0.29888888888888887,0.049600000000566524],[0.08520833333333329,-0.2455555555555556,0.06640000000037105],[0.0625,-0.23777777777777773,0.08310000000055595],[0.06854166666666663,-0.22629629629629627,0.09980000000075506],[0.07885416666666671,-0.22111111111111106,0.11640000000038242],[0.09927083333333328,-0.19518518518518516,0.13320000000018695],[0.12218749999999995,-0.16796296296296295,0.1530000000000058],[0.1430208333333333,-0.17481481481481478,0.1681000000005639],[0.1638541666666666,-0.1816666666666667,0.18310000000056448],[0.17354166666666657,-0.19462962962962968,0.20010000000056039],[0.1790625000000001,-0.20166666666666663,0.21640000000037674],[0.2087500000000001,-0.24685185185185188,0.23310000000056164],[0.23125,-0.247037037037037,0.249700000000189],[0.22218749999999995,-0.2490740740740741,0.26650000000000773],[0.2131249999999999,-0.2511111111111112,0.28300000000000125],[0.20281250000000003,-0.28111111111111114,0.3001000000005689],[0.18708333333333324,-0.3085185185185186,0.31640000000037105],[0.17302083333333323,-0.28944444444444445,0.33310000000055595],[0.16104166666666658,-0.29555555555555557,0.35030000000074324],[0.14541666666666658,-0.2822222222222222,0.36920000000019115],[0.14645833333333325,-0.2809259259259259,0.38530000000075404],[0.13416666666666663,-0.2757407407407407,0.4019000000003814],[0.1349999999999999,-0.2916666666666667,0.41660000000055675],[0.14718749999999994,-0.3068518518518518,0.4331000000005645],[0.159375,-0.322037037037037,0.45240000000038094],[0.16697916666666662,-0.33481481481481484,0.46860000000056345],[0.17458333333333323,-0.34759259259259256,0.4830000000000041],[0.17604166666666668,-0.3403703703703704,0.5020000000000095],[0.17541666666666675,-0.307962962962963,0.5167000000001849],[0.18791666666666676,-0.32018518518518513,0.5331000000005588],[0.18791666666666676,-0.32018518518518513,0.5497000000001862],[0.17833333333333337,-0.32685185185185184,0.5665000000000049],[0.17156250000000003,-0.3581481481481481,0.5859000000003789],[0.18156249999999996,-0.3642592592592592,0.6037000000001882],[0.19427083333333334,-0.36129629629629634,0.6191000000005573],[0.20145833333333343,-0.37111111111111106,0.6352000000001965],[0.18562500000000004,-0.35999999999999993,0.6533000000007547],[0.1736458333333334,-0.34592592592592597,0.6702000000001931],[0.1796875,-0.3611111111111111,0.6875],[0.1796875,-0.3611111111111111,0.6998000000007494],[0.1857291666666666,-0.3762962962962963,0.7164000000003767],[0.17781250000000004,-0.3675925925925926,0.7353000000007484],[0.17687499999999995,-0.3581481481481481,0.7523000000007443],[0.17312500000000006,-0.32407407407407407,0.7665000000000077],[0.1544791666666666,-0.34370370370370373,0.7859000000003817],[0.1359375,-0.3638888888888889,0.8020000000000067],[0.12000000000000005,-0.34574074074074074,0.8186000000005578],[0.10104166666666667,-0.2933333333333333,0.8353000000007427],[0.08458333333333339,-0.25685185185185183,0.8500000000000085],[0.05583333333333336,-0.26740740740740737,0.8667000000001934],[0.027395833333333286,-0.2977777777777778,0.8830000000000098],[0.007708333333333309,-0.29259259259259257,0.9035000000000082],[0.007708333333333309,-0.29259259259259257,0.9163000000007457],[-0.013541666666666667,-0.28166666666666673,0.9331000000005645],[-0.013541666666666667,-0.28166666666666673,0.9497000000001918],[-0.043229166666666666,-0.2651851851851852,0.9665000000000106],[-0.05291666666666662,-0.25277777777777777,0.9853000000007484],[-0.08166666666666664,-0.24259259259259258,1.0040000000000049],[-0.10750000000000005,-0.257962962962963,1.0209000000003812],[-0.10364583333333334,-0.31962962962962965,1.0367000000001951],[-0.10614583333333331,-0.3683333333333333,1.0520000000000067],[-0.09239583333333339,-0.35111111111111115,1.070300000000742],[-0.06520833333333335,-0.3472222222222222,1.0875000000000057],[-0.05249999999999998,-0.3581481481481481,1.1042000000001906],[-0.05249999999999998,-0.3581481481481481,1.1164000000003824],[-0.02374999999999995,-0.3464814814814815,1.1331000000005673],[-0.02374999999999995,-0.3464814814814815,1.1496000000005608],[-0.0032291666666666905,-0.3507407407407407,1.1664999999999992],[-0.0032291666666666905,-0.3507407407407407,1.183000000000007],[-0.022395833333333334,-0.34592592592592597,1.199900000000369],[-0.022395833333333334,-0.34592592592592597,1.216300000000743],[-0.022500000000000023,-0.3388888888888889,1.2331000000005616],[-0.022500000000000023,-0.3388888888888889,1.249700000000189],[0.007083333333333286,-0.3162962962962963,1.266400000000374],[0.007083333333333286,-0.3162962962962963,1.2830000000000013],[-0.008229166666666643,-0.27388888888888885,1.2998000000007437],[-0.008229166666666643,-0.27388888888888885,1.3163000000007514],[-0.010312499999999976,-0.247037037037037,1.333100000000556],[-0.02364583333333338,-0.2687037037037037,1.3538000000007457],[-0.0672916666666667,-0.2381481481481482,1.3692000000001912],[-0.09791666666666667,-0.22777777777777777,1.3848000000007517],[-0.13854166666666667,-0.2718518518518519,1.402900000000372],[-0.1625,-0.3055555555555556,1.4166000000005567],[-0.16177083333333328,-0.2918518518518519,1.433200000000184],[-0.1610416666666667,-0.27814814814814814,1.4497000000001918],[-0.1935416666666666,-0.2992592592592593,1.4664000000003767],[-0.19260416666666663,-0.32981481481481484,1.483300000000753],[-0.19885416666666664,-0.34870370370370374,1.5015000000000072],[-0.18979166666666672,-0.3592592592592593,1.5166000000005653],[-0.1898958333333333,-0.3618518518518518,1.5330000000000013],[-0.19083333333333338,-0.3787037037037037,1.5502000000001885],[-0.1872916666666666,-0.3531481481481481,1.566400000000371],[-0.17229166666666665,-0.3307407407407408,1.5838000000007497],[-0.16416666666666668,-0.3322222222222222,1.6022000000001952],[-0.1560416666666666,-0.33370370370370367,1.6186000000005691],[-0.14375,-0.32388888888888884,1.635600000000565],[-0.12572916666666673,-0.317037037037037,1.6519000000003814],[-0.1063541666666667,-0.2898148148148148,1.6667000000001906],[-0.10822916666666664,-0.2518518518518518,1.683000000000007],[-0.07572916666666671,-0.2433333333333333,1.7013000000007423],[-0.026979166666666644,-0.2322222222222222,1.7167000000001877],[-0.014791666666666713,-0.2161111111111111,1.7331000000005616],[-0.0018749999999999527,-0.21296296296296297,1.7543000000007538],[0.02010416666666662,-0.2096296296296296,1.7698000000007426],[0.04208333333333331,-0.20629629629629626,1.7863000000007503],[0.0655208333333333,-0.20537037037037034,1.8029999999999973],[0.0821875000000001,-0.18462962962962962,1.8181000000005554],[0.11010416666666671,-0.19537037037037036,1.8335000000000008],[0.12979166666666658,-0.20388888888888893,1.8503000000007432],[0.11197916666666667,-0.19944444444444442,1.866500000000002],[0.0787499999999999,-0.18333333333333332,1.8831000000005673],[0.12291666666666666,-0.19296296296296295,1.9047000000001901]]","[0.00010000000055754299,0.018300000000749606,0.03320000000019263,0.049600000000566524,0.06640000000037105,0.08310000000055595,0.09980000000075506,0.11640000000038242,0.13320000000018695,0.1530000000000058,0.1681000000005639,0.18310000000056448,0.20010000000056039,0.21640000000037674,0.23310000000056164,0.249700000000189,0.26650000000000773,0.28300000000000125,0.3001000000005689,0.31640000000037105,0.33310000000055595,0.35030000000074324,0.36920000000019115,0.38530000000075404,0.4019000000003814,0.41660000000055675,0.4331000000005645,0.45240000000038094,0.46860000000056345,0.4830000000000041,0.5020000000000095,0.5167000000001849,0.5331000000005588,0.5497000000001862,0.5665000000000049,0.5859000000003789,0.6037000000001882,0.6191000000005573,0.6352000000001965,0.6533000000007547,0.6702000000001931,0.6875,0.6998000000007494,0.7164000000003767,0.7353000000007484,0.7523000000007443,0.7665000000000077,0.7859000000003817,0.8020000000000067,0.8186000000005578,0.8353000000007427,0.8500000000000085,0.8667000000001934,0.8830000000000098,0.9035000000000082,0.9163000000007457,0.9331000000005645,0.9497000000001918,0.9665000000000106,0.9853000000007484,1.0040000000000049,1.0209000000003812,1.0367000000001951,1.0520000000000067,1.070300000000742,1.0875000000000057,1.1042000000001906,1.1164000000003824,1.1331000000005673,1.1496000000005608,1.1664999999999992,1.183000000000007,1.199900000000369,1.216300000000743,1.2331000000005616,1.249700000000189,1.266400000000374,1.2830000000000013,1.2998000000007437,1.3163000000007514,1.333100000000556,1.3538000000007457,1.3692000000001912,1.3848000000007517,1.402900000000372,1.4166000000005567,1.433200000000184,1.4497000000001918,1.4664000000003767,1.483300000000753,1.5015000000000072,1.5166000000005653,1.5330000000000013,1.5502000000001885,1.566400000000371,1.5838000000007497,1.6022000000001952,1.6186000000005691,1.635600000000565,1.6519000000003814,1.6667000000001906,1.683000000000007,1.7013000000007423,1.7167000000001877,1.7331000000005616,1.7543000000007538,1.7698000000007426,1.7863000000007503,1.8029999999999973,1.8181000000005554,1.8335000000000008,1.8503000000007432,1.866500000000002,1.8831000000005673,1.9047000000001901]","[1733118027374,1733118027392,1733118027407,1733118027423,1733118027440,1733118027457,1733118027474,1733118027490,1733118027507,1733118027527,1733118027542,1733118027557,1733118027574,1733118027590,1733118027607,1733118027623,1733118027640,1733118027657,1733118027674,1733118027690,1733118027707,1733118027724,1733118027743,1733118027759,1733118027776,1733118027790,1733118027807,1733118027826,1733118027842,1733118027857,1733118027876,1733118027890,1733118027907,1733118027923,1733118027940,1733118027960,1733118027977,1733118027993,1733118028009,1733118028027,1733118028044,1733118028061,1733118028074,1733118028090,1733118028109,1733118028126,1733118028140,1733118028160,1733118028176,1733118028192,1733118028209,1733118028224,1733118028240,1733118028257,1733118028277,1733118028290,1733118028307,1733118028323,1733118028340,1733118028359,1733118028378,1733118028395,1733118028410,1733118028426,1733118028444,1733118028461,1733118028478,1733118028490,1733118028507,1733118028523,1733118028540,1733118028557,1733118028574,1733118028590,1733118028607,1733118028623,1733118028640,1733118028657,1733118028674,1733118028690,1733118028707,1733118028728,1733118028743,1733118028759,1733118028777,1733118028790,1733118028807,1733118028823,1733118028840,1733118028857,1733118028875,1733118028890,1733118028907,1733118028924,1733118028940,1733118028958,1733118028976,1733118028992,1733118029009,1733118029026,1733118029040,1733118029057,1733118029075,1733118029090,1733118029107,1733118029128,1733118029144,1733118029160,1733118029177,1733118029192,1733118029207,1733118029224,1733118029240,1733118029257,1733118029278]","[[1013.7,377],[1014.8,365.7],[1022.9,376.5],[1043.1,378.6],[1041.8,407.4],[1020,411.6],[1025.8,417.8],[1035.7,420.6],[1055.3,434.6],[1077.3,449.3],[1097.3,445.6],[1117.3,441.9],[1126.6,434.9],[1131.9,431.1],[1160.4,406.7],[1182,406.6],[1173.3,405.5],[1164.6,404.4],[1154.7,388.2],[1139.6,373.4],[1126.1,383.7],[1114.6,380.4],[1099.6,387.6],[1100.6,388.3],[1088.8,391.1],[1089.6,382.5],[1101.3,374.3],[1113,366.1],[1120.3,359.2],[1127.6,352.3],[1129,356.2],[1128.4,373.7],[1140.4,367.1],[1140.4,367.1],[1131.2,363.5],[1124.7,346.6],[1134.3,343.3],[1146.5,344.9],[1153.4,339.6],[1138.2,345.6],[1126.7,353.2],[1132.5,345],[1132.5,345],[1138.3,336.8],[1130.7,341.5],[1129.8,346.6],[1126.2,365],[1108.3,354.4],[1090.5,343.5],[1075.2,353.3],[1057,381.6],[1041.2,401.3],[1013.6,395.6],[986.3,379.2],[967.4,382],[967.4,382],[947,387.9],[947,387.9],[918.5,396.8],[909.2,403.5],[881.6,409],[856.8,400.7],[860.5,367.4],[858.1,341.1],[871.3,350.4],[897.4,352.5],[909.6,346.6],[909.6,346.6],[937.2,352.9],[937.2,352.9],[956.9,350.6],[956.9,350.6],[938.5,353.2],[938.5,353.2],[938.4,357],[938.4,357],[966.8,369.2],[966.8,369.2],[952.1,392.1],[952.1,392.1],[950.1,406.6],[937.3,394.9],[895.4,411.4],[866,417],[827,393.2],[804,375],[804.7,382.4],[805.4,389.8],[774.2,378.4],[775.1,361.9],[769.1,351.7],[777.8,346],[777.7,344.6],[776.8,335.5],[780.2,349.3],[794.6,361.4],[802.4,360.6],[810.2,359.8],[822,365.1],[839.3,368.8],[857.9,383.5],[856.1,404],[887.3,408.6],[934.1,414.6],[945.8,423.3],[958.2,425],[979.3,426.8],[1000.4,428.6],[1022.9,429.1],[1038.9,440.3],[1065.7,434.5],[1084.6,429.9],[1067.5,432.3],[1035.6,441],[1078,435.8]]","[0,0.37864299999999995]","[0.37864299999999995,0.37864299999999995]","[-0.37864299999999995,-0.37864299999999995]","[-0.37864299999999995,0]","[0,-0.37864299999999995]","[0.37864299999999995,-0.37864299999999995]","[0,0]","[0.37864299999999995,0]",0,2,2,2,1,3,Laptop,5,5,15,9
