inst1_resp.keys,inst1_resp.rt,calibrationMouse.x,calibrationMouse.y,calibrationMouse.leftButton,calibrationMouse.midButton,calibrationMouse.rightButton,calibrationClick.x,calibrationClick.y,calibrationClick.leftButton,calibrationClick.midButton,calibrationClick.rightButton,trialsc.thisRepN,trialsc.thisTrialN,trialsc.thisN,trialsc.thisIndex,trialsc.ran,calibration_x,calibration_y,participant,session,date,expName,psychopyVersion,OS,frameRate,calibrationClick.clicked_name,ScreenRes_pixels,mouse_2.x,mouse_2.y,mouse_2.leftButton,mouse_2.midButton,mouse_2.rightButton,mouse_2.time,mouse_2.clicked_name,Camera_pixels,mouse.x,mouse.y,mouse.leftButton,mouse.midButton,mouse.rightButton,mouse.time,mouse.clicked_name,Choice,Trial,TrialDuration,MOUSE_GAZE,ET_GAZE,ET_GAZE_x_T,time,unixTime,ET_GAZE_NF,Loc_Option1_label,Loc_Option2_label,Loc_Cost_label,Loc_Qual_label,Loc_Option1_cost,Loc_Option2_cost,Loc_Option1_quality,Loc_Option2_quality,trials.thisRepN,trials.thisTrialN,trials.thisN,trials.thisIndex,trials.ran,Block,Device,cost1,qual1,cost2,qual2
space,0.9817,0.082291667,-0.162962963,1,0,0,0.33125,0.003703704,0,0,0,0,0,0,16,1,0.33,0,05,001,2024-12-02_13h37.34.090,Attention_exp_legacy,2023.1.0,Win32,60.24096386,,,,,,,,,,,,,,,,,,,,,,,,,,,,,,,,,,,,,,,,,,,,,
,,,,,,,-0.025,-0.327777778,1,0,0,0,1,1,10,1,0,-0.33,05,001,2024-12-02_13h37.34.090,Attention_exp_legacy,2023.1.0,Win32,60.24096386,,,,,,,,,,,,,,,,,,,,,,,,,,,,,,,,,,,,,,,,,,,,,
,,,,,,,0.003125,-0.001851852,1,0,0,0,2,2,11,1,0,0,05,001,2024-12-02_13h37.34.090,Attention_exp_legacy,2023.1.0,Win32,60.24096386,calibration_square,,,,,,,,,,,,,,,,,,,,,,,,,,,,,,,,,,,,,,,,,,,,
,,,,,,,-0.723958333,-0.681481481,1,0,0,0,3,3,0,1,-0.67,-0.67,05,001,2024-12-02_13h37.34.090,Attention_exp_legacy,2023.1.0,Win32,60.24096386,,,,,,,,,,,,,,,,,,,,,,,,,,,,,,,,,,,,,,,,,,,,,
,,,,,,,-0.329166667,-0.346296296,1,0,0,0,4,4,5,1,-0.33,-0.33,05,001,2024-12-02_13h37.34.090,Attention_exp_legacy,2023.1.0,Win32,60.24096386,,,,,,,,,,,,,,,,,,,,,,,,,,,,,,,,,,,,,,,,,,,,,
,,,,,,,-0.677083333,0.003703704,1,0,0,0,5,5,2,1,-0.67,0,05,001,2024-12-02_13h37.34.090,Attention_exp_legacy,2023.1.0,Win32,60.24096386,calibration_square,,,,,,,,,,,,,,,,,,,,,,,,,,,,,,,,,,,,,,,,,,,,
,,,,,,,-0.0375,0.681481481,1,0,0,0,6,6,13,1,0,0.67,05,001,2024-12-02_13h37.34.090,Attention_exp_legacy,2023.1.0,Win32,60.24096386,,,,,,,,,,,,,,,,,,,,,,,,,,,,,,,,,,,,,,,,,,,,,
,,,,,,,0.66875,-0.57962963,1,0,0,0,7,7,20,1,0.67,-0.67,05,001,2024-12-02_13h37.34.090,Attention_exp_legacy,2023.1.0,Win32,60.24096386,,,,,,,,,,,,,,,,,,,,,,,,,,,,,,,,,,,,,,,,,,,,,
,,,,,,,0.327083333,-0.309259259,1,0,0,0,8,8,15,1,0.33,-0.33,05,001,2024-12-02_13h37.34.090,Attention_exp_legacy,2023.1.0,Win32,60.24096386,,,,,,,,,,,,,,,,,,,,,,,,,,,,,,,,,,,,,,,,,,,,,
,,,,,,,-0.705208333,-0.309259259,1,0,0,0,9,9,1,1,-0.67,-0.33,05,001,2024-12-02_13h37.34.090,Attention_exp_legacy,2023.1.0,Win32,60.24096386,,,,,,,,,,,,,,,,,,,,,,,,,,,,,,,,,,,,,,,,,,,,,
,,,,,,,0.328125,-0.661111111,1,0,0,0,10,10,14,1,0.33,-0.67,05,001,2024-12-02_13h37.34.090,Attention_exp_legacy,2023.1.0,Win32,60.24096386,calibration_square,,,,,,,,,,,,,,,,,,,,,,,,,,,,,,,,,,,,,,,,,,,,
,,,,,,,-0.316666667,-0.635185185,1,0,0,0,11,11,4,1,-0.33,-0.67,05,001,2024-12-02_13h37.34.090,Attention_exp_legacy,2023.1.0,Win32,60.24096386,,,,,,,,,,,,,,,,,,,,,,,,,,,,,,,,,,,,,,,,,,,,,
,,,,,,,-0.672916667,0.307407407,1,0,0,0,12,12,3,1,-0.67,0.33,05,001,2024-12-02_13h37.34.090,Attention_exp_legacy,2023.1.0,Win32,60.24096386,,,,,,,,,,,,,,,,,,,,,,,,,,,,,,,,,,,,,,,,,,,,,
,,,,,,,-0.004166667,0.32962963,1,0,0,0,13,13,12,1,0,0.33,05,001,2024-12-02_13h37.34.090,Attention_exp_legacy,2023.1.0,Win32,60.24096386,calibration_square,,,,,,,,,,,,,,,,,,,,,,,,,,,,,,,,,,,,,,,,,,,,
,,,,,,,0.317708333,0.633333333,1,0,0,0,14,14,18,1,0.33,0.67,05,001,2024-12-02_13h37.34.090,Attention_exp_legacy,2023.1.0,Win32,60.24096386,,,,,,,,,,,,,,,,,,,,,,,,,,,,,,,,,,,,,,,,,,,,,
,,,,,,,0.677083333,0.651851852,1,0,0,0,15,15,19,1,0.67,0.67,05,001,2024-12-02_13h37.34.090,Attention_exp_legacy,2023.1.0,Win32,60.24096386,,,,,,,,,,,,,,,,,,,,,,,,,,,,,,,,,,,,,,,,,,,,,
,,,,,,,-0.30625,0.02962963,1,0,0,0,16,16,6,1,-0.33,0,05,001,2024-12-02_13h37.34.090,Attention_exp_legacy,2023.1.0,Win32,60.24096386,,,,,,,,,,,,,,,,,,,,,,,,,,,,,,,,,,,,,,,,,,,,,
,,,,,,,-0.014583333,-0.637037037,1,0,0,0,17,17,9,1,0,-0.67,05,001,2024-12-02_13h37.34.090,Attention_exp_legacy,2023.1.0,Win32,60.24096386,,,,,,,,,,,,,,,,,,,,,,,,,,,,,,,,,,,,,,,,,,,,,
,,,,,,,-0.328125,0.311111111,1,0,0,0,18,18,7,1,-0.33,0.33,05,001,2024-12-02_13h37.34.090,Attention_exp_legacy,2023.1.0,Win32,60.24096386,,,,,,,,,,,,,,,,,,,,,,,,,,,,,,,,,,,,,,,,,,,,,
,,,,,,,0.338541667,0.331481481,1,0,0,0,19,19,17,1,0.33,0.33,05,001,2024-12-02_13h37.34.090,Attention_exp_legacy,2023.1.0,Win32,60.24096386,calibration_square,,,,,,,,,,,,,,,,,,,,,,,,,,,,,,,,,,,,,,,,,,,,
,,,,,,,-0.338541667,0.648148148,1,0,0,0,20,20,8,1,-0.33,0.67,05,001,2024-12-02_13h37.34.090,Attention_exp_legacy,2023.1.0,Win32,60.24096386,,,,,,,,,,,,,,,,,,,,,,,,,,,,,,,,,,,,,,,,,,,,,
,,,,,,,,,,,,,,,,,,,05,001,2024-12-02_13h37.34.090,Attention_exp_legacy,2023.1.0,Win32,60.24096386,,"[1920,1080]",[0.023958333333333335],[-0.5055555555555555],[1],[0],[0],[0.8982000000001875],"[""StartButton""]","[640,480]",[0.14375],[0.4981481481481482],[1],[0],[0],[1.320999999999998],"[""Option1_label""]",Option1_label,1,2.3266,"[[0.14791666666666667,0.022222222222222223],[0.146875,0.014814814814814815],[0.146875,0.014814814814814815],[0.146875,0.012962962962962963],[0.146875,0.011111111111111112],[0.146875,0.011111111111111112],[0.14479166666666668,0.009259259259259259],[0.14479166666666668,0.009259259259259259],[0.14479166666666668,0.009259259259259259],[0.14479166666666668,0.009259259259259259],[0.14479166666666668,0.009259259259259259],[0.14479166666666668,0.007407407407407408],[0.14479166666666668,0.005555555555555556],[0.14479166666666668,0.003703703703703704],[0.14479166666666668,0.003703703703703704],[0.14479166666666668,0],[0.14479166666666668,-0.001851851851851852],[0.14479166666666668,-0.001851851851851852],[0.14479166666666668,-0.003703703703703704],[0.14479166666666668,-0.007407407407407408],[0.15520833333333334,-0.009259259259259259],[0.178125,-0.018518518518518517],[0.21458333333333332,-0.022222222222222223],[0.28020833333333334,-0.022222222222222223],[0.35520833333333335,-0.014814814814814815],[0.42604166666666665,0.024074074074074074],[0.5010416666666667,0.1037037037037037],[0.525,0.14074074074074075],[0.5604166666666667,0.2037037037037037],[0.6145833333333334,0.3111111111111111],[0.6416666666666667,0.37777777777777777],[0.6552083333333333,0.42962962962962964],[0.6708333333333333,0.4777777777777778],[0.6791666666666667,0.5148148148148148],[0.6802083333333333,0.5351851851851852],[0.6802083333333333,0.5462962962962963],[0.6802083333333333,0.5462962962962963],[0.6802083333333333,0.55],[0.675,0.5518518518518518],[0.6625,0.5518518518518518],[0.6447916666666667,0.55],[0.6104166666666667,0.5259259259259259],[0.5885416666666666,0.5092592592592593],[0.5635416666666667,0.4888888888888889],[0.54375,0.4703703703703704],[0.5270833333333333,0.45555555555555555],[0.5177083333333333,0.4462962962962963],[0.5083333333333333,0.44074074074074077],[0.5,0.43333333333333335],[0.48854166666666665,0.43148148148148147],[0.48020833333333335,0.43148148148148147],[0.46979166666666666,0.42777777777777776],[0.4666666666666667,0.42777777777777776],[0.44895833333333335,0.42777777777777776],[0.4270833333333333,0.42777777777777776],[0.4010416666666667,0.42777777777777776],[0.36875,0.42777777777777776],[0.33125,0.42777777777777776],[0.28541666666666665,0.42777777777777776],[0.24895833333333334,0.42777777777777776],[0.22083333333333333,0.42777777777777776],[0.203125,0.42777777777777776],[0.190625,0.42777777777777776],[0.18229166666666666,0.42777777777777776],[0.18125,0.42777777777777776],[0.178125,0.42962962962962964],[0.17395833333333333,0.43703703703703706],[0.17083333333333334,0.4444444444444444],[0.16770833333333332,0.45185185185185184],[0.16354166666666667,0.46111111111111114],[0.16145833333333334,0.4648148148148148],[0.15833333333333333,0.4703703703703704],[0.153125,0.4759259259259259],[0.15,0.47962962962962963],[0.14895833333333333,0.48148148148148145],[0.146875,0.48518518518518516],[0.14583333333333334,0.4888888888888889],[0.14375,0.4962962962962963],[0.14375,0.4981481481481482],[0.14375,0.4981481481481482],[0.14375,0.4981481481481482],[0.14375,0.4981481481481482],[0.14375,0.4981481481481482],[0.14375,0.4981481481481482],[0.14375,0.4981481481481482],[0.14375,0.4981481481481482],[0.14375,0.4981481481481482],[0.14375,0.4981481481481482],[0.14375,0.4981481481481482],[0.14375,0.4981481481481482],[0.14375,0.4981481481481482],[0.14375,0.4981481481481482],[0.14375,0.4981481481481482],[0.14375,0.4981481481481482],[0.14375,0.4981481481481482],[0.14375,0.4981481481481482],[0.14375,0.4981481481481482],[0.14375,0.4981481481481482],[0.14375,0.4981481481481482],[0.14375,0.4981481481481482],[0.14375,0.4981481481481482],[0.14375,0.4981481481481482],[0.14375,0.4981481481481482],[0.14375,0.4981481481481482],[0.14375,0.4981481481481482],[0.14375,0.4981481481481482],[0.14375,0.4981481481481482],[0.14375,0.4981481481481482],[0.14375,0.4981481481481482],[0.14375,0.4981481481481482],[0.14375,0.4981481481481482],[0.14375,0.4981481481481482],[0.14375,0.4981481481481482],[0.14375,0.4981481481481482],[0.14375,0.4981481481481482],[0.14375,0.4981481481481482],[0.14375,0.4981481481481482],[0.14375,0.4981481481481482],[0.14375,0.4981481481481482],[0.14375,0.4981481481481482],[0.14375,0.4981481481481482],[0.14375,0.4981481481481482],[0.14375,0.4981481481481482],[0.14375,0.4981481481481482],[0.14375,0.4981481481481482],[0.14375,0.4981481481481482],[0.14375,0.4981481481481482],[0.14375,0.4981481481481482],[0.14375,0.4981481481481482],[0.14375,0.4981481481481482],[0.14375,0.4981481481481482],[0.14166666666666666,0.5],[0.140625,0.5],[0.13958333333333334,0.5],[0.13854166666666667,0.5],[0.13645833333333332,0.5018518518518519],[0.13645833333333332,0.5018518518518519],[0.13645833333333332,0.5018518518518519],[0.13645833333333332,0.5018518518518519],[0.13541666666666666,0.5018518518518519]]","[[0.16885416666666658,-0.09833333333333337],[0.16885416666666658,-0.09833333333333337],[0.1525000000000001,-0.09055555555555551],[0.14093749999999997,-0.07796296296296301],[0.1267708333333334,-0.0801851851851852],[0.10843749999999991,-0.08777777777777773],[0.09541666666666657,-0.09000000000000004],[0.09281249999999991,-0.08796296296296297],[0.09020833333333324,-0.08592592592592588],[0.11437499999999995,-0.09518518518518514],[0.12645833333333342,-0.10111111111111115],[0.1334374999999999,-0.09759259259259258],[0.13802083333333334,-0.0933333333333333],[0.13624999999999995,-0.10092592592592593],[0.13447916666666657,-0.10851851851851856],[0.14364583333333342,-0.10592592592592591],[0.1359375,-0.10999999999999996],[0.11020833333333328,-0.09944444444444442],[0.08927083333333338,-0.09722222222222222],[0.07697916666666677,-0.09537037037037037],[0.06437499999999995,-0.08629629629629634],[0.09854166666666657,-0.10499999999999998],[0.13322916666666676,-0.1301851851851852],[0.14312500000000009,-0.11703703703703702],[0.15697916666666673,-0.10574074074074079],[0.19729166666666675,-0.1272222222222222],[0.24666666666666662,-0.15333333333333335],[0.24666666666666662,-0.15333333333333335],[0.31104166666666655,-0.22111111111111106],[0.3556250000000001,-0.19222222222222224],[0.38604166666666656,-0.16722222222222224],[0.4336458333333333,-0.19277777777777783],[0.45031249999999995,-0.18740740740740738],[0.45281250000000006,-0.18740740740740738],[0.5060416666666666,-0.23703703703703705],[0.5409375,-0.27166666666666667],[0.5482291666666667,-0.287962962962963],[0.5964583333333332,-0.277962962962963],[0.5765625,-0.23648148148148146],[0.5716666666666667,-0.2833333333333333],[0.6013541666666666,-0.3618518518518518],[0.6127083333333334,-0.3698148148148148],[0.61875,-0.4124074074074074],[0.61875,-0.4124074074074074],[0.6213541666666667,-0.4142592592592592],[0.6213541666666667,-0.4142592592592592],[0.6108333333333335,-0.4003703703703704],[0.6297916666666665,-0.36796296296296294],[0.6431250000000001,-0.32592592592592595],[0.5760416666666667,-0.35537037037037034],[0.5620833333333333,-0.3827777777777778],[0.4959374999999999,-0.3512962962962963],[0.4679166666666667,-0.3338888888888889],[0.4021874999999999,-0.31611111111111106],[0.34177083333333325,-0.26370370370370366],[0.27979166666666655,-0.23129629629629625],[0.2625,-0.23648148148148146],[0.21343750000000009,-0.2601851851851852],[0.16697916666666662,-0.28296296296296297],[0.1742708333333333,-0.2616666666666667],[0.1727083333333333,-0.2485185185185185],[0.21593749999999995,-0.23851851851851855],[0.19885416666666675,-0.21148148148148146],[0.22614583333333324,-0.2331481481481481],[0.2743750000000001,-0.2729629629629629],[0.3319791666666667,-0.32685185185185184],[0.3451041666666666,-0.3244444444444444],[0.34010416666666665,-0.3492592592592593],[0.3363541666666668,-0.3598148148148148],[0.33145833333333335,-0.3768518518518518],[0.32302083333333326,-0.3803703703703703],[0.3428124999999999,-0.4301851851851852],[0.3502083333333334,-0.45129629629629625],[0.3502083333333334,-0.45129629629629625],[0.3142708333333334,-0.4946296296296297],[0.2990624999999999,-0.5127777777777778],[0.2990624999999999,-0.5127777777777778],[0.29364583333333344,-0.5322222222222222],[0.22781250000000006,-0.5533333333333333],[0.22781250000000006,-0.5533333333333333],[0.2185416666666666,-0.5714814814814815],[0.2185416666666666,-0.5714814814814815],[0.19416666666666677,-0.5940740740740741],[0.19416666666666677,-0.5940740740740741],[0.2048958333333334,-0.6062962962962962],[0.1944791666666667,-0.620925925925926],[0.1944791666666667,-0.620925925925926],[0.1734375,-0.674074074074074],[0.1734375,-0.674074074074074],[0.1622916666666666,-0.6987037037037037],[0.1622916666666666,-0.6987037037037037],[0.1892708333333334,-0.6799999999999999],[0.15927083333333342,-0.6524074074074074],[0.1326041666666666,-0.6770370370370371],[0.18427083333333344,-0.7229629629629629],[0.21458333333333332,-0.7429629629629629],[0.2561458333333334,-0.7737037037037037],[0.25364583333333335,-0.7725925925925926],[0.2846874999999999,-0.7744444444444444],[0.30593750000000003,-0.7427777777777779],[0.34375,-0.7264814814814815],[0.34791666666666665,-0.740925925925926],[0.38552083333333326,-0.7820370370370371],[0.46812500000000007,-0.7844444444444445],[0.5258333333333333,-0.7772222222222221],[0.5900000000000001,-0.7709259259259259],[0.6541666666666667,-0.7646296296296295],[0.6180208333333332,-0.7262962962962963],[0.6214583333333332,-0.6900000000000001],[0.5904166666666666,-0.649074074074074],[0.5329166666666666,-0.6212962962962963],[0.5201041666666666,-0.5364814814814814],[0.5535416666666667,-0.4537037037037037],[0.5386458333333333,-0.3574074074074074],[0.5237499999999999,-0.2611111111111111],[0.4296875,-0.20703703703703705],[0.33145833333333335,-0.15351851851851847],[0.3553124999999999,-0.14740740740740746],[0.33958333333333335,-0.13925925925925925],[0.29145833333333326,-0.14759259259259258],[0.26572916666666657,-0.16129629629629633],[0.21052083333333324,-0.2064814814814815],[0.09093749999999995,-0.2388888888888889],[-0.004062499999999977,-0.2168518518518519],[-0.14010416666666667,-0.23592592592592587],[-0.17302083333333335,-0.18370370370370367],[-0.22250000000000003,-0.1588888888888889],[-0.2821875,-0.17981481481481484],[-0.3311458333333333,-0.2051851851851852],[-0.3126041666666667,-0.23981481481481481],[-0.3258333333333333,-0.2088888888888889],[-0.3851041666666667,-0.1609259259259259],[-0.31791666666666674,-0.1735185185185185],[-0.3494791666666667,-0.22925925925925927],[-0.31604166666666667,-0.23148148148148148],[-0.33927083333333335,-0.27611111111111114],[-0.32531249999999995,-0.3412962962962963],[-0.3033333333333334,-0.325],[-0.28312499999999996,-0.3012962962962963],[-0.24885416666666665,-0.2846296296296296]]","[[0.16885416666666658,-0.09833333333333337,0.000200000000184275],[0.16885416666666658,-0.09833333333333337,0.03740000000037469],[0.1525000000000001,-0.09055555555555551,0.041100000000561465],[0.14093749999999997,-0.07796296296296301,0.06029999999981328],[0.1267708333333334,-0.0801851851851852,0.074600000000558],[0.10843749999999991,-0.08777777777777773,0.09279999999981214],[0.09541666666666657,-0.09000000000000004,0.11029999999981044],[0.09281249999999991,-0.08796296296296297,0.12429999999981334],[0.09020833333333324,-0.08592592592592588,0.14129999999981635],[0.11437499999999995,-0.09518518518518514,0.15800000000000125],[0.12645833333333342,-0.10111111111111115,0.1742999999998105],[0.1334374999999999,-0.09759259259259258,0.1934000000003735],[0.13802083333333334,-0.0933333333333333,0.20790000000037168],[0.13624999999999995,-0.10092592592592593,0.22449999999999903],[0.13447916666666657,-0.10851851851851856,0.24090000000037293],[0.14364583333333342,-0.10592592592592591,0.26200000000000045],[0.1359375,-0.10999999999999996,0.2777999999998144],[0.11020833333333328,-0.09944444444444442,0.2937000000001859],[0.08927083333333338,-0.09722222222222222,0.30970000000018416],[0.07697916666666677,-0.09537037037037037,0.3272999999998163],[0.06437499999999995,-0.08629629629629634,0.3424000000003744],[0.09854166666666657,-0.10499999999999998,0.3599000000003727],[0.13322916666666676,-0.1301851851851852,0.3777000000001891],[0.14312500000000009,-0.11703703703703702,0.39160000000055817],[0.15697916666666673,-0.10574074074074079,0.40770000000018314],[0.19729166666666675,-0.1272222222222222,0.4245000000000019],[0.24666666666666662,-0.15333333333333335,0.4485000000000028],[0.24666666666666662,-0.15333333333333335,0.4579999999999984],[0.31104166666666655,-0.22111111111111106,0.4744000000003723],[0.3556250000000001,-0.19222222222222224,0.49099999999999966],[0.38604166666666656,-0.16722222222222224,0.5104000000003737],[0.4336458333333333,-0.19277777777777783,0.5244000000003695],[0.45031249999999995,-0.18740740740740738,0.5411000000005615],[0.45281250000000006,-0.18740740740740738,0.5619999999999976],[0.5060416666666666,-0.23703703703703705,0.5766000000005604],[0.5409375,-0.27166666666666667,0.5911000000005586],[0.5482291666666667,-0.287962962962963,0.6076000000005592],[0.5964583333333332,-0.277962962962963,0.6267999999998111],[0.5765625,-0.23648148148148146,0.6409999999999982],[0.5716666666666667,-0.2833333333333333,0.6577000000001831],[0.6013541666666666,-0.3618518518518518,0.6744000000003751],[0.6127083333333334,-0.3698148148148148,0.693299999999816],[0.61875,-0.4124074074074074,0.7122999999998143],[0.61875,-0.4124074074074074,0.7297999999998126],[0.6213541666666667,-0.4142592592592592,0.7490000000000023],[0.6213541666666667,-0.4142592592592592,0.7577999999998113],[0.6108333333333335,-0.4003703703703704,0.7744000000003695],[0.6297916666666665,-0.36796296296296294,0.7911000000005615],[0.6431250000000001,-0.32592592592592595,0.8107999999998157],[0.5760416666666667,-0.35537037037037034,0.824600000000558],[0.5620833333333333,-0.3827777777777778,0.8412000000001854],[0.4959374999999999,-0.3512962962962963,0.8611000000005617],[0.4679166666666667,-0.3338888888888889,0.8744000000003709],[0.4021874999999999,-0.31611111111111106,0.8911000000005558],[0.34177083333333325,-0.26370370370370366,0.907799999999817],[0.27979166666666655,-0.23129629629629625,0.9262999999998129],[0.2625,-0.23648148148148146,0.94110000000056],[0.21343750000000009,-0.2601851851851852,0.9604000000003694],[0.16697916666666662,-0.28296296296296297,0.9744000000003723],[0.1742708333333333,-0.2616666666666667,0.9929000000003754],[0.1727083333333333,-0.2485185185185185,1.007900000000376],[0.21593749999999995,-0.23851851851851855,1.0244000000003695],[0.19885416666666675,-0.21148148148148146,1.0444000000003726],[0.22614583333333324,-0.2331481481481481,1.0604000000003708],[0.2743750000000001,-0.2729629629629629,1.0745000000000005],[0.3319791666666667,-0.32685185185185184,1.0912000000001854],[0.3451041666666666,-0.3244444444444444,1.1107999999998128],[0.34010416666666665,-0.3492592592592593,1.124700000000189],[0.3363541666666668,-0.3598148148148148,1.1409999999999982],[0.33145833333333335,-0.3768518518518518,1.1612999999998124],[0.32302083333333326,-0.3803703703703703,1.1767000000001886],[0.3428124999999999,-0.4301851851851852,1.19110000000056],[0.3502083333333334,-0.45129629629629625,1.2077000000001874],[0.3502083333333334,-0.45129629629629625,1.2267000000001858],[0.3142708333333334,-0.4946296296296297,1.2411000000005572],[0.2990624999999999,-0.5127777777777778,1.2601000000005556],[0.2990624999999999,-0.5127777777777778,1.2744000000003695],[0.29364583333333344,-0.5322222222222222,1.2932999999998103],[0.22781250000000006,-0.5533333333333333,1.3077000000001888],[0.22781250000000006,-0.5533333333333333,1.3242999999998162],[0.2185416666666666,-0.5714814814814815,1.3409000000003743],[0.2185416666666666,-0.5714814814814815,1.357700000000186],[0.19416666666666677,-0.5940740740740741,1.3742000000001866],[0.19416666666666677,-0.5940740740740741,1.3909000000003715],[0.2048958333333334,-0.6062962962962962,1.4074999999999989],[0.1944791666666667,-0.620925925925926,1.4322999999998132],[0.1944791666666667,-0.620925925925926,1.4410000000000025],[0.1734375,-0.674074074074074,1.4579999999999984],[0.1734375,-0.674074074074074,1.4747999999998171],[0.1622916666666666,-0.6987037037037037,1.490900000000373],[0.1622916666666666,-0.6987037037037037,1.5076000000005578],[0.1892708333333334,-0.6799999999999999,1.524299999999812],[0.15927083333333342,-0.6524074074074074,1.54090000000037],[0.1326041666666666,-0.6770370370370371,1.5577999999998156],[0.18427083333333344,-0.7229629629629629,1.5742000000001894],[0.21458333333333332,-0.7429629629629629,1.5909000000003743],[0.2561458333333334,-0.7737037037037037,1.6099000000003727],[0.25364583333333335,-0.7725925925925926,1.6257999999998134],[0.2846874999999999,-0.7744444444444444,1.6409000000003715],[0.30593750000000003,-0.7427777777777779,1.6577000000001831],[0.34375,-0.7264814814814815,1.6742000000001838],[0.34791666666666665,-0.740925925925926,1.6909000000003758],[0.38552083333333326,-0.7820370370370371,1.7075000000000031],[0.46812500000000007,-0.7844444444444445,1.7242999999998148],[0.5258333333333333,-0.7772222222222221,1.740900000000373],[0.5900000000000001,-0.7709259259259259,1.7584000000003712],[0.6541666666666667,-0.7646296296296295,1.774299999999812],[0.6180208333333332,-0.7262962962962963,1.7909999999999968],[0.6214583333333332,-0.6900000000000001,1.8077999999998156],[0.5904166666666666,-0.649074074074074,1.8242999999998162],[0.5329166666666666,-0.6212962962962963,1.8409000000003743],[0.5201041666666666,-0.5364814814814814,1.8612000000001885],[0.5535416666666667,-0.4537037037037037,1.8774999999999977],[0.5386458333333333,-0.3574074074074074,1.8912999999998164],[0.5237499999999999,-0.2611111111111111,1.9076000000005564],[0.4296875,-0.20703703703703705,1.9242999999998105],[0.33145833333333335,-0.15351851851851847,1.9409000000003758],[0.3553124999999999,-0.14740740740740746,1.9582999999998165],[0.33958333333333335,-0.13925925925925925,1.974200000000188],[0.29145833333333326,-0.14759259259259258,1.990900000000373],[0.26572916666666657,-0.16129629629629633,2.0075000000000003],[0.21052083333333324,-0.2064814814814815,2.024299999999812],[0.09093749999999995,-0.2388888888888889,2.04090000000037],[-0.004062499999999977,-0.2168518518518519,2.057600000000562],[-0.14010416666666667,-0.23592592592592587,2.0742000000001894],[-0.17302083333333335,-0.18370370370370367,2.090799999999817],[-0.22250000000000003,-0.1588888888888889,2.1076000000005592],[-0.2821875,-0.17981481481481484,2.1242999999998133],[-0.3311458333333333,-0.2051851851851852,2.1409000000003715],[-0.3126041666666667,-0.23981481481481481,2.159600000000559],[-0.3258333333333333,-0.2088888888888889,2.1742000000001838],[-0.3851041666666667,-0.1609259259259259,2.1931000000005554],[-0.31791666666666674,-0.1735185185185185,2.207799999999814],[-0.3494791666666667,-0.22925925925925927,2.2244000000003723],[-0.31604166666666667,-0.23148148148148148,2.2409999999999997],[-0.33927083333333335,-0.27611111111111114,2.261200000000187],[-0.32531249999999995,-0.3412962962962963,2.274200000000185],[-0.3033333333333334,-0.325,2.29090000000037],[-0.28312499999999996,-0.3012962962962963,2.307600000000562],[-0.24885416666666665,-0.2846296296296296,2.3266000000005604]]","[0.000200000000184275,0.03740000000037469,0.041100000000561465,0.06029999999981328,0.074600000000558,0.09279999999981214,0.11029999999981044,0.12429999999981334,0.14129999999981635,0.15800000000000125,0.1742999999998105,0.1934000000003735,0.20790000000037168,0.22449999999999903,0.24090000000037293,0.26200000000000045,0.2777999999998144,0.2937000000001859,0.30970000000018416,0.3272999999998163,0.3424000000003744,0.3599000000003727,0.3777000000001891,0.39160000000055817,0.40770000000018314,0.4245000000000019,0.4485000000000028,0.4579999999999984,0.4744000000003723,0.49099999999999966,0.5104000000003737,0.5244000000003695,0.5411000000005615,0.5619999999999976,0.5766000000005604,0.5911000000005586,0.6076000000005592,0.6267999999998111,0.6409999999999982,0.6577000000001831,0.6744000000003751,0.693299999999816,0.7122999999998143,0.7297999999998126,0.7490000000000023,0.7577999999998113,0.7744000000003695,0.7911000000005615,0.8107999999998157,0.824600000000558,0.8412000000001854,0.8611000000005617,0.8744000000003709,0.8911000000005558,0.907799999999817,0.9262999999998129,0.94110000000056,0.9604000000003694,0.9744000000003723,0.9929000000003754,1.007900000000376,1.0244000000003695,1.0444000000003726,1.0604000000003708,1.0745000000000005,1.0912000000001854,1.1107999999998128,1.124700000000189,1.1409999999999982,1.1612999999998124,1.1767000000001886,1.19110000000056,1.2077000000001874,1.2267000000001858,1.2411000000005572,1.2601000000005556,1.2744000000003695,1.2932999999998103,1.3077000000001888,1.3242999999998162,1.3409000000003743,1.357700000000186,1.3742000000001866,1.3909000000003715,1.4074999999999989,1.4322999999998132,1.4410000000000025,1.4579999999999984,1.4747999999998171,1.490900000000373,1.5076000000005578,1.524299999999812,1.54090000000037,1.5577999999998156,1.5742000000001894,1.5909000000003743,1.6099000000003727,1.6257999999998134,1.6409000000003715,1.6577000000001831,1.6742000000001838,1.6909000000003758,1.7075000000000031,1.7242999999998148,1.740900000000373,1.7584000000003712,1.774299999999812,1.7909999999999968,1.8077999999998156,1.8242999999998162,1.8409000000003743,1.8612000000001885,1.8774999999999977,1.8912999999998164,1.9076000000005564,1.9242999999998105,1.9409000000003758,1.9582999999998165,1.974200000000188,1.990900000000373,2.0075000000000003,2.024299999999812,2.04090000000037,2.057600000000562,2.0742000000001894,2.090799999999817,2.1076000000005592,2.1242999999998133,2.1409000000003715,2.159600000000559,2.1742000000001838,2.1931000000005554,2.207799999999814,2.2244000000003723,2.2409999999999997,2.261200000000187,2.274200000000185,2.29090000000037,2.307600000000562,2.3266000000005604]","[1733117891417,1733117891451,1733117891455,1733117891474,1733117891488,1733117891506,1733117891524,1733117891538,1733117891555,1733117891572,1733117891588,1733117891607,1733117891621,1733117891638,1733117891655,1733117891676,1733117891691,1733117891707,1733117891723,1733117891741,1733117891756,1733117891773,1733117891791,1733117891805,1733117891821,1733117891838,1733117891862,1733117891872,1733117891888,1733117891905,1733117891924,1733117891938,1733117891955,1733117891976,1733117891990,1733117892005,1733117892021,1733117892040,1733117892055,1733117892071,1733117892088,1733117892107,1733117892126,1733117892143,1733117892163,1733117892171,1733117892188,1733117892205,1733117892224,1733117892238,1733117892255,1733117892275,1733117892288,1733117892305,1733117892321,1733117892340,1733117892355,1733117892374,1733117892388,1733117892407,1733117892421,1733117892438,1733117892458,1733117892474,1733117892488,1733117892505,1733117892524,1733117892538,1733117892555,1733117892575,1733117892590,1733117892605,1733117892621,1733117892640,1733117892655,1733117892674,1733117892688,1733117892707,1733117892721,1733117892738,1733117892755,1733117892771,1733117892788,1733117892805,1733117892821,1733117892846,1733117892855,1733117892872,1733117892888,1733117892904,1733117892921,1733117892938,1733117892954,1733117892971,1733117892988,1733117893004,1733117893023,1733117893039,1733117893055,1733117893071,1733117893088,1733117893104,1733117893121,1733117893138,1733117893155,1733117893172,1733117893188,1733117893205,1733117893221,1733117893238,1733117893254,1733117893275,1733117893291,1733117893305,1733117893321,1733117893338,1733117893354,1733117893372,1733117893388,1733117893404,1733117893421,1733117893438,1733117893454,1733117893471,1733117893488,1733117893504,1733117893521,1733117893538,1733117893554,1733117893573,1733117893588,1733117893607,1733117893621,1733117893638,1733117893655,1733117893675,1733117893688,1733117893704,1733117893721,1733117893740]","[[1122.1,486.9],[1122.1,486.9],[1106.4,491.1],[1095.3,497.9],[1081.7,496.7],[1064.1,492.6],[1051.6,491.4],[1049.1,492.5],[1046.6,493.6],[1069.8,488.6],[1081.4,485.4],[1088.1,487.3],[1092.5,489.6],[1090.8,485.5],[1089.1,481.4],[1097.9,482.8],[1090.5,480.6],[1065.8,486.3],[1045.7,487.5],[1033.9,488.5],[1021.8,493.4],[1054.6,483.3],[1087.9,469.7],[1097.4,476.8],[1110.7,482.9],[1149.4,471.3],[1196.8,457.2],[1196.8,457.2],[1258.6,420.6],[1301.4,436.2],[1330.6,449.7],[1376.3,435.9],[1392.3,438.8],[1394.7,438.8],[1445.8,412],[1479.3,393.3],[1486.3,384.5],[1532.6,389.9],[1513.5,412.3],[1508.8,387],[1537.3,344.6],[1548.2,340.3],[1554,317.3],[1554,317.3],[1556.5,316.3],[1556.5,316.3],[1546.4,323.8],[1564.6,341.3],[1577.4,364],[1513,348.1],[1499.6,333.3],[1436.1,350.3],[1409.2,359.7],[1346.1,369.3],[1288.1,397.6],[1228.6,415.1],[1212,412.3],[1164.9,399.5],[1120.3,387.2],[1127.3,398.7],[1125.8,405.8],[1167.3,411.2],[1150.9,425.8],[1177.1,414.1],[1223.4,392.6],[1278.7,363.5],[1291.3,364.8],[1286.5,351.4],[1282.9,345.7],[1278.2,336.5],[1270.1,334.6],[1289.1,307.7],[1296.2,296.3],[1296.2,296.3],[1261.7,272.9],[1247.1,263.1],[1247.1,263.1],[1241.9,252.6],[1178.7,241.2],[1178.7,241.2],[1169.8,231.4],[1169.8,231.4],[1146.4,219.2],[1146.4,219.2],[1156.7,212.6],[1146.7,204.7],[1146.7,204.7],[1126.5,176],[1126.5,176],[1115.8,162.7],[1115.8,162.7],[1141.7,172.8],[1112.9,187.7],[1087.3,174.4],[1136.9,149.6],[1166,138.8],[1205.9,122.2],[1203.5,122.8],[1233.3,121.8],[1253.7,138.9],[1290,147.7],[1294,139.9],[1330.1,117.7],[1409.4,116.4],[1464.8,120.3],[1526.4,123.7],[1588,127.1],[1553.3,147.8],[1556.6,167.4],[1526.8,189.5],[1471.6,204.5],[1459.3,250.3],[1491.4,295],[1477.1,347],[1462.8,399],[1372.5,428.2],[1278.2,457.1],[1301.1,460.4],[1286,464.8],[1239.8,460.3],[1215.1,452.9],[1162.1,428.5],[1047.3,411],[956.1,422.9],[825.5,412.6],[793.9,440.8],[746.4,454.2],[689.1,442.9],[642.1,429.2],[659.9,410.5],[647.2,427.2],[590.3,453.1],[654.8,446.3],[624.5,416.2],[656.6,415],[634.3,390.9],[647.7,355.7],[668.8,364.5],[688.2,377.3],[721.1,386.3]]","[0,0.5333]","[0.5333,0.5333]","[-0.5333,-0.5333]","[-0.5333,0]","[0,-0.5333]","[0.5333,-0.5333]","[0,0]","[0.5333,0]",0,0,0,0,1,3,Monitor,11,9,9,1
,,,,,,,,,,,,,,,,,,,05,001,2024-12-02_13h37.34.090,Attention_exp_legacy,2023.1.0,Win32,60.24096386,,,,,,,,,,,[0.478125],[0.4888888888888889],[1],[0],[0],[1.181400000000366],"[""Option2_label""]",Option2_label,2,2.1996,"[[0.10104166666666667,0.5092592592592593],[0.10104166666666667,0.5092592592592593],[0.10104166666666667,0.5092592592592593],[0.10104166666666667,0.5092592592592593],[0.10104166666666667,0.5092592592592593],[0.10104166666666667,0.5092592592592593],[0.10104166666666667,0.5092592592592593],[0.10104166666666667,0.5092592592592593],[0.10104166666666667,0.5092592592592593],[0.10104166666666667,0.5092592592592593],[0.10104166666666667,0.5092592592592593],[0.10104166666666667,0.5092592592592593],[0.10104166666666667,0.5092592592592593],[0.10104166666666667,0.5092592592592593],[0.10104166666666667,0.5092592592592593],[0.10104166666666667,0.5092592592592593],[0.10104166666666667,0.5092592592592593],[0.10104166666666667,0.5092592592592593],[0.10104166666666667,0.5092592592592593],[0.10104166666666667,0.5092592592592593],[0.10104166666666667,0.5092592592592593],[0.10104166666666667,0.5092592592592593],[0.10104166666666667,0.5092592592592593],[0.10104166666666667,0.5092592592592593],[0.10104166666666667,0.5092592592592593],[0.10104166666666667,0.5092592592592593],[0.10104166666666667,0.5092592592592593],[0.10104166666666667,0.5092592592592593],[0.10104166666666667,0.5092592592592593],[0.10104166666666667,0.5092592592592593],[0.10104166666666667,0.5092592592592593],[0.10104166666666667,0.5092592592592593],[0.10104166666666667,0.5092592592592593],[0.10104166666666667,0.5092592592592593],[0.10104166666666667,0.5092592592592593],[0.10104166666666667,0.5092592592592593],[0.10104166666666667,0.5092592592592593],[0.10104166666666667,0.5092592592592593],[0.10104166666666667,0.5092592592592593],[0.10104166666666667,0.5092592592592593],[0.10104166666666667,0.5092592592592593],[0.10104166666666667,0.5092592592592593],[0.10104166666666667,0.5092592592592593],[0.10104166666666667,0.5092592592592593],[0.10104166666666667,0.5092592592592593],[0.10104166666666667,0.5092592592592593],[0.10104166666666667,0.5092592592592593],[0.11041666666666666,0.5092592592592593],[0.13125,0.5092592592592593],[0.17083333333333334,0.5092592592592593],[0.23854166666666668,0.5092592592592593],[0.29375,0.5018518518518519],[0.3333333333333333,0.49444444444444446],[0.36354166666666665,0.4888888888888889],[0.3854166666666667,0.4888888888888889],[0.40625,0.4888888888888889],[0.42291666666666666,0.4888888888888889],[0.44375,0.4888888888888889],[0.45625,0.4888888888888889],[0.46458333333333335,0.4888888888888889],[0.4708333333333333,0.4888888888888889],[0.4739583333333333,0.4888888888888889],[0.47604166666666664,0.4888888888888889],[0.47604166666666664,0.4888888888888889],[0.47708333333333336,0.4888888888888889],[0.47708333333333336,0.4888888888888889],[0.478125,0.4888888888888889],[0.478125,0.4888888888888889],[0.478125,0.4888888888888889],[0.478125,0.4888888888888889],[0.478125,0.4888888888888889],[0.478125,0.4888888888888889],[0.478125,0.4888888888888889],[0.478125,0.4888888888888889],[0.478125,0.4888888888888889],[0.478125,0.4888888888888889],[0.478125,0.4888888888888889],[0.478125,0.4888888888888889],[0.478125,0.4888888888888889],[0.478125,0.4888888888888889],[0.478125,0.4888888888888889],[0.478125,0.4888888888888889],[0.478125,0.4888888888888889],[0.478125,0.4888888888888889],[0.478125,0.4888888888888889],[0.478125,0.4888888888888889],[0.478125,0.4888888888888889],[0.478125,0.4888888888888889],[0.478125,0.4888888888888889],[0.478125,0.4888888888888889],[0.478125,0.4888888888888889],[0.478125,0.4888888888888889],[0.478125,0.4888888888888889],[0.478125,0.4888888888888889],[0.478125,0.4888888888888889],[0.478125,0.4888888888888889],[0.478125,0.4888888888888889],[0.478125,0.4888888888888889],[0.478125,0.4888888888888889],[0.478125,0.4888888888888889],[0.478125,0.4888888888888889],[0.478125,0.4888888888888889],[0.478125,0.4888888888888889],[0.478125,0.4888888888888889],[0.478125,0.4888888888888889],[0.478125,0.4888888888888889],[0.478125,0.4888888888888889],[0.478125,0.4888888888888889],[0.478125,0.4888888888888889],[0.478125,0.4888888888888889],[0.478125,0.4888888888888889],[0.478125,0.4888888888888889],[0.478125,0.4888888888888889],[0.478125,0.4888888888888889],[0.478125,0.4888888888888889],[0.478125,0.4888888888888889],[0.478125,0.4888888888888889],[0.478125,0.4888888888888889],[0.478125,0.4888888888888889],[0.478125,0.4888888888888889],[0.478125,0.4888888888888889],[0.478125,0.4888888888888889],[0.478125,0.4888888888888889],[0.478125,0.4888888888888889],[0.478125,0.4888888888888889],[0.478125,0.4888888888888889],[0.478125,0.4888888888888889],[0.478125,0.4888888888888889],[0.478125,0.4888888888888889],[0.478125,0.4888888888888889],[0.478125,0.4888888888888889],[0.478125,0.4888888888888889],[0.478125,0.4888888888888889]]","[[0.09937500000000009,-0.3881481481481482],[0.10572916666666667,-0.3957407407407407],[0.11447916666666676,-0.4046296296296296],[0.12833333333333338,-0.4440740740740741],[0.1421875,-0.48351851851851857],[0.15614583333333343,-0.5107407407407407],[0.15614583333333343,-0.5107407407407407],[0.18218750000000009,-0.5433333333333333],[0.18218750000000009,-0.5433333333333333],[0.18041666666666673,-0.5477777777777778],[0.1806250000000001,-0.5609259259259259],[0.1929166666666667,-0.5311111111111111],[0.1929166666666667,-0.5311111111111111],[0.2039583333333333,-0.5007407407407407],[0.2039583333333333,-0.5007407407407407],[0.19406249999999994,-0.462037037037037],[0.19406249999999994,-0.462037037037037],[0.15197916666666675,-0.4337037037037037],[0.15197916666666675,-0.4337037037037037],[0.14333333333333323,-0.3787037037037037],[0.14333333333333323,-0.3787037037037037],[0.1384375000000001,-0.3151851851851852],[0.1384375000000001,-0.3151851851851852],[0.13354166666666673,-0.25555555555555554],[0.16802083333333329,-0.22888888888888892],[0.20750000000000005,-0.1772222222222222],[0.24697916666666658,-0.1255555555555556],[0.24145833333333327,-0.12444444444444443],[0.2359375,-0.12333333333333338],[0.22208333333333338,-0.11740740740740736],[0.2404166666666666,-0.10111111111111115],[0.28583333333333344,-0.09166666666666666],[0.31572916666666656,-0.11666666666666667],[0.3419791666666666,-0.14833333333333337],[0.3288541666666667,-0.147037037037037],[0.33781249999999996,-0.16444444444444448],[0.3467708333333334,-0.18185185185185182],[0.37135416666666665,-0.16833333333333328],[0.3959374999999999,-0.15481481481481485],[0.45645833333333335,-0.1935185185185185],[0.5394791666666667,-0.23037037037037034],[0.5347916666666668,-0.267037037037037],[0.541875,-0.2777777777777778],[0.5421875,-0.259074074074074],[0.5498958333333335,-0.2544444444444444],[0.5580208333333334,-0.28481481481481485],[0.5472916666666667,-0.31203703703703706],[0.5601041666666667,-0.3177777777777778],[0.5370833333333332,-0.35907407407407405],[0.5020833333333333,-0.33777777777777773],[0.4445833333333333,-0.3183333333333333],[0.4131249999999999,-0.32759259259259255],[0.38166666666666677,-0.3368518518518518],[0.35,-0.3768518518518518],[0.3304166666666667,-0.392037037037037],[0.3,-0.38],[0.31364583333333323,-0.3931481481481482],[0.3264583333333334,-0.43648148148148147],[0.3597916666666668,-0.4346296296296296],[0.3797916666666666,-0.4581481481481481],[0.3997916666666666,-0.4816666666666667],[0.3997916666666666,-0.4816666666666667],[0.3685416666666666,-0.4812962962962963],[0.3853125000000001,-0.48259259259259263],[0.37489583333333343,-0.4812962962962963],[0.3303124999999999,-0.4883333333333333],[0.28572916666666665,-0.49537037037037035],[0.28572916666666665,-0.49537037037037035],[0.21291666666666675,-0.4759259259259259],[0.21291666666666675,-0.4759259259259259],[0.1502083333333334,-0.44240740740740736],[0.10291666666666661,-0.43648148148148147],[0.04593750000000003,-0.42851851851851847],[-0.02687499999999995,-0.40407407407407403],[-0.036354166666666646,-0.38499999999999995],[-0.08177083333333333,-0.3814814814814815],[-0.09302083333333329,-0.3792592592592593],[-0.09135416666666671,-0.3690740740740741],[-0.08968750000000002,-0.3588888888888889],[-0.09041666666666662,-0.3357407407407408],[-0.07458333333333336,-0.37037037037037035],[-0.023958333333333335,-0.3762962962962963],[0.02666666666666669,-0.3822222222222222],[0.025833333333333285,-0.3866666666666667],[0.025,-0.3911111111111111],[0.003854166666666714,-0.3846296296296296],[-0.01729166666666669,-0.3781481481481481],[-0.03093750000000005,-0.39000000000000007],[-0.02385416666666664,-0.3861111111111111],[-0.023958333333333335,-0.41388888888888886],[-0.050729166666666714,-0.3979629629629629],[-0.10604166666666662,-0.3864814814814815],[-0.16135416666666663,-0.375],[-0.16593749999999996,-0.3714814814814815],[-0.17052083333333337,-0.36796296296296294],[-0.17093750000000002,-0.3901851851851852],[-0.17135416666666667,-0.4124074074074074],[-0.18312499999999995,-0.4148148148148148],[-0.215625,-0.432962962962963],[-0.22281249999999997,-0.4438888888888889],[-0.22999999999999995,-0.45481481481481484],[-0.2257291666666667,-0.4557407407407408],[-0.22145833333333337,-0.4566666666666667],[-0.21656249999999996,-0.47481481481481475],[-0.22093750000000004,-0.482962962962963],[-0.22124999999999997,-0.459074074074074],[-0.22156250000000005,-0.4351851851851852],[-0.19114583333333332,-0.4101851851851852],[-0.15906250000000005,-0.38499999999999995],[-0.14874999999999997,-0.37666666666666665],[-0.13843749999999996,-0.3683333333333333],[-0.13697916666666668,-0.35055555555555556],[-0.13552083333333337,-0.3327777777777778],[-0.10135416666666662,-0.3014814814814815],[-0.06510416666666667,-0.27518518518518525],[-0.03937499999999995,-0.24833333333333338],[-0.013645833333333357,-0.22148148148148153],[-0.0036458333333333334,-0.21277777777777773],[0.003125,-0.20462962962962963],[0.02666666666666669,-0.17888888888888893],[0.05020833333333338,-0.15314814814814812],[0.06354166666666666,-0.15555555555555556],[0.07687499999999996,-0.15796296296296297],[0.08718750000000004,-0.15703703703703706],[0.1046875,-0.16111111111111112],[0.10020833333333339,-0.17962962962962964],[0.10625,-0.16740740740740737],[0.10625,-0.16740740740740737],[0.10291666666666661,-0.15],[0.11135416666666677,-0.1522222222222222],[0.11208333333333324,-0.14814814814814814],[0.10322916666666657,-0.13203703703703706],[0.09562499999999995,-0.11351851851851855]]","[[0.09937500000000009,-0.3881481481481482,0.00010000000055754299],[0.10572916666666667,-0.3957407407407407,0.020300000000744944],[0.11447916666666676,-0.4046296296296296,0.03530000000074551],[0.12833333333333338,-0.4440740740740741,0.04960000000055942],[0.1421875,-0.48351851851851857,0.06640000000037105],[0.15614583333333343,-0.5107407407407407,0.08290000000037168],[0.15614583333333343,-0.5107407407407407,0.09970000000019041],[0.18218750000000009,-0.5433333333333333,0.11650000000000205],[0.18218750000000009,-0.5433333333333333,0.13290000000037594],[0.18041666666666673,-0.5477777777777778,0.14960000000056084],[0.1806250000000001,-0.5609259259259259,0.1662000000001882],[0.1929166666666667,-0.5311111111111111,0.18650000000000233],[0.1929166666666667,-0.5311111111111111,0.19950000000000045],[0.2039583333333333,-0.5007407407407407,0.21630000000075],[0.2039583333333333,-0.5007407407407407,0.23290000000037736],[0.19406249999999994,-0.462037037037037,0.24950000000000472],[0.19406249999999994,-0.462037037037037,0.26630000000074716],[0.15197916666666675,-0.4337037037037037,0.2833000000007502],[0.15197916666666675,-0.4337037037037037,0.2996000000005594],[0.14333333333333323,-0.3787037037037037,0.31640000000037105],[0.14333333333333323,-0.3787037037037037,0.3329000000003717],[0.1384375000000001,-0.3151851851851852,0.3496000000005637],[0.1384375000000001,-0.3151851851851852,0.36620000000019104],[0.13354166666666673,-0.25555555555555554,0.38290000000037594],[0.16802083333333329,-0.22888888888888892,0.3995000000000033],[0.20750000000000005,-0.1772222222222222,0.4176000000005615],[0.24697916666666658,-0.1255555555555556,0.43280000000074637],[0.24145833333333327,-0.12444444444444443,0.449600000000558],[0.2359375,-0.12333333333333338,0.46620000000018536],[0.22208333333333338,-0.11740740740740736,0.48290000000037736],[0.2404166666666666,-0.10111111111111115,0.499700000000189],[0.28583333333333344,-0.09166666666666666,0.5162000000001896],[0.31572916666666656,-0.11666666666666667,0.5329000000003745],[0.3419791666666666,-0.14833333333333337,0.5496000000005594],[0.3288541666666667,-0.147037037037037,0.5662000000001868],[0.33781249999999996,-0.16444444444444448,0.5829000000003717],[0.3467708333333334,-0.18185185185185182,0.5996000000005637],[0.37135416666666665,-0.16833333333333328,0.616200000000191],[0.3959374999999999,-0.15481481481481485,0.6329000000003759],[0.45645833333333335,-0.1935185185185185,0.6496000000005608],[0.5394791666666667,-0.23037037037037034,0.6663000000007457],[0.5347916666666668,-0.267037037037037,0.6829000000003731],[0.541875,-0.2777777777777778,0.7018000000007447],[0.5421875,-0.259074074074074,0.71630000000075],[0.5498958333333335,-0.2544444444444444,0.7329000000003774],[0.5580208333333334,-0.28481481481481485,0.7495000000000047],[0.5472916666666667,-0.31203703703703706,0.7662000000001896],[0.5601041666666667,-0.3177777777777778,0.785499999999999],[0.5370833333333332,-0.35907407407407405,0.7997000000001862],[0.5020833333333333,-0.33777777777777773,0.8177000000001868],[0.4445833333333333,-0.3183333333333333,0.8362000000001899],[0.4131249999999999,-0.32759259259259255,0.8500000000000014],[0.38166666666666677,-0.3368518518518518,0.8664000000003753],[0.35,-0.3768518518518518,0.8855000000000004],[0.3304166666666667,-0.392037037037037,0.8997000000001876],[0.3,-0.38,0.9168000000007481],[0.31364583333333323,-0.3931481481481482,0.9332000000001912],[0.3264583333333334,-0.43648148148148147,0.9521000000005628],[0.3597916666666668,-0.4346296296296296,0.9688000000007477],[0.3797916666666666,-0.4581481481481481,0.9831000000005616],[0.3997916666666666,-0.4816666666666667,1.0041000000005624],[0.3997916666666666,-0.4816666666666667,1.016400000000374],[0.3685416666666666,-0.4812962962962963,1.0331000000005588],[0.3853125000000001,-0.48259259259259263,1.0513000000007438],[0.37489583333333343,-0.4812962962962963,1.0690000000000026],[0.3303124999999999,-0.4883333333333333,1.0829000000003717],[0.28572916666666665,-0.49537037037037035,1.108000000000004],[0.28572916666666665,-0.49537037037037035,1.1292000000001892],[0.21291666666666675,-0.4759259259259259,1.1460000000000008],[0.21291666666666675,-0.4759259259259259,1.1539000000003767],[0.1502083333333334,-0.44240740740740736,1.1662000000001882],[0.10291666666666661,-0.43648148148148147,1.182900000000373],[0.04593750000000003,-0.42851851851851847,1.199600000000558],[-0.02687499999999995,-0.40407407407407403,1.2179000000003768],[-0.036354166666666646,-0.38499999999999995,1.2329000000003774],[-0.08177083333333333,-0.3814814814814815,1.2496000000005623],[-0.09302083333333329,-0.3792592592592593,1.2662000000001896],[-0.09135416666666671,-0.3690740740740741,1.2829000000003745],[-0.08968750000000002,-0.3588888888888889,1.2996000000005594],[-0.09041666666666662,-0.3357407407407408,1.3163000000007443],[-0.07458333333333336,-0.37037037037037035,1.3329000000003717],[-0.023958333333333335,-0.3762962962962963,1.3511000000005637],[0.02666666666666669,-0.3822222222222222,1.3663000000007486],[0.025833333333333285,-0.3866666666666667,1.382900000000376],[0.025,-0.3911111111111111,1.3996000000005608],[0.003854166666666714,-0.3846296296296296,1.4166000000005639],[-0.01729166666666669,-0.3781481481481481,1.432900000000373],[-0.03093750000000005,-0.39000000000000007,1.449600000000558],[-0.02385416666666664,-0.3861111111111111,1.4662000000001854],[-0.023958333333333335,-0.41388888888888886,1.4829000000003774],[-0.050729166666666714,-0.3979629629629629,1.4996000000005623],[-0.10604166666666662,-0.3864814814814815,1.5183000000007496],[-0.16135416666666663,-0.375,1.5329000000003745],[-0.16593749999999996,-0.3714814814814815,1.5495000000000019],[-0.17052083333333337,-0.36796296296296294,1.5662000000001868],[-0.17093750000000002,-0.3901851851851852,1.5829000000003717],[-0.17135416666666667,-0.4124074074074074,1.5996000000005637],[-0.18312499999999995,-0.4148148148148148,1.616200000000191],[-0.215625,-0.432962962962963,1.632900000000376],[-0.22281249999999997,-0.4438888888888889,1.6495000000000033],[-0.22999999999999995,-0.45481481481481484,1.6663000000007457],[-0.2257291666666667,-0.4557407407407408,1.682900000000373],[-0.22145833333333337,-0.4566666666666667,1.6997000000001847],[-0.21656249999999996,-0.47481481481481475,1.7162000000001854],[-0.22093750000000004,-0.482962962962963,1.7329000000003774],[-0.22124999999999997,-0.459074074074074,1.7495000000000047],[-0.22156250000000005,-0.4351851851851852,1.7662000000001896],[-0.19114583333333332,-0.4101851851851852,1.7829000000003745],[-0.15906250000000005,-0.38499999999999995,1.7996000000005594],[-0.14874999999999997,-0.37666666666666665,1.8162000000001868],[-0.13843749999999996,-0.3683333333333333,1.832800000000745],[-0.13697916666666668,-0.35055555555555556,1.8496000000005637],[-0.13552083333333337,-0.3327777777777778,1.8663000000007486],[-0.10135416666666662,-0.3014814814814815,1.8828000000007492],[-0.06510416666666667,-0.27518518518518525,1.8995000000000033],[-0.03937499999999995,-0.24833333333333338,1.9162000000001882],[-0.013645833333333357,-0.22148148148148153,1.932900000000373],[-0.0036458333333333334,-0.21277777777777773,1.9495000000000005],[0.003125,-0.20462962962962963,1.96630000000075],[0.02666666666666669,-0.17888888888888893,1.9828000000007435],[0.05020833333333338,-0.15314814814814812,1.9996000000005623],[0.06354166666666666,-0.15555555555555556,2.016400000000374],[0.07687499999999996,-0.15796296296296297,2.0330000000000013],[0.08718750000000004,-0.15703703703703706,2.049500000000002],[0.1046875,-0.16111111111111112,2.0663000000007443],[0.10020833333333339,-0.17962962962962964,2.0829000000003717],[0.10625,-0.16740740740740737,2.0996000000005637],[0.10625,-0.16740740740740737,2.1163000000007486],[0.10291666666666661,-0.15,2.13310000000056],[0.11135416666666677,-0.1522222222222222,2.1495000000000033],[0.11208333333333324,-0.14814814814814814,2.166200000000188],[0.10322916666666657,-0.13203703703703706,2.182900000000373],[0.09562499999999995,-0.11351851851851855,2.199600000000558]]","[0.00010000000055754299,0.020300000000744944,0.03530000000074551,0.04960000000055942,0.06640000000037105,0.08290000000037168,0.09970000000019041,0.11650000000000205,0.13290000000037594,0.14960000000056084,0.1662000000001882,0.18650000000000233,0.19950000000000045,0.21630000000075,0.23290000000037736,0.24950000000000472,0.26630000000074716,0.2833000000007502,0.2996000000005594,0.31640000000037105,0.3329000000003717,0.3496000000005637,0.36620000000019104,0.38290000000037594,0.3995000000000033,0.4176000000005615,0.43280000000074637,0.449600000000558,0.46620000000018536,0.48290000000037736,0.499700000000189,0.5162000000001896,0.5329000000003745,0.5496000000005594,0.5662000000001868,0.5829000000003717,0.5996000000005637,0.616200000000191,0.6329000000003759,0.6496000000005608,0.6663000000007457,0.6829000000003731,0.7018000000007447,0.71630000000075,0.7329000000003774,0.7495000000000047,0.7662000000001896,0.785499999999999,0.7997000000001862,0.8177000000001868,0.8362000000001899,0.8500000000000014,0.8664000000003753,0.8855000000000004,0.8997000000001876,0.9168000000007481,0.9332000000001912,0.9521000000005628,0.9688000000007477,0.9831000000005616,1.0041000000005624,1.016400000000374,1.0331000000005588,1.0513000000007438,1.0690000000000026,1.0829000000003717,1.108000000000004,1.1292000000001892,1.1460000000000008,1.1539000000003767,1.1662000000001882,1.182900000000373,1.199600000000558,1.2179000000003768,1.2329000000003774,1.2496000000005623,1.2662000000001896,1.2829000000003745,1.2996000000005594,1.3163000000007443,1.3329000000003717,1.3511000000005637,1.3663000000007486,1.382900000000376,1.3996000000005608,1.4166000000005639,1.432900000000373,1.449600000000558,1.4662000000001854,1.4829000000003774,1.4996000000005623,1.5183000000007496,1.5329000000003745,1.5495000000000019,1.5662000000001868,1.5829000000003717,1.5996000000005637,1.616200000000191,1.632900000000376,1.6495000000000033,1.6663000000007457,1.682900000000373,1.6997000000001847,1.7162000000001854,1.7329000000003774,1.7495000000000047,1.7662000000001896,1.7829000000003745,1.7996000000005594,1.8162000000001868,1.832800000000745,1.8496000000005637,1.8663000000007486,1.8828000000007492,1.8995000000000033,1.9162000000001882,1.932900000000373,1.9495000000000005,1.96630000000075,1.9828000000007435,1.9996000000005623,2.016400000000374,2.0330000000000013,2.049500000000002,2.0663000000007443,2.0829000000003717,2.0996000000005637,2.1163000000007486,2.13310000000056,2.1495000000000033,2.166200000000188,2.182900000000373,2.199600000000558]","[1733117894757,1733117894775,1733117894790,1733117894804,1733117894821,1733117894838,1733117894855,1733117894871,1733117894888,1733117894904,1733117894921,1733117894941,1733117894954,1733117894971,1733117894988,1733117895004,1733117895021,1733117895038,1733117895054,1733117895071,1733117895088,1733117895105,1733117895121,1733117895138,1733117895154,1733117895173,1733117895188,1733117895204,1733117895221,1733117895238,1733117895255,1733117895271,1733117895288,1733117895304,1733117895321,1733117895338,1733117895354,1733117895371,1733117895388,1733117895404,1733117895421,1733117895438,1733117895457,1733117895471,1733117895488,1733117895504,1733117895521,1733117895540,1733117895555,1733117895573,1733117895591,1733117895605,1733117895621,1733117895640,1733117895655,1733117895672,1733117895688,1733117895707,1733117895724,1733117895738,1733117895759,1733117895771,1733117895788,1733117895806,1733117895824,1733117895838,1733117895863,1733117895884,1733117895901,1733117895909,1733117895921,1733117895938,1733117895955,1733117895973,1733117895988,1733117896005,1733117896021,1733117896038,1733117896054,1733117896071,1733117896088,1733117896106,1733117896121,1733117896138,1733117896154,1733117896172,1733117896188,1733117896204,1733117896221,1733117896238,1733117896255,1733117896273,1733117896288,1733117896304,1733117896321,1733117896338,1733117896354,1733117896371,1733117896388,1733117896404,1733117896421,1733117896438,1733117896455,1733117896471,1733117896488,1733117896504,1733117896521,1733117896538,1733117896554,1733117896571,1733117896588,1733117896604,1733117896621,1733117896638,1733117896654,1733117896671,1733117896688,1733117896704,1733117896721,1733117896738,1733117896754,1733117896771,1733117896788,1733117896804,1733117896821,1733117896838,1733117896854,1733117896871,1733117896888,1733117896904,1733117896921,1733117896938,1733117896954]","[[1055.4,330.4],[1061.5,326.3],[1069.9,321.5],[1083.2,300.2],[1096.5,278.9],[1109.9,264.2],[1109.9,264.2],[1134.9,246.6],[1134.9,246.6],[1133.2,244.2],[1133.4,237.1],[1145.2,253.2],[1145.2,253.2],[1155.8,269.6],[1155.8,269.6],[1146.3,290.5],[1146.3,290.5],[1105.9,305.8],[1105.9,305.8],[1097.6,335.5],[1097.6,335.5],[1092.9,369.8],[1092.9,369.8],[1088.2,402],[1121.3,416.4],[1159.2,444.3],[1197.1,472.2],[1191.8,472.8],[1186.5,473.4],[1173.2,476.6],[1190.8,485.4],[1234.4,490.5],[1263.1,477],[1288.3,459.9],[1275.7,460.6],[1284.3,451.2],[1292.9,441.8],[1316.5,449.1],[1340.1,456.4],[1398.2,435.5],[1477.9,415.6],[1473.4,395.8],[1480.2,390],[1480.5,400.1],[1487.9,402.6],[1495.7,386.2],[1485.4,371.5],[1497.7,368.4],[1475.6,346.1],[1442,357.6],[1386.8,368.1],[1356.6,363.1],[1326.4,358.1],[1296,336.5],[1277.2,328.3],[1248,334.8],[1261.1,327.7],[1273.4,304.3],[1305.4,305.3],[1324.6,292.6],[1343.8,279.9],[1343.8,279.9],[1313.8,280.1],[1329.9,279.4],[1319.9,280.1],[1277.1,276.3],[1234.3,272.5],[1234.3,272.5],[1164.4,283],[1164.4,283],[1104.2,301.1],[1058.8,304.3],[1004.1,308.6],[934.2,321.8],[925.1,332.1],[881.5,334],[870.7,335.2],[872.3,340.7],[873.9,346.2],[873.2,358.7],[888.4,340],[937,336.8],[985.6,333.6],[984.8,331.2],[984,328.8],[963.7,332.3],[943.4,335.8],[930.3,329.4],[937.1,331.5],[937,316.5],[911.3,325.1],[858.2,331.3],[805.1,337.5],[800.7,339.4],[796.3,341.3],[795.9,329.3],[795.5,317.3],[784.2,316],[753,306.2],[746.1,300.3],[739.2,294.4],[743.3,293.9],[747.4,293.4],[752.1,283.6],[747.9,279.2],[747.6,292.1],[747.3,305],[776.5,318.5],[807.3,332.1],[817.2,336.6],[827.1,341.1],[828.5,350.7],[829.9,360.3],[862.7,377.2],[897.5,391.4],[922.2,405.9],[946.9,420.4],[956.5,425.1],[963,429.5],[985.6,443.4],[1008.2,457.3],[1021,456],[1033.8,454.7],[1043.7,455.2],[1060.5,453],[1056.2,443],[1062,449.6],[1062,449.6],[1058.8,459],[1066.9,457.8],[1067.6,460],[1059.1,468.7],[1051.8,478.7]]","[0,0.5333]","[0.5333,0.5333]","[-0.5333,0]","[-0.5333,-0.5333]","[0,0]","[0.5333,0]","[0,-0.5333]","[0.5333,-0.5333]",0,1,1,1,1,3,Monitor,5,5,13,7
,,,,,,,,,,,,,,,,,,,05,001,2024-12-02_13h37.34.090,Attention_exp_legacy,2023.1.0,Win32,60.24096386,,,,,,,,,,,[0.428125],[0.4962962962962963],[1],[0],[0],[1.8622999999998129],"[""Option2_label""]",Option2_label,3,2.8629,"[[0.13958333333333334,0.4740740740740741],[0.13333333333333333,0.4759259259259259],[0.13125,0.4759259259259259],[0.128125,0.4777777777777778],[0.128125,0.4777777777777778],[0.12708333333333333,0.4777777777777778],[0.12708333333333333,0.4777777777777778],[0.12708333333333333,0.4777777777777778],[0.12708333333333333,0.4777777777777778],[0.12708333333333333,0.4777777777777778],[0.12708333333333333,0.4777777777777778],[0.12708333333333333,0.4777777777777778],[0.12708333333333333,0.4777777777777778],[0.12708333333333333,0.4777777777777778],[0.12708333333333333,0.4777777777777778],[0.12708333333333333,0.4777777777777778],[0.12708333333333333,0.4777777777777778],[0.12708333333333333,0.4777777777777778],[0.12708333333333333,0.4777777777777778],[0.12708333333333333,0.4777777777777778],[0.12708333333333333,0.4777777777777778],[0.12708333333333333,0.4777777777777778],[0.12708333333333333,0.4777777777777778],[0.12708333333333333,0.4777777777777778],[0.12708333333333333,0.4777777777777778],[0.12708333333333333,0.4777777777777778],[0.12708333333333333,0.4777777777777778],[0.12708333333333333,0.4777777777777778],[0.12708333333333333,0.4777777777777778],[0.12708333333333333,0.4777777777777778],[0.12708333333333333,0.4777777777777778],[0.12708333333333333,0.4777777777777778],[0.12708333333333333,0.4777777777777778],[0.12708333333333333,0.4777777777777778],[0.12708333333333333,0.4777777777777778],[0.12708333333333333,0.4777777777777778],[0.12708333333333333,0.4777777777777778],[0.12708333333333333,0.4777777777777778],[0.12708333333333333,0.4777777777777778],[0.12708333333333333,0.4777777777777778],[0.12708333333333333,0.4777777777777778],[0.12708333333333333,0.4777777777777778],[0.12708333333333333,0.4777777777777778],[0.12708333333333333,0.4777777777777778],[0.12708333333333333,0.4777777777777778],[0.12708333333333333,0.4777777777777778],[0.12708333333333333,0.4777777777777778],[0.12708333333333333,0.4777777777777778],[0.12708333333333333,0.4777777777777778],[0.12708333333333333,0.4777777777777778],[0.12708333333333333,0.4777777777777778],[0.12708333333333333,0.4777777777777778],[0.12708333333333333,0.4777777777777778],[0.12708333333333333,0.4777777777777778],[0.12708333333333333,0.4777777777777778],[0.12708333333333333,0.4777777777777778],[0.12708333333333333,0.4777777777777778],[0.12708333333333333,0.4777777777777778],[0.12708333333333333,0.4777777777777778],[0.12708333333333333,0.4777777777777778],[0.12708333333333333,0.4777777777777778],[0.12708333333333333,0.4777777777777778],[0.12708333333333333,0.4777777777777778],[0.12708333333333333,0.4777777777777778],[0.12708333333333333,0.4777777777777778],[0.12708333333333333,0.4777777777777778],[0.12708333333333333,0.4777777777777778],[0.12708333333333333,0.4777777777777778],[0.12708333333333333,0.4777777777777778],[0.12708333333333333,0.4777777777777778],[0.12708333333333333,0.4777777777777778],[0.12708333333333333,0.4777777777777778],[0.13541666666666666,0.48148148148148145],[0.15416666666666667,0.48333333333333334],[0.19166666666666668,0.48333333333333334],[0.24270833333333333,0.48333333333333334],[0.28020833333333334,0.48333333333333334],[0.30520833333333336,0.48333333333333334],[0.325,0.48333333333333334],[0.340625,0.48333333333333334],[0.346875,0.48333333333333334],[0.353125,0.48333333333333334],[0.36041666666666666,0.48333333333333334],[0.36875,0.48333333333333334],[0.37916666666666665,0.48333333333333334],[0.38958333333333334,0.48703703703703705],[0.4010416666666667,0.49074074074074076],[0.4114583333333333,0.49074074074074076],[0.41770833333333335,0.49444444444444446],[0.421875,0.4962962962962963],[0.425,0.4962962962962963],[0.4270833333333333,0.4962962962962963],[0.4270833333333333,0.4962962962962963],[0.428125,0.4962962962962963],[0.428125,0.4962962962962963],[0.428125,0.4962962962962963],[0.428125,0.4962962962962963],[0.428125,0.4962962962962963],[0.428125,0.4962962962962963],[0.428125,0.4962962962962963],[0.428125,0.4962962962962963],[0.428125,0.4962962962962963],[0.428125,0.4962962962962963],[0.428125,0.4962962962962963],[0.428125,0.4962962962962963],[0.428125,0.4962962962962963],[0.428125,0.4962962962962963],[0.428125,0.4962962962962963],[0.428125,0.4962962962962963],[0.428125,0.4962962962962963],[0.428125,0.4962962962962963],[0.428125,0.4962962962962963],[0.428125,0.4962962962962963],[0.428125,0.4962962962962963],[0.428125,0.4962962962962963],[0.428125,0.4962962962962963],[0.428125,0.4962962962962963],[0.428125,0.4962962962962963],[0.428125,0.4962962962962963],[0.428125,0.4962962962962963],[0.428125,0.4962962962962963],[0.428125,0.4962962962962963],[0.428125,0.4962962962962963],[0.428125,0.4962962962962963],[0.428125,0.4962962962962963],[0.428125,0.4962962962962963],[0.428125,0.4962962962962963],[0.428125,0.4962962962962963],[0.428125,0.4962962962962963],[0.428125,0.4962962962962963],[0.428125,0.4962962962962963],[0.428125,0.4962962962962963],[0.428125,0.4962962962962963],[0.428125,0.4962962962962963],[0.428125,0.4962962962962963],[0.428125,0.4962962962962963],[0.428125,0.4962962962962963],[0.428125,0.4962962962962963],[0.428125,0.4962962962962963],[0.428125,0.4962962962962963],[0.428125,0.4962962962962963],[0.428125,0.4962962962962963],[0.428125,0.4962962962962963],[0.428125,0.4962962962962963],[0.428125,0.4962962962962963],[0.428125,0.4962962962962963],[0.428125,0.4962962962962963],[0.428125,0.4962962962962963],[0.428125,0.4962962962962963],[0.428125,0.4962962962962963],[0.428125,0.4962962962962963],[0.428125,0.4962962962962963],[0.428125,0.4962962962962963],[0.428125,0.4962962962962963],[0.428125,0.4962962962962963],[0.428125,0.4962962962962963],[0.428125,0.4962962962962963],[0.428125,0.4962962962962963],[0.428125,0.4962962962962963],[0.428125,0.4962962962962963],[0.428125,0.4962962962962963],[0.428125,0.4962962962962963],[0.428125,0.4962962962962963],[0.428125,0.4962962962962963],[0.428125,0.4962962962962963],[0.428125,0.4962962962962963],[0.428125,0.4962962962962963],[0.428125,0.4962962962962963],[0.428125,0.4962962962962963],[0.428125,0.4962962962962963],[0.428125,0.4962962962962963],[0.428125,0.4962962962962963],[0.428125,0.4962962962962963]]","[[0.2556250000000001,-0.49722222222222223],[0.25145833333333345,-0.48222222222222216],[0.24729166666666677,-0.46722222222222226],[0.2557291666666667,-0.46796296296296297],[0.2612499999999999,-0.452962962962963],[0.26833333333333326,-0.43796296296296294],[0.2642708333333334,-0.4003703703703704],[0.23250000000000004,-0.38],[0.27406249999999993,-0.415925925925926],[0.29708333333333337,-0.4396296296296296],[0.30739583333333326,-0.447037037037037],[0.2835416666666667,-0.45740740740740743],[0.25968749999999996,-0.4677777777777778],[0.25364583333333335,-0.46037037037037043],[0.24229166666666657,-0.472037037037037],[0.20791666666666658,-0.4714814814814815],[0.17354166666666657,-0.47092592592592597],[0.11729166666666657,-0.4801851851851852],[0.027604166666666666,-0.4801851851851852],[-0.0751041666666667,-0.45185185185185184],[-0.17781250000000004,-0.4235185185185185],[-0.23885416666666662,-0.4235185185185185],[-0.2998958333333333,-0.4235185185185185],[-0.4028125000000001,-0.4346296296296296],[-0.4892708333333333,-0.4227777777777778],[-0.5697916666666667,-0.4294444444444444],[-0.6503125,-0.4361111111111111],[-0.6757291666666667,-0.43],[-0.7011458333333334,-0.42388888888888887],[-0.7134375,-0.4485185185185185],[-0.7257291666666668,-0.47314814814814815],[-0.7673958333333334,-0.47685185185185186],[-0.7134375,-0.48870370370370364],[-0.6105208333333334,-0.4977777777777778],[-0.51875,-0.5107407407407407],[-0.4357291666666666,-0.5190740740740741],[-0.35270833333333335,-0.5274074074074074],[-0.2952083333333333,-0.4759259259259259],[-0.22562500000000002,-0.45],[-0.10270833333333336,-0.4331481481481481],[0.02020833333333331,-0.41629629629629633],[0.15833333333333333,-0.3881481481481482],[0.20083333333333328,-0.35185185185185186],[0.21343750000000009,-0.3320370370370371],[0.25458333333333344,-0.322037037037037],[0.27708333333333335,-0.3066666666666667],[0.29958333333333326,-0.29129629629629633],[0.3607291666666666,-0.3066666666666667],[0.4101041666666667,-0.2972222222222222],[0.40593750000000006,-0.27925925925925926],[0.40177083333333335,-0.26129629629629636],[0.33125,-0.275],[0.2607291666666666,-0.2887037037037037],[0.2352083333333333,-0.29000000000000004],[0.18104166666666663,-0.28166666666666673],[0.1462500000000001,-0.2785185185185185],[0.1040625000000001,-0.2603703703703704],[0.05427083333333336,-0.25870370370370366],[0.004166666666666667,-0.25629629629629624],[-0.02385416666666664,-0.26944444444444443],[-0.059062500000000046,-0.28203703703703703],[-0.035520833333333356,-0.24148148148148144],[-0.011979166666666667,-0.20092592592592592],[0.0009374999999999763,-0.17888888888888893],[0.01395833333333331,-0.1566666666666667],[0.035312499999999976,-0.11703703703703702],[0.0640625,-0.09240740740740737],[0.08229166666666667,-0.0727777777777778],[0.10052083333333334,-0.053148148148148125],[0.09135416666666671,-0.01314814814814819],[0.08937499999999995,0.02629629629629638],[0.0984375,0.015555555555555513],[0.10750000000000005,0.004814814814814857],[0.103125,-0.010185185185185186],[0.09874999999999995,-0.025185185185185227],[0.09479166666666666,-0.075],[0.08958333333333333,-0.11981481481481479],[0.08833333333333329,-0.16407407407407412],[0.08708333333333323,-0.20833333333333334],[0.10718750000000009,-0.26944444444444443],[0.12708333333333333,-0.3198148148148148],[0.13322916666666676,-0.35999999999999993],[0.15281250000000005,-0.40407407407407403],[0.171875,-0.3933333333333333],[0.19093749999999995,-0.38259259259259265],[0.19093749999999995,-0.38259259259259265],[0.19031250000000005,-0.392037037037037],[0.16697916666666662,-0.4431481481481482],[0.16208333333333325,-0.46407407407407414],[0.18854166666666666,-0.48],[0.1990624999999999,-0.4809259259259259],[0.18270833333333342,-0.4772222222222222],[0.20354166666666676,-0.4824074074074074],[0.190625,-0.4853703703703704],[0.19114583333333332,-0.5261111111111112],[0.16854166666666662,-0.5487037037037037],[0.15833333333333333,-0.5451851851851851],[0.18614583333333337,-0.5114814814814814],[0.2021874999999999,-0.49981481481481477],[0.19166666666666668,-0.49314814814814817],[0.18114583333333342,-0.48648148148148146],[0.21041666666666667,-0.48703703703703705],[0.2025000000000001,-0.4787037037037037],[0.20906250000000004,-0.4485185185185185],[0.203125,-0.43648148148148147],[0.2203125,-0.4425925925925926],[0.2375,-0.4487037037037037],[0.2375,-0.4487037037037037],[0.26114583333333335,-0.42240740740740745],[0.26114583333333335,-0.42240740740740745],[0.2782291666666666,-0.4161111111111111],[0.28718750000000004,-0.4161111111111111],[0.2961458333333333,-0.4161111111111111],[0.30052083333333335,-0.4101851851851852],[0.30489583333333337,-0.40425925925925926],[0.2620833333333332,-0.35537037037037034],[0.22781250000000006,-0.2785185185185185],[0.16052083333333325,-0.2390740740740741],[0.09322916666666667,-0.19962962962962966],[0.00614583333333331,-0.18722222222222226],[0.00614583333333331,-0.18722222222222226],[-0.07437499999999998,-0.15481481481481485],[-0.11875,-0.11685185185185189],[-0.09947916666666666,-0.11425925925925924],[-0.1453125,-0.10833333333333334],[-0.19114583333333332,-0.10240740740740743],[-0.19145833333333329,-0.16888888888888887],[-0.19177083333333336,-0.23537037037037042],[-0.1671875,-0.26944444444444443],[-0.16781250000000003,-0.2711111111111111],[-0.16916666666666663,-0.27166666666666667],[-0.13270833333333332,-0.29018518518518516],[-0.12906249999999997,-0.307962962962963],[-0.1498958333333333,-0.29018518518518516],[-0.15281250000000005,-0.27629629629629626],[-0.15458333333333332,-0.2972222222222222],[-0.15458333333333332,-0.2972222222222222],[-0.15343749999999995,-0.3085185185185186],[-0.18020833333333333,-0.3396296296296296],[-0.2016666666666667,-0.352962962962963],[-0.2016666666666667,-0.352962962962963],[-0.19791666666666666,-0.3987037037037037],[-0.18239583333333337,-0.4383333333333333],[-0.18239583333333337,-0.4383333333333333],[-0.140625,-0.4551851851851852],[-0.140625,-0.4551851851851852],[-0.12572916666666673,-0.49296296296296294],[-0.12572916666666673,-0.49296296296296294],[-0.1828125,-0.5107407407407407],[-0.1828125,-0.5107407407407407],[-0.24624999999999997,-0.42185185185185187],[-0.24624999999999997,-0.42185185185185187],[-0.26499999999999996,-0.3512962962962963],[-0.23104166666666662,-0.262037037037037],[-0.19156249999999997,-0.16500000000000004],[-0.19156249999999997,-0.16500000000000004],[-0.14833333333333332,-0.1161111111111111],[-0.08416666666666663,-0.03481481481481473],[-0.042499999999999954,0.027777777777777776],[-0.08489583333333334,0.0794444444444444],[-0.10083333333333329,0.17111111111111107],[-0.02333333333333331,0.22185185185185177],[0.09604166666666672,0.1725925925925927],[0.16656250000000009,0.15777777777777785],[0.1955208333333334,0.1398148148148148],[0.25979166666666675,0.0868518518518518],[0.3328125,0.1338888888888888],[0.3415625000000001,0.10500000000000008],[0.35739583333333325,0.08055555555555556],[0.4154166666666666,0.08259259259259263],[0.48156249999999995,0.05944444444444449],[0.48322916666666677,0.04407407407407399],[0.4653125000000001,0.018888888888888972]]","[[0.2556250000000001,-0.49722222222222223,0.000099999999626732],[0.25145833333333345,-0.48222222222222216,0.016799999999818738],[0.24729166666666677,-0.46722222222222226,0.033799999999814645],[0.2557291666666667,-0.46796296296296297,0.048500000000004206],[0.2612499999999999,-0.452962962962963,0.06289999999944484],[0.26833333333333326,-0.43796296296296294,0.08009999999963213],[0.2642708333333334,-0.4003703703703704,0.09629999999981464],[0.23250000000000004,-0.38,0.11619999999926023],[0.27406249999999993,-0.415925925925926,0.13289999999944513],[0.29708333333333337,-0.4396296296296296,0.14909999999962764],[0.30739583333333326,-0.447037037037037,0.16519999999925972],[0.2835416666666667,-0.45740740740740743,0.17959999999963117],[0.25968749999999996,-0.4677777777777778,0.19619999999925852],[0.25364583333333335,-0.46037037037037043,0.21289999999944342],[0.24229166666666657,-0.472037037037037,0.2327999999998127],[0.20791666666666658,-0.4714814814814815,0.2486999999992534],[0.17354166666666657,-0.47092592592592597,0.2628999999994406],[0.11729166666666657,-0.4801851851851852,0.2795999999996326],[0.027604166666666666,-0.4801851851851852,0.29619999999925994],[-0.0751041666666667,-0.45185185185185184,0.31319999999925585],[-0.17781250000000004,-0.4235185185185185,0.32959999999962974],[-0.23885416666666662,-0.4235185185185185,0.3461999999992571],[-0.2998958333333333,-0.4235185185185185,0.362899999999442],[-0.4028125000000001,-0.4346296296296296,0.37950000000000017],[-0.4892708333333333,-0.4227777777777778,0.39639999999944564],[-0.5697916666666667,-0.4294444444444444,0.4132999999998148],[-0.6503125,-0.4361111111111111,0.42950000000000443],[-0.6757291666666667,-0.43,0.44629999999981607],[-0.7011458333333334,-0.42388888888888887,0.4627999999998167],[-0.7134375,-0.4485185185185185,0.4795999999996283],[-0.7257291666666668,-0.47314814814814815,0.4961999999992557],[-0.7673958333333334,-0.47685185185185186,0.5143999999994406],[-0.7134375,-0.48870370370370364,0.5295999999996326],[-0.6105208333333334,-0.4977777777777778,0.5461999999992599],[-0.51875,-0.5107407407407407,0.5627999999998181],[-0.4357291666666666,-0.5190740740740741,0.5796999999992565],[-0.35270833333333335,-0.5274074074074074,0.5961999999992571],[-0.2952083333333333,-0.4759259259259259,0.616500000000002],[-0.22562500000000002,-0.45,0.6313999999994451],[-0.10270833333333336,-0.4331481481481481,0.6461999999992543],[0.02020833333333331,-0.41629629629629633,0.6628999999994463],[0.15833333333333333,-0.3881481481481482,0.6795000000000044],[0.20083333333333328,-0.35185185185185186,0.6961999999992585],[0.21343750000000009,-0.3320370370370371,0.7146999999992545],[0.25458333333333344,-0.322037037037037,0.7295000000000016],[0.27708333333333335,-0.3066666666666667,0.74639999999944],[0.29958333333333326,-0.29129629629629633,0.7628999999994406],[0.3607291666666666,-0.3066666666666667,0.7794999999999987],[0.4101041666666667,-0.2972222222222222,0.7961999999992599],[0.40593750000000006,-0.27925925925925926,0.8135000000000048],[0.40177083333333335,-0.26129629629629636,0.829500000000003],[0.33125,-0.275,0.8461999999992571],[0.2607291666666666,-0.2887037037037037,0.8627999999998153],[0.2352083333333333,-0.29000000000000004,0.8795999999996269],[0.18104166666666663,-0.28166666666666673,0.8961999999992543],[0.1462500000000001,-0.2785185185185185,0.9146999999992573],[0.1040625000000001,-0.2603703703703704,0.9323999999994399],[0.05427083333333336,-0.25870370370370366,0.9466999999992538],[0.004166666666666667,-0.25629629629629624,0.9628999999994434],[-0.02385416666666664,-0.26944444444444443,0.9795999999996283],[-0.059062500000000046,-0.28203703703703703,0.9961999999992557],[-0.035520833333333356,-0.24148148148148144,1.0153999999994454],[-0.011979166666666667,-0.20092592592592592,1.0295999999996326],[0.0009374999999999763,-0.17888888888888893,1.0462999999998175],[0.01395833333333331,-0.1566666666666667,1.0628999999994448],[0.035312499999999976,-0.11703703703703702,1.0795999999996297],[0.0640625,-0.09240740740740737,1.096199999999257],[0.08229166666666667,-0.0727777777777778,1.1127999999998153],[0.10052083333333334,-0.053148148148148125,1.1295000000000002],[0.09135416666666671,-0.01314814814814819,1.1461999999992543],[0.08937499999999995,0.02629629629629638,1.1627999999998124],[0.0984375,0.015555555555555513,1.1795999999996312],[0.10750000000000005,0.004814814814814857,1.1988999999994405],[0.103125,-0.010185185185185186,1.2147999999998191],[0.09874999999999995,-0.025185185185185227,1.229699999999255],[0.09479166666666666,-0.075,1.2491999999992558],[0.08958333333333333,-0.11981481481481479,1.2630000000000052],[0.08833333333333329,-0.16407407407407412,1.2796999999992593],[0.08708333333333323,-0.20833333333333334,1.2989999999999995],[0.10718750000000009,-0.26944444444444443,1.314699999999256],[0.12708333333333333,-0.3198148148148148,1.3310999999996298],[0.13322916666666676,-0.35999999999999993,1.3490999999996305],[0.15281250000000005,-0.40407407407407403,1.3633999999994444],[0.171875,-0.3933333333333333,1.3796999999992536],[0.19093749999999995,-0.38259259259259265,1.4021999999992545],[0.19093749999999995,-0.38259259259259265,1.4131999999992573],[0.19031250000000005,-0.392037037037037,1.4298999999994422],[0.16697916666666662,-0.4431481481481482,1.4465000000000003],[0.16208333333333325,-0.46407407407407414,1.4654999999999987],[0.18854166666666666,-0.48,1.4797999999998126],[0.1990624999999999,-0.4809259259259259,1.49789999999944],[0.18270833333333342,-0.4772222222222222,1.516699999999254],[0.20354166666666676,-0.4824074074074074,1.5297999999998169],[0.190625,-0.4853703703703704,1.5463999999994442],[0.19114583333333332,-0.5261111111111112,1.5627999999998181],[0.16854166666666662,-0.5487037037037037,1.579500000000003],[0.15833333333333333,-0.5451851851851851,1.596199999999257],[0.18614583333333337,-0.5114814814814814,1.612899999999442],[0.2021874999999999,-0.49981481481481477,1.631099999999627],[0.19166666666666668,-0.49314814814814817,1.6461999999992543],[0.18114583333333342,-0.48648148148148146,1.6628999999994463],[0.21041666666666667,-0.48703703703703705,1.6795000000000044],[0.2025000000000001,-0.4787037037037037,1.6961999999992585],[0.20906250000000004,-0.4485185185185185,1.7133999999994458],[0.203125,-0.43648148148148147,1.7295999999996283],[0.2203125,-0.4425925925925926,1.7461999999992557],[0.2375,-0.4487037037037037,1.7695999999996275],[0.2375,-0.4487037037037037,1.7872999999998171],[0.26114583333333335,-0.42240740740740745,1.807099999999629],[0.26114583333333335,-0.42240740740740745,1.8133999999994401],[0.2782291666666666,-0.4161111111111111,1.8295999999996297],[0.28718750000000004,-0.4161111111111111,1.8460999999996304],[0.2961458333333333,-0.4161111111111111,1.8627999999998153],[0.30052083333333335,-0.4101851851851852,1.879599999999627],[0.30489583333333337,-0.40425925925925926,1.8961999999992543],[0.2620833333333332,-0.35537037037037034,1.9147999999998149],[0.22781250000000006,-0.2785185185185185,1.9335000000000022],[0.16052083333333325,-0.2390740740740741,1.9485999999996295],[0.09322916666666667,-0.19962962962962966,1.9628999999994434],[0.00614583333333331,-0.18722222222222226,1.9795000000000016],[0.00614583333333331,-0.18722222222222226,1.99639999999944],[-0.07437499999999998,-0.15481481481481485,2.013099999999632],[-0.11875,-0.11685185185185189,2.0294999999999987],[-0.09947916666666666,-0.11425925925925924,2.04619999999926],[-0.1453125,-0.10833333333333334,2.0632999999998134],[-0.19114583333333332,-0.10240740740740743,2.079500000000003],[-0.19145833333333329,-0.16888888888888887,2.096199999999257],[-0.19177083333333336,-0.23537037037037042,2.1160999999996264],[-0.1671875,-0.26944444444444443,2.1325000000000003],[-0.16781250000000003,-0.2711111111111111,2.1461999999992543],[-0.16916666666666663,-0.27166666666666667,2.1628999999994463],[-0.13270833333333332,-0.29018518518518516,2.179599999999631],[-0.12906249999999997,-0.307962962962963,2.1961999999992585],[-0.1498958333333333,-0.29018518518518516,2.2128999999994434],[-0.15281250000000005,-0.27629629629629626,2.2295999999996283],[-0.15458333333333332,-0.2972222222222222,2.2461999999992557],[-0.15458333333333332,-0.2972222222222222,2.2628999999994406],[-0.15343749999999995,-0.3085185185185186,2.2794999999999987],[-0.18020833333333333,-0.3396296296296296,2.29619999999926],[-0.2016666666666667,-0.352962962962963,2.3135000000000048],[-0.2016666666666667,-0.352962962962963,2.329500000000003],[-0.19791666666666666,-0.3987037037037037,2.3462999999998146],[-0.18239583333333337,-0.4383333333333333,2.3627999999998153],[-0.18239583333333337,-0.4383333333333333,2.3795],[-0.140625,-0.4551851851851852,2.3961999999992543],[-0.140625,-0.4551851851851852,2.4128999999994463],[-0.12572916666666673,-0.49296296296296294,2.429599999999631],[-0.12572916666666673,-0.49296296296296294,2.4461999999992585],[-0.1828125,-0.5107407407407407,2.4628999999994434],[-0.1828125,-0.5107407407407407,2.4795000000000016],[-0.24624999999999997,-0.42185185185185187,2.4962999999998132],[-0.24624999999999997,-0.42185185185185187,2.5128999999994406],[-0.26499999999999996,-0.3512962962962963,2.5295999999996326],[-0.23104166666666662,-0.262037037037037,2.549799999999813],[-0.19156249999999997,-0.16500000000000004,2.568899999999445],[-0.19156249999999997,-0.16500000000000004,2.5796999999992565],[-0.14833333333333332,-0.1161111111111111,2.5962999999998146],[-0.08416666666666663,-0.03481481481481473,2.612899999999442],[-0.042499999999999954,0.027777777777777776,2.6295],[-0.08489583333333334,0.0794444444444444,2.6461999999992543],[-0.10083333333333329,0.17111111111111107,2.6627999999998124],[-0.02333333333333331,0.22185185185185177,2.679599999999631],[0.09604166666666672,0.1725925925925927,2.696099999999632],[0.16656250000000009,0.15777777777777785,2.7128999999994434],[0.1955208333333334,0.1398148148148148,2.7295000000000016],[0.25979166666666675,0.0868518518518518,2.7461999999992557],[0.3328125,0.1338888888888888,2.762799999999814],[0.3415625000000001,0.10500000000000008,2.7794999999999987],[0.35739583333333325,0.08055555555555556,2.79619999999926],[0.4154166666666666,0.08259259259259263,2.814599999999629],[0.48156249999999995,0.05944444444444449,2.829500000000003],[0.48322916666666677,0.04407407407407399,2.846199999999257],[0.4653125000000001,0.018888888888888972,2.862899999999442]]","[0.000099999999626732,0.016799999999818738,0.033799999999814645,0.048500000000004206,0.06289999999944484,0.08009999999963213,0.09629999999981464,0.11619999999926023,0.13289999999944513,0.14909999999962764,0.16519999999925972,0.17959999999963117,0.19619999999925852,0.21289999999944342,0.2327999999998127,0.2486999999992534,0.2628999999994406,0.2795999999996326,0.29619999999925994,0.31319999999925585,0.32959999999962974,0.3461999999992571,0.362899999999442,0.37950000000000017,0.39639999999944564,0.4132999999998148,0.42950000000000443,0.44629999999981607,0.4627999999998167,0.4795999999996283,0.4961999999992557,0.5143999999994406,0.5295999999996326,0.5461999999992599,0.5627999999998181,0.5796999999992565,0.5961999999992571,0.616500000000002,0.6313999999994451,0.6461999999992543,0.6628999999994463,0.6795000000000044,0.6961999999992585,0.7146999999992545,0.7295000000000016,0.74639999999944,0.7628999999994406,0.7794999999999987,0.7961999999992599,0.8135000000000048,0.829500000000003,0.8461999999992571,0.8627999999998153,0.8795999999996269,0.8961999999992543,0.9146999999992573,0.9323999999994399,0.9466999999992538,0.9628999999994434,0.9795999999996283,0.9961999999992557,1.0153999999994454,1.0295999999996326,1.0462999999998175,1.0628999999994448,1.0795999999996297,1.096199999999257,1.1127999999998153,1.1295000000000002,1.1461999999992543,1.1627999999998124,1.1795999999996312,1.1988999999994405,1.2147999999998191,1.229699999999255,1.2491999999992558,1.2630000000000052,1.2796999999992593,1.2989999999999995,1.314699999999256,1.3310999999996298,1.3490999999996305,1.3633999999994444,1.3796999999992536,1.4021999999992545,1.4131999999992573,1.4298999999994422,1.4465000000000003,1.4654999999999987,1.4797999999998126,1.49789999999944,1.516699999999254,1.5297999999998169,1.5463999999994442,1.5627999999998181,1.579500000000003,1.596199999999257,1.612899999999442,1.631099999999627,1.6461999999992543,1.6628999999994463,1.6795000000000044,1.6961999999992585,1.7133999999994458,1.7295999999996283,1.7461999999992557,1.7695999999996275,1.7872999999998171,1.807099999999629,1.8133999999994401,1.8295999999996297,1.8460999999996304,1.8627999999998153,1.879599999999627,1.8961999999992543,1.9147999999998149,1.9335000000000022,1.9485999999996295,1.9628999999994434,1.9795000000000016,1.99639999999944,2.013099999999632,2.0294999999999987,2.04619999999926,2.0632999999998134,2.079500000000003,2.096199999999257,2.1160999999996264,2.1325000000000003,2.1461999999992543,2.1628999999994463,2.179599999999631,2.1961999999992585,2.2128999999994434,2.2295999999996283,2.2461999999992557,2.2628999999994406,2.2794999999999987,2.29619999999926,2.3135000000000048,2.329500000000003,2.3462999999998146,2.3627999999998153,2.3795,2.3961999999992543,2.4128999999994463,2.429599999999631,2.4461999999992585,2.4628999999994434,2.4795000000000016,2.4962999999998132,2.5128999999994406,2.5295999999996326,2.549799999999813,2.568899999999445,2.5796999999992565,2.5962999999998146,2.612899999999442,2.6295,2.6461999999992543,2.6627999999998124,2.679599999999631,2.696099999999632,2.7128999999994434,2.7295000000000016,2.7461999999992557,2.762799999999814,2.7794999999999987,2.79619999999926,2.814599999999629,2.829500000000003,2.846199999999257,2.862899999999442]","[1733117897959,1733117897975,1733117897992,1733117898007,1733117898021,1733117898038,1733117898054,1733117898074,1733117898091,1733117898107,1733117898123,1733117898138,1733117898154,1733117898171,1733117898191,1733117898207,1733117898221,1733117898238,1733117898254,1733117898271,1733117898288,1733117898304,1733117898321,1733117898338,1733117898354,1733117898372,1733117898388,1733117898404,1733117898421,1733117898438,1733117898454,1733117898473,1733117898488,1733117898504,1733117898521,1733117898538,1733117898554,1733117898575,1733117898590,1733117898604,1733117898621,1733117898638,1733117898654,1733117898673,1733117898688,1733117898705,1733117898721,1733117898738,1733117898754,1733117898772,1733117898788,1733117898804,1733117898821,1733117898838,1733117898854,1733117898873,1733117898891,1733117898905,1733117898921,1733117898938,1733117898954,1733117898974,1733117898988,1733117899004,1733117899021,1733117899038,1733117899054,1733117899071,1733117899088,1733117899104,1733117899121,1733117899138,1733117899157,1733117899173,1733117899188,1733117899207,1733117899221,1733117899238,1733117899257,1733117899273,1733117899289,1733117899307,1733117899322,1733117899338,1733117899360,1733117899371,1733117899388,1733117899405,1733117899424,1733117899438,1733117899456,1733117899475,1733117899488,1733117899505,1733117899521,1733117899538,1733117899554,1733117899571,1733117899589,1733117899604,1733117899621,1733117899638,1733117899654,1733117899672,1733117899688,1733117899704,1733117899728,1733117899746,1733117899765,1733117899772,1733117899788,1733117899804,1733117899821,1733117899838,1733117899854,1733117899873,1733117899892,1733117899907,1733117899921,1733117899938,1733117899955,1733117899971,1733117899988,1733117900004,1733117900022,1733117900038,1733117900054,1733117900074,1733117900091,1733117900104,1733117900121,1733117900138,1733117900154,1733117900171,1733117900188,1733117900204,1733117900221,1733117900238,1733117900254,1733117900272,1733117900288,1733117900304,1733117900321,1733117900338,1733117900354,1733117900371,1733117900388,1733117900404,1733117900421,1733117900438,1733117900454,1733117900471,1733117900488,1733117900508,1733117900527,1733117900538,1733117900554,1733117900571,1733117900588,1733117900604,1733117900621,1733117900638,1733117900654,1733117900671,1733117900688,1733117900704,1733117900721,1733117900738,1733117900754,1733117900773,1733117900788,1733117900804,1733117900821]","[[1205.4,271.5],[1201.4,279.6],[1197.4,287.7],[1205.5,287.3],[1210.8,295.4],[1217.6,303.5],[1213.7,323.8],[1183.2,334.8],[1223.1,315.4],[1245.2,302.6],[1255.1,298.6],[1232.2,293],[1209.3,287.4],[1203.5,291.4],[1192.6,285.1],[1159.6,285.4],[1126.6,285.7],[1072.6,280.7],[986.5,280.7],[887.9,296],[789.3,311.3],[730.7,311.3],[672.1,311.3],[573.3,305.3],[490.3,311.7],[413,308.1],[335.7,304.5],[311.3,307.8],[286.9,311.1],[275.1,297.8],[263.3,284.5],[223.3,282.5],[275.1,276.1],[373.9,271.2],[462,264.2],[541.7,259.7],[621.4,255.2],[676.6,283],[743.4,297],[861.4,306.1],[979.4,315.2],[1112,330.4],[1152.8,350],[1164.9,360.7],[1204.4,366.1],[1226,374.4],[1247.6,382.7],[1306.3,374.4],[1353.7,379.5],[1349.7,389.2],[1345.7,398.9],[1278,391.5],[1210.3,384.1],[1185.8,383.4],[1133.8,387.9],[1100.4,389.6],[1059.9,399.4],[1012.1,400.3],[964,401.6],[937.1,394.5],[903.3,387.7],[925.9,409.6],[948.5,431.5],[960.9,443.4],[973.4,455.4],[993.9,476.8],[1021.5,490.1],[1039,500.7],[1056.5,511.3],[1047.7,532.9],[1045.8,554.2],[1054.5,548.4],[1063.2,542.6],[1059,534.5],[1054.8,526.4],[1051,499.5],[1046,475.3],[1044.8,451.4],[1043.6,427.5],[1062.9,394.5],[1082,367.3],[1087.9,345.6],[1106.7,321.8],[1125,327.6],[1143.3,333.4],[1143.3,333.4],[1142.7,328.3],[1120.3,300.7],[1115.6,289.4],[1141,280.8],[1151.1,280.3],[1135.4,282.3],[1155.4,279.5],[1143,277.9],[1143.5,255.9],[1121.8,243.7],[1112,245.6],[1138.7,263.8],[1154.1,270.1],[1144,273.7],[1133.9,277.3],[1162,277],[1154.4,281.5],[1160.7,297.8],[1155,304.3],[1171.5,301],[1188,297.7],[1188,297.7],[1210.7,311.9],[1210.7,311.9],[1227.1,315.3],[1235.7,315.3],[1244.3,315.3],[1248.5,318.5],[1252.7,321.7],[1211.6,348.1],[1178.7,389.6],[1114.1,410.9],[1049.5,432.2],[965.9,438.9],[965.9,438.9],[888.6,456.4],[846,476.9],[864.5,478.3],[820.5,481.5],[776.5,484.7],[776.2,448.8],[775.9,412.9],[799.5,394.5],[798.9,393.6],[797.6,393.3],[832.6,383.3],[836.1,373.7],[816.1,383.3],[813.3,390.8],[811.6,379.5],[811.6,379.5],[812.7,373.4],[787,356.6],[766.4,349.4],[766.4,349.4],[770,324.7],[784.9,303.3],[784.9,303.3],[825,294.2],[825,294.2],[839.3,273.8],[839.3,273.8],[784.5,264.2],[784.5,264.2],[723.6,312.2],[723.6,312.2],[705.6,350.3],[738.2,398.5],[776.1,450.9],[776.1,450.9],[817.6,477.3],[879.2,521.2],[919.2,555],[878.5,582.9],[863.2,632.4],[937.6,659.8],[1052.2,633.2],[1119.9,625.2],[1147.7,615.5],[1209.4,586.9],[1279.5,612.3],[1287.9,596.7],[1303.1,583.5],[1358.8,584.6],[1422.3,572.1],[1423.9,563.8],[1406.7,550.2]]","[0,0.5333]","[0.5333,0.5333]","[-0.5333,0]","[-0.5333,-0.5333]","[0,0]","[0.5333,0]","[0,-0.5333]","[0.5333,-0.5333]",0,2,2,2,1,3,Monitor,5,5,15,9
