inst1_resp.keys,inst1_resp.rt,calibrationMouse.x,calibrationMouse.y,calibrationMouse.leftButton,calibrationMouse.midButton,calibrationMouse.rightButton,calibrationClick.x,calibrationClick.y,calibrationClick.leftButton,calibrationClick.midButton,calibrationClick.rightButton,trialsc.thisRepN,trialsc.thisTrialN,trialsc.thisN,trialsc.thisIndex,trialsc.ran,calibration_x,calibration_y,participant,session,date,expName,psychopyVersion,OS,frameRate,calibrationClick.clicked_name,ScreenRes_pixels,Camera_pixels,mouse_2.x,mouse_2.y,mouse_2.leftButton,mouse_2.midButton,mouse_2.rightButton,mouse_2.time,mouse_2.clicked_name,mouse.x,mouse.y,mouse.leftButton,mouse.midButton,mouse.rightButton,mouse.time,mouse.clicked_name,Choice,Trial,TrialDuration,MOUSE_GAZE,ET_GAZE,ET_GAZE_x_T,time,unixTime,ET_GAZE_NF,Loc_Option1_label,Loc_Option2_label,Loc_Cost_label,Loc_Qual_label,Loc_Option1_cost,Loc_Option2_cost,Loc_Option1_quality,Loc_Option2_quality,trials.thisRepN,trials.thisTrialN,trials.thisN,trials.thisIndex,trials.ran,Block,Device,cost1,qual1,cost2,qual2
space,1.1013,-0.027083333,-0.118518519,1,0,0,-0.079166667,0.281481481,0,0,0,0,0,0,7,1,-0.33,0.33,46,001,2024-12-02_11h41.26.196,Attention_exp_legacy,2023.1.0,Win32,59.88023952,,,,,,,,,,,,,,,,,,,,,,,,,,,,,,,,,,,,,,,,,,,,,
,,,,,,,0.329166667,-0.666666667,1,0,0,0,1,1,14,1,0.33,-0.67,46,001,2024-12-02_11h41.26.196,Attention_exp_legacy,2023.1.0,Win32,59.88023952,calibration_square,,,,,,,,,,,,,,,,,,,,,,,,,,,,,,,,,,,,,,,,,,,,
,,,,,,,0.672916667,-0.67037037,1,0,0,0,2,2,20,1,0.67,-0.67,46,001,2024-12-02_11h41.26.196,Attention_exp_legacy,2023.1.0,Win32,59.88023952,calibration_square,,,,,,,,,,,,,,,,,,,,,,,,,,,,,,,,,,,,,,,,,,,,
,,,,,,,-0.007291667,-0.337037037,1,0,0,0,3,3,10,1,0,-0.33,46,001,2024-12-02_11h41.26.196,Attention_exp_legacy,2023.1.0,Win32,59.88023952,calibration_square,,,,,,,,,,,,,,,,,,,,,,,,,,,,,,,,,,,,,,,,,,,,
,,,,,,,0.333333333,0.337037037,1,0,0,0,4,4,17,1,0.33,0.33,46,001,2024-12-02_11h41.26.196,Attention_exp_legacy,2023.1.0,Win32,59.88023952,calibration_square,,,,,,,,,,,,,,,,,,,,,,,,,,,,,,,,,,,,,,,,,,,,
,,,,,,,0.007291667,-0.685185185,1,0,0,0,5,5,9,1,0,-0.67,46,001,2024-12-02_11h41.26.196,Attention_exp_legacy,2023.1.0,Win32,59.88023952,,,,,,,,,,,,,,,,,,,,,,,,,,,,,,,,,,,,,,,,,,,,,
,,,,,,,0.005208333,0.337037037,1,0,0,0,6,6,12,1,0,0.33,46,001,2024-12-02_11h41.26.196,Attention_exp_legacy,2023.1.0,Win32,59.88023952,calibration_square,,,,,,,,,,,,,,,,,,,,,,,,,,,,,,,,,,,,,,,,,,,,
,,,,,,,-0.002083333,0,1,0,0,0,7,7,11,1,0,0,46,001,2024-12-02_11h41.26.196,Attention_exp_legacy,2023.1.0,Win32,59.88023952,calibration_square,,,,,,,,,,,,,,,,,,,,,,,,,,,,,,,,,,,,,,,,,,,,
,,,,,,,-0.31875,0.003703704,1,0,0,0,8,8,6,1,-0.33,0,46,001,2024-12-02_11h41.26.196,Attention_exp_legacy,2023.1.0,Win32,59.88023952,,,,,,,,,,,,,,,,,,,,,,,,,,,,,,,,,,,,,,,,,,,,,
,,,,,,,-0.326041667,0.675925926,1,0,0,0,9,9,8,1,-0.33,0.67,46,001,2024-12-02_11h41.26.196,Attention_exp_legacy,2023.1.0,Win32,59.88023952,calibration_square,,,,,,,,,,,,,,,,,,,,,,,,,,,,,,,,,,,,,,,,,,,,
,,,,,,,0.321875,0.675925926,1,0,0,0,10,10,18,1,0.33,0.67,46,001,2024-12-02_11h41.26.196,Attention_exp_legacy,2023.1.0,Win32,59.88023952,calibration_square,,,,,,,,,,,,,,,,,,,,,,,,,,,,,,,,,,,,,,,,,,,,
,,,,,,,-0.670833333,0.011111111,1,0,0,0,11,11,2,1,-0.67,0,46,001,2024-12-02_11h41.26.196,Attention_exp_legacy,2023.1.0,Win32,59.88023952,,,,,,,,,,,,,,,,,,,,,,,,,,,,,,,,,,,,,,,,,,,,,
,,,,,,,-0.661458333,-0.659259259,1,0,0,0,12,12,0,1,-0.67,-0.67,46,001,2024-12-02_11h41.26.196,Attention_exp_legacy,2023.1.0,Win32,59.88023952,,,,,,,,,,,,,,,,,,,,,,,,,,,,,,,,,,,,,,,,,,,,,
,,,,,,,0.673958333,0.685185185,1,0,0,0,13,13,19,1,0.67,0.67,46,001,2024-12-02_11h41.26.196,Attention_exp_legacy,2023.1.0,Win32,59.88023952,,,,,,,,,,,,,,,,,,,,,,,,,,,,,,,,,,,,,,,,,,,,,
,,,,,,,0.322916667,-0.311111111,1,0,0,0,14,14,15,1,0.33,-0.33,46,001,2024-12-02_11h41.26.196,Attention_exp_legacy,2023.1.0,Win32,59.88023952,,,,,,,,,,,,,,,,,,,,,,,,,,,,,,,,,,,,,,,,,,,,,
,,,,,,,-0.013541667,0.67962963,1,0,0,0,15,15,13,1,0,0.67,46,001,2024-12-02_11h41.26.196,Attention_exp_legacy,2023.1.0,Win32,59.88023952,,,,,,,,,,,,,,,,,,,,,,,,,,,,,,,,,,,,,,,,,,,,,
,,,,,,,-0.660416667,0.333333333,1,0,0,0,16,16,3,1,-0.67,0.33,46,001,2024-12-02_11h41.26.196,Attention_exp_legacy,2023.1.0,Win32,59.88023952,calibration_square,,,,,,,,,,,,,,,,,,,,,,,,,,,,,,,,,,,,,,,,,,,,
,,,,,,,-0.661458333,-0.335185185,1,0,0,0,17,17,1,1,-0.67,-0.33,46,001,2024-12-02_11h41.26.196,Attention_exp_legacy,2023.1.0,Win32,59.88023952,calibration_square,,,,,,,,,,,,,,,,,,,,,,,,,,,,,,,,,,,,,,,,,,,,
,,,,,,,-0.31875,-0.340740741,1,0,0,0,18,18,5,1,-0.33,-0.33,46,001,2024-12-02_11h41.26.196,Attention_exp_legacy,2023.1.0,Win32,59.88023952,,,,,,,,,,,,,,,,,,,,,,,,,,,,,,,,,,,,,,,,,,,,,
,,,,,,,-0.327083333,-0.666666667,1,0,0,0,19,19,4,1,-0.33,-0.67,46,001,2024-12-02_11h41.26.196,Attention_exp_legacy,2023.1.0,Win32,59.88023952,calibration_square,,,,,,,,,,,,,,,,,,,,,,,,,,,,,,,,,,,,,,,,,,,,
,,,,,,,0.319791667,-0.003703704,1,0,0,0,20,20,16,1,0.33,0,46,001,2024-12-02_11h41.26.196,Attention_exp_legacy,2023.1.0,Win32,59.88023952,,,,,,,,,,,,,,,,,,,,,,,,,,,,,,,,,,,,,,,,,,,,,
,,,,,,,,,,,,,,,,,,,46,001,2024-12-02_11h41.26.196,Attention_exp_legacy,2023.1.0,Win32,59.88023952,,"[1920,1080]","[640,480]",[0.0010416666666666667],[-0.5203703703703704],[1],[0],[0],[2.765499999999996],"[""StartButton""]",[0.171875],[0.17407407407407408],[1],[0],[0],[2.2211000000000354],"[""Option2_label""]",Option2_label,1,3.2289,"[[-0.065625,0.14814814814814814],[-0.065625,0.14814814814814814],[-0.065625,0.14814814814814814],[-0.065625,0.14814814814814814],[-0.065625,0.14814814814814814],[-0.065625,0.14814814814814814],[-0.065625,0.14814814814814814],[-0.065625,0.14814814814814814],[-0.065625,0.14814814814814814],[-0.065625,0.14814814814814814],[-0.065625,0.14814814814814814],[-0.065625,0.14814814814814814],[-0.065625,0.14814814814814814],[-0.065625,0.14814814814814814],[-0.065625,0.14814814814814814],[-0.065625,0.14814814814814814],[-0.065625,0.14814814814814814],[-0.065625,0.14814814814814814],[-0.065625,0.14814814814814814],[-0.065625,0.14814814814814814],[-0.065625,0.14814814814814814],[-0.065625,0.14814814814814814],[-0.065625,0.14814814814814814],[-0.065625,0.14814814814814814],[-0.065625,0.14814814814814814],[-0.065625,0.14814814814814814],[-0.065625,0.14814814814814814],[-0.06770833333333333,0.14629629629629629],[-0.06770833333333333,0.14444444444444443],[-0.06770833333333333,0.14444444444444443],[-0.06770833333333333,0.14444444444444443],[-0.06770833333333333,0.14444444444444443],[-0.06770833333333333,0.14444444444444443],[-0.06770833333333333,0.14444444444444443],[-0.06770833333333333,0.14444444444444443],[-0.065625,0.14444444444444443],[-0.06458333333333334,0.14444444444444443],[-0.06145833333333333,0.14629629629629629],[-0.06145833333333333,0.14629629629629629],[-0.058333333333333334,0.14814814814814814],[-0.05416666666666667,0.14814814814814814],[-0.04791666666666667,0.15],[-0.0375,0.1537037037037037],[-0.027083333333333334,0.1574074074074074],[-0.014583333333333334,0.15925925925925927],[-0.005208333333333333,0.16111111111111112],[-0.004166666666666667,0.16111111111111112],[-0.003125,0.16111111111111112],[-0.003125,0.16111111111111112],[-0.003125,0.16111111111111112],[-0.003125,0.16296296296296298],[-0.003125,0.1648148148148148],[-0.003125,0.1648148148148148],[-0.003125,0.1648148148148148],[-0.003125,0.1648148148148148],[-0.003125,0.1648148148148148],[-0.003125,0.1648148148148148],[-0.003125,0.1648148148148148],[-0.003125,0.1648148148148148],[-0.0010416666666666667,0.16666666666666666],[0.011458333333333333,0.16666666666666666],[0.03125,0.14814814814814814],[0.051041666666666666,0.1259259259259259],[0.06354166666666666,0.09444444444444444],[0.07708333333333334,0.04814814814814815],[0.0875,0.011111111111111112],[0.08854166666666667,0.005555555555555556],[0.08854166666666667,0.005555555555555556],[0.08854166666666667,0.005555555555555556],[0.08854166666666667,0.005555555555555556],[0.08854166666666667,0.005555555555555556],[0.08854166666666667,0.005555555555555556],[0.08854166666666667,0.005555555555555556],[0.08854166666666667,0.005555555555555556],[0.08854166666666667,0.005555555555555556],[0.08854166666666667,0.005555555555555556],[0.08854166666666667,0.005555555555555556],[0.08854166666666667,0.005555555555555556],[0.09166666666666666,0.005555555555555556],[0.09166666666666666,0.005555555555555556],[0.09166666666666666,0.005555555555555556],[0.09375,0.005555555555555556],[0.09479166666666666,0.005555555555555556],[0.09479166666666666,0.005555555555555556],[0.09479166666666666,0.005555555555555556],[0.09479166666666666,0.005555555555555556],[0.09479166666666666,0.005555555555555556],[0.09479166666666666,0.005555555555555556],[0.09583333333333334,0.005555555555555556],[0.096875,0.005555555555555556],[0.09791666666666667,0.007407407407407408],[0.09791666666666667,0.007407407407407408],[0.09791666666666667,0.007407407407407408],[0.09895833333333333,0.009259259259259259],[0.10104166666666667,0.011111111111111112],[0.103125,0.014814814814814815],[0.10625,0.018518518518518517],[0.11041666666666666,0.024074074074074074],[0.11354166666666667,0.02962962962962963],[0.11770833333333333,0.040740740740740744],[0.125,0.053703703703703705],[0.12916666666666668,0.06666666666666667],[0.13854166666666667,0.08703703703703704],[0.14375,0.1],[0.14895833333333333,0.11666666666666667],[0.15625,0.13333333333333333],[0.1625,0.14629629629629629],[0.165625,0.1537037037037037],[0.16770833333333332,0.1574074074074074],[0.16979166666666667,0.16111111111111112],[0.17083333333333334,0.1648148148148148],[0.17291666666666666,0.16666666666666666],[0.175,0.17222222222222222],[0.175,0.17222222222222222],[0.17708333333333334,0.17407407407407408],[0.17916666666666667,0.17777777777777778],[0.17916666666666667,0.17962962962962964],[0.18020833333333333,0.17962962962962964],[0.18020833333333333,0.17962962962962964],[0.18020833333333333,0.17962962962962964],[0.18020833333333333,0.17962962962962964],[0.18020833333333333,0.17962962962962964],[0.18020833333333333,0.17962962962962964],[0.18020833333333333,0.17962962962962964],[0.18020833333333333,0.17962962962962964],[0.17916666666666667,0.17962962962962964],[0.17395833333333333,0.17592592592592593],[0.17291666666666666,0.17592592592592593],[0.171875,0.17407407407407408],[0.171875,0.17407407407407408],[0.171875,0.17407407407407408],[0.171875,0.17407407407407408],[0.171875,0.17407407407407408],[0.171875,0.17407407407407408],[0.171875,0.17407407407407408],[0.171875,0.17407407407407408],[0.171875,0.17407407407407408],[0.171875,0.17407407407407408],[0.171875,0.17407407407407408],[0.171875,0.17407407407407408],[0.171875,0.17407407407407408],[0.171875,0.17407407407407408],[0.171875,0.17407407407407408],[0.171875,0.17407407407407408],[0.171875,0.17407407407407408],[0.17083333333333334,0.17222222222222222],[0.16875,0.15925925925925927],[0.16875,0.14814814814814814],[0.16875,0.14444444444444443],[0.16875,0.1425925925925926],[0.16875,0.1425925925925926],[0.16875,0.1425925925925926],[0.16875,0.1425925925925926],[0.16875,0.1425925925925926],[0.16875,0.1425925925925926],[0.16875,0.1425925925925926],[0.16875,0.1425925925925926],[0.16875,0.1425925925925926],[0.16875,0.1425925925925926],[0.16875,0.1425925925925926],[0.16875,0.1425925925925926],[0.16875,0.1425925925925926],[0.16875,0.1425925925925926],[0.16875,0.1425925925925926],[0.16875,0.1425925925925926],[0.16875,0.1425925925925926],[0.16875,0.1425925925925926],[0.16875,0.1425925925925926],[0.16875,0.1425925925925926],[0.16875,0.1425925925925926],[0.16875,0.1425925925925926],[0.16875,0.1425925925925926],[0.16875,0.1425925925925926],[0.16875,0.1425925925925926],[0.16875,0.1425925925925926],[0.16875,0.1425925925925926],[0.16875,0.1425925925925926],[0.16875,0.1425925925925926],[0.16875,0.1425925925925926],[0.16875,0.1425925925925926],[0.16875,0.1425925925925926],[0.16875,0.1425925925925926],[0.16875,0.1425925925925926],[0.16875,0.1425925925925926],[0.16875,0.1425925925925926],[0.16770833333333332,0.1425925925925926],[0.16770833333333332,0.1425925925925926],[0.16770833333333332,0.1425925925925926],[0.16770833333333332,0.1425925925925926],[0.16770833333333332,0.1425925925925926],[0.16666666666666666,0.1425925925925926],[0.16666666666666666,0.1425925925925926],[0.16666666666666666,0.1425925925925926],[0.16666666666666666,0.1425925925925926]]","[[-0.09812500000000005,0.005370370370370328],[-0.09812500000000005,0.005370370370370328],[-0.10260416666666666,-0.04018518518518527],[-0.0921875,-0.11333333333333331],[-0.08395833333333336,-0.09740740740740746],[-0.07572916666666671,-0.08148148148148149],[-0.07739583333333329,-0.06870370370370374],[-0.07739583333333329,-0.06870370370370374],[-0.07916666666666666,-0.03185185185185194],[-0.06854166666666663,-0.03333333333333333],[-0.06218750000000005,-0.02444444444444453],[-0.05927083333333331,0.0012962962962963806],[-0.05927083333333331,0.0012962962962963806],[-0.04833333333333331,-0.0025925925925925505],[-0.04833333333333331,-0.0025925925925925505],[-0.043124999999999976,0.06814814814814807],[-0.043124999999999976,0.06814814814814807],[-0.04812500000000005,0.18203703703703694],[-0.04812500000000005,0.18203703703703694],[-0.03583333333333331,0.19740740740740745],[-0.03583333333333331,0.19740740740740745],[-0.025520833333333333,0.21648148148148144],[-0.025520833333333333,0.21648148148148144],[-0.0140625,0.26518518518518525],[-0.004791666666666691,0.255925925925926],[-0.003854166666666714,0.26444444444444437],[0.00916666666666662,0.2388888888888889],[0.02312500000000005,0.2412962962962962],[0.015625,0.20425925925925917],[0.013541666666666667,0.17814814814814822],[0.020937500000000022,0.14574074074074084],[0.01552083333333331,0.11722222222222214],[-0.010104166666666714,0.127962962962963],[-0.016562499999999977,0.1014814814814814],[-0.0328125,0.13648148148148156],[-0.02781250000000005,0.12962962962962962],[-0.03260416666666662,0.08722222222222227],[-0.042812500000000024,0.0301851851851851],[-0.04541666666666669,0.007037037037036953],[-0.04833333333333331,0.026666666666666623],[-0.06770833333333333,0.0338888888888888],[-0.09739583333333333,0.022222222222222223],[-0.11614583333333334,-0.0022222222222223064],[-0.11395833333333331,-0.034999999999999955],[-0.13239583333333335,-0.053148148148148125],[-0.16979166666666667,-0.0690740740740741],[-0.16979166666666667,-0.0690740740740741],[-0.16635416666666672,-0.05277777777777778],[-0.19145833333333329,0.0005555555555554713],[-0.21218750000000006,0.040740740740740744],[-0.21281249999999996,0.06407407407407412],[-0.21427083333333338,0.0485185185185186],[-0.19812500000000005,0.0455555555555556],[-0.18541666666666667,0.055000000000000084],[-0.19260416666666663,0.07537037037037045],[-0.17937500000000003,0.10277777777777777],[-0.14729166666666665,0.10722222222222218],[-0.1578125,0.14314814814814805],[-0.1352083333333333,0.15500000000000008],[-0.10572916666666667,0.1551851851851851],[-0.10572916666666667,0.1551851851851851],[-0.10677083333333333,0.13555555555555565],[-0.10218750000000003,0.14833333333333337],[-0.10770833333333331,0.16018518518518518],[-0.09208333333333331,0.14962962962962956],[-0.0751041666666667,0.14888888888888885],[-0.04666666666666662,0.11740740740740736],[-0.051250000000000046,0.07259259259259268],[-0.07218749999999995,0.05018518518518523],[-0.07645833333333331,0.004259259259259175],[-0.08812500000000002,-0.011111111111111112],[-0.0890625,-0.03259259259259263],[-0.07979166666666669,-0.0787037037037037],[-0.06770833333333333,-0.1175925925925926],[-0.05562499999999997,-0.13648148148148145],[-0.07635416666666663,-0.1653703703703704],[-0.06208333333333336,-0.18462962962962962],[-0.049583333333333354,-0.17962962962962964],[-0.02666666666666669,-0.18185185185185182],[-0.022916666666666665,-0.12222222222222222],[-0.0007291666666667141,-0.12074074074074072],[0.021458333333333357,-0.11925925925925922],[0.020833333333333332,-0.06407407407407412],[0.018333333333333358,-0.027407407407407325],[0.024270833333333287,-0.03537037037037041],[0.03854166666666667,0.004074074074074159],[0.017812500000000023,0.0338888888888888],[0.023958333333333335,0.07777777777777778],[0.03208333333333328,0.10629629629629625],[0.034062500000000044,0.06777777777777783],[0.024374999999999977,0.07333333333333338],[0.014687500000000023,0.07888888888888893],[0.015625,0.08203703703703695],[0.029270833333333357,0.08777777777777773],[0.027291666666666714,0.0955555555555556],[0.035208333333333286,0.08796296296296297],[0.028854166666666715,0.08000000000000008],[0.0234375,0.08277777777777787],[0.011041666666666691,0.06462962962962959],[0.008124999999999953,0.07685185185185185],[0.018020833333333285,0.09888888888888885],[0.018020833333333285,0.09888888888888885],[0.03114583333333331,0.09462962962962967],[0.03114583333333331,0.09462962962962967],[0.02781250000000005,0.09370370370370375],[0.007500000000000047,0.08055555555555556],[0.011562500000000024,0.026851851851851852],[0.011874999999999976,-0.010740740740740657],[0.035312499999999976,-0.05],[0.025833333333333285,-0.051666666666666625],[0.050416666666666644,-0.072037037037037],[0.06770833333333333,-0.05722222222222218],[0.07135416666666666,-0.09685185185185187],[0.08239583333333324,-0.10407407407407405],[0.13177083333333334,-0.17481481481481478],[0.13947916666666677,-0.18796296296296297],[0.1178124999999999,-0.12018518518518514],[0.09760416666666671,-0.072037037037037],[0.09447916666666671,-0.035740740740740656],[0.11822916666666666,-0.06703703703703702],[0.11281249999999995,-0.0794444444444444],[0.11510416666666666,-0.11092592592592589],[0.11854166666666661,-0.12666666666666662],[0.11135416666666677,-0.1485185185185185],[0.08729166666666661,-0.1287037037037037],[0.11104166666666657,-0.1383333333333333],[0.1259375000000001,-0.18722222222222226],[0.14312500000000009,-0.23259259259259263],[0.15166666666666656,-0.26481481481481484],[0.16843750000000005,-0.2922222222222222],[0.16072916666666662,-0.29611111111111105],[0.16072916666666662,-0.29611111111111105],[0.15260416666666668,-0.31611111111111106],[0.15260416666666668,-0.31611111111111106],[0.1618750000000001,-0.32592592592592595],[0.1616666666666667,-0.3148148148148148],[0.1616666666666667,-0.3148148148148148],[0.14447916666666671,-0.30777777777777776],[0.14447916666666671,-0.30777777777777776],[0.15374999999999991,-0.30833333333333335],[0.15374999999999991,-0.30833333333333335],[0.17604166666666668,-0.30037037037037034],[0.19208333333333344,-0.30462962962962964],[0.19562499999999997,-0.3103703703703704],[0.19562499999999997,-0.3103703703703704],[0.17677083333333338,-0.2942592592592592],[0.1943749999999999,-0.2759259259259259],[0.2046875,-0.24092592592592596],[0.19041666666666662,-0.22185185185185188],[0.19114583333333332,-0.2131481481481482],[0.20520833333333333,-0.23166666666666672],[0.19281249999999991,-0.24259259259259258],[0.1779166666666666,-0.24666666666666665],[0.1728125000000001,-0.25148148148148153],[0.1703125,-0.2361111111111111],[0.17614583333333325,-0.23018518518518521],[0.17447916666666666,-0.23203703703703707],[0.17843749999999994,-0.22537037037037036],[0.1857291666666666,-0.2064814814814815],[0.1803124999999999,-0.20666666666666672],[0.1875,-0.20685185185185184],[0.1929166666666667,-0.18407407407407403],[0.20729166666666668,-0.17259259259259258],[0.2181250000000001,-0.14814814814814814],[0.21385416666666662,-0.1479629629629629],[0.21375000000000005,-0.13851851851851854],[0.20177083333333337,-0.10555555555555556],[0.19145833333333329,-0.0977777777777778],[0.19020833333333323,-0.10796296296296298],[0.1961458333333333,-0.1096296296296296],[0.19093749999999995,-0.06555555555555552],[0.1875,-0.044444444444444446],[0.1883333333333333,-0.02555555555555547],[0.1806250000000001,0.005370370370370328],[0.18250000000000005,0.02907407407407416],[0.19041666666666662,0.010185185185185186],[0.20885416666666667,-0.009814814814814731],[0.22729166666666673,-0.029814814814814856],[0.209375,0.023333333333333376],[0.19395833333333337,0.05481481481481486],[0.17395833333333333,0.09611111111111106],[0.15281250000000005,0.12740740740740733],[0.11708333333333343,0.16944444444444445],[0.10510416666666676,0.16814814814814807],[0.0912499999999999,0.18037037037037032],[0.05239583333333329,0.25259259259259254],[0.029062499999999977,0.2479629629629629],[-0.005312500000000024,0.272037037037037],[-0.002708333333333357,0.22333333333333338],[-0.0026041666666666665,0.1962962962962963],[-0.04479166666666667,0.16740740740740737],[-0.043958333333333384,0.10722222222222218],[-0.03270833333333331,-0.027962962962963005],[-0.01906249999999995,-0.10018518518518522]]","[[-0.09812500000000005,0.005370370370370328,0.0002000000000066393],[-0.09812500000000005,0.005370370370370328,0.0380999999999716],[-0.10260416666666666,-0.04018518518518527,0.04839999999996536],[-0.0921875,-0.11333333333333331,0.06179999999998387],[-0.08395833333333336,-0.09740740740740746,0.07909999999997552],[-0.07572916666666671,-0.08148148148148149,0.0988999999999649],[-0.07739583333333329,-0.06870370370370374,0.1145999999999745],[-0.07739583333333329,-0.06870370370370374,0.1284999999999954],[-0.07916666666666666,-0.03185185185185194,0.14520000000000977],[-0.06854166666666663,-0.03333333333333333,0.1617999999999853],[-0.06218750000000005,-0.02444444444444453,0.18079999999998364],[-0.05927083333333331,0.0012962962962963806,0.1997000000000071],[-0.05927083333333331,0.0012962962962963806,0.21189999999996445],[-0.04833333333333331,-0.0025925925925925505,0.22859999999997171],[-0.04833333333333331,-0.0025925925925925505,0.2452000000000112],[-0.043124999999999976,0.06814814814814807,0.2617999999999867],[-0.043124999999999976,0.06814814814814807,0.278599999999976],[-0.04812500000000005,0.18203703703703694,0.29529999999998324],[-0.04812500000000005,0.18203703703703694,0.3133999999999588],[-0.03583333333333331,0.19740740740740745,0.3287999999999869],[-0.03583333333333331,0.19740740740740745,0.3463999999999601],[-0.025520833333333333,0.21648148148148144,0.36189999999996303],[-0.025520833333333333,0.21648148148148144,0.3785999999999703],[-0.0140625,0.26518518518518525,0.39529999999998466],[-0.004791666666666691,0.255925925925926,0.4153999999999627],[-0.003854166666666714,0.26444444444444437,0.4310999999999723],[0.00916666666666662,0.2388888888888889,0.447499999999998],[0.02312500000000005,0.2412962962962962,0.4642999999999873],[0.015625,0.20425925925925917,0.4808999999999628],[0.013541666666666667,0.17814814814814822,0.49549999999999983],[0.020937500000000022,0.14574074074074084,0.5117999999999867],[0.01552083333333331,0.11722222222222214,0.529999999999994],[-0.010104166666666714,0.127962962962963,0.5475999999999743],[-0.016562499999999977,0.1014814814814814,0.5617999999999839],[-0.0328125,0.13648148148148156,0.5784999999999982],[-0.02781250000000005,0.12962962962962962,0.597999999999999],[-0.03260416666666662,0.08722222222222227,0.6119999999999948],[-0.042812500000000024,0.0301851851851851,0.6287000000000091],[-0.04541666666666669,0.007037037037036953,0.6450999999999709],[-0.04833333333333331,0.026666666666666623,0.6639999999999944],[-0.06770833333333333,0.0338888888888888,0.6785999999999746],[-0.09739583333333333,0.022222222222222223,0.6987999999999843],[-0.11614583333333334,-0.0022222222222223064,0.7158999999999622],[-0.11395833333333331,-0.034999999999999955,0.7287999999999855],[-0.13239583333333335,-0.053148148148148125,0.7452999999999861],[-0.16979166666666667,-0.0690740740740741,0.7620000000000005],[-0.16979166666666667,-0.0690740740740741,0.7812999999999874],[-0.16635416666666672,-0.05277777777777778,0.7953999999999652],[-0.19145833333333329,0.0005555555555554713,0.8117999999999839],[-0.21218750000000006,0.040740740740740744,0.8283999999999594],[-0.21281249999999996,0.06407407407407412,0.8473999999999648],[-0.21427083333333338,0.0485185185185186,0.861899999999963],[-0.19812500000000005,0.0455555555555556,0.8784999999999954],[-0.18541666666666667,0.055000000000000084,0.8954999999999984],[-0.19260416666666663,0.07537037037037045,0.9158999999999651],[-0.17937500000000003,0.10277777777777777,0.9312000000000111],[-0.14729166666666665,0.10722222222222218,0.9475999999999729],[-0.1578125,0.14314814814814805,0.9618999999999645],[-0.1352083333333333,0.15500000000000008,0.9784999999999968],[-0.10572916666666667,0.1551851851851851,1.0013999999999612],[-0.10572916666666667,0.1551851851851851,1.0120000000000005],[-0.10677083333333333,0.13555555555555565,1.0287000000000077],[-0.10218750000000003,0.14833333333333337,1.0452999999999832],[-0.10770833333333331,0.16018518518518518,1.0667999999999864],[-0.09208333333333331,0.14962962962962956,1.0820999999999756],[-0.0751041666666667,0.14888888888888885,1.0967999999999876],[-0.04666666666666662,0.11740740740740736,1.111899999999963],[-0.051250000000000046,0.07259259259259268,1.1284999999999954],[-0.07218749999999995,0.05018518518518523,1.1467000000000098],[-0.07645833333333331,0.004259259259259175,1.1617999999999853],[-0.08812500000000002,-0.011111111111111112,1.1783999999999608],[-0.0890625,-0.03259259259259263,1.195200000000007],[-0.07979166666666669,-0.0787037037037037,1.2117999999999824],[-0.06770833333333333,-0.1175925925925926,1.2284999999999968],[-0.05562499999999997,-0.13648148148148145,1.2450999999999723],[-0.07635416666666663,-0.1653703703703704,1.2617999999999867],[-0.06208333333333336,-0.18462962962962962,1.2783999999999622],[-0.049583333333333354,-0.17962962962962964,1.2987999999999857],[-0.02666666666666669,-0.18185185185185182,1.3164999999999978],[-0.022916666666666665,-0.12222222222222222,1.3312000000000097],[-0.0007291666666667141,-0.12074074074074072,1.345700000000008],[0.021458333333333357,-0.11925925925925922,1.3620999999999768],[0.020833333333333332,-0.06407407407407412,1.3817000000000093],[0.018333333333333358,-0.027407407407407325,1.3974999999999937],[0.024270833333333287,-0.03537037037037041,1.4139999999999944],[0.03854166666666667,0.004074074074074159,1.4284999999999997],[0.017812500000000023,0.0338888888888888,1.4450999999999752],[0.023958333333333335,0.07777777777777778,1.4617999999999824],[0.03208333333333328,0.10629629629629625,1.4810999999999765],[0.034062500000000044,0.06777777777777783,1.4974999999999952],[0.024374999999999977,0.07333333333333338,1.5158999999999594],[0.014687500000000023,0.07888888888888893,1.5288999999999646],[0.015625,0.08203703703703695,1.5453999999999652],[0.029270833333333357,0.08777777777777773,1.5648999999999589],[0.027291666666666714,0.0955555555555556,1.5814999999999984],[0.035208333333333286,0.08796296296296297,1.5980999999999739],[0.028854166666666715,0.08000000000000008,1.616499999999995],[0.0234375,0.08277777777777787,1.6312999999999889],[0.011041666666666691,0.06462962962962959,1.645899999999962],[0.008124999999999953,0.07685185185185185,1.661999999999999],[0.018020833333333285,0.09888888888888885,1.6812000000000111],[0.018020833333333285,0.09888888888888885,1.6957000000000093],[0.03114583333333331,0.09462962962962967,1.7119999999999962],[0.03114583333333331,0.09462962962962967,1.7285999999999717],[0.02781250000000005,0.09370370370370375,1.7487000000000066],[0.007500000000000047,0.08055555555555556,1.7655999999999707],[0.011562500000000024,0.026851851851851852,1.7818999999999647],[0.011874999999999976,-0.010740740740740657,1.7987000000000108],[0.035312499999999976,-0.05,1.8153999999999613],[0.025833333333333285,-0.051666666666666625,1.830200000000012],[0.050416666666666644,-0.072037037037037,1.8452999999999875],[0.06770833333333333,-0.05722222222222218,1.864200000000011],[0.07135416666666666,-0.09685185185185187,1.8785999999999703],[0.08239583333333324,-0.10407407407407405,1.895099999999971],[0.13177083333333334,-0.17481481481481478,1.9167999999999878],[0.13947916666666677,-0.18796296296296297,1.9322999999999837],[0.1178124999999999,-0.12018518518518514,1.9473999999999592],[0.09760416666666671,-0.072037037037037,1.9619999999999962],[0.09447916666666671,-0.035740740740740656,1.9817999999999856],[0.11822916666666666,-0.06703703703703702,1.9972000000000065],[0.11281249999999995,-0.0794444444444444,2.013999999999996],[0.11510416666666666,-0.11092592592592589,2.028499999999994],[0.11854166666666661,-0.12666666666666662,2.0472999999999857],[0.11135416666666677,-0.1485185185185185,2.061700000000009],[0.08729166666666661,-0.1287037037037037,2.0784999999999982],[0.11104166666666657,-0.1383333333333333,2.0989999999999966],[0.1259375000000001,-0.18722222222222226,2.114299999999986],[0.14312500000000009,-0.23259259259259263,2.1285999999999703],[0.15166666666666656,-0.26481481481481484,2.1452999999999847],[0.16843750000000005,-0.2922222222222222,2.1617999999999853],[0.16072916666666662,-0.29611111111111105,2.178399999999961],[0.16072916666666662,-0.29611111111111105,2.1955999999999705],[0.15260416666666668,-0.31611111111111106,2.2117999999999824],[0.15260416666666668,-0.31611111111111106,2.228499999999997],[0.1618750000000001,-0.32592592592592595,2.245200000000011],[0.1616666666666667,-0.3148148148148148,2.2689999999999984],[0.1616666666666667,-0.3148148148148148,2.2783999999999622],[0.14447916666666671,-0.30777777777777776,2.2952000000000083],[0.14447916666666671,-0.30777777777777776,2.311799999999984],[0.15374999999999991,-0.30833333333333335,2.328599999999973],[0.15374999999999991,-0.30833333333333335,2.3452000000000055],[0.17604166666666668,-0.30037037037037034,2.361899999999963],[0.19208333333333344,-0.30462962962962964,2.3840000000000003],[0.19562499999999997,-0.3103703703703704,2.401999999999994],[0.19562499999999997,-0.3103703703703704,2.4117999999999853],[0.17677083333333338,-0.2942592592592592,2.431399999999961],[0.1943749999999999,-0.2759259259259259,2.4454999999999956],[0.2046875,-0.24092592592592596,2.4618999999999645],[0.19041666666666662,-0.22185185185185188,2.4818999999999605],[0.19114583333333332,-0.2131481481481482,2.496799999999986],[0.20520833333333333,-0.23166666666666672,2.5118999999999616],[0.19281249999999991,-0.24259259259259258,2.5283999999999622],[0.1779166666666666,-0.24666666666666665,2.5452000000000083],[0.1728125000000001,-0.25148148148148153,2.561799999999984],[0.1703125,-0.2361111111111111,2.5784999999999982],[0.17614583333333325,-0.23018518518518521,2.5950999999999738],[0.17447916666666666,-0.23203703703703707,2.6119999999999948],[0.17843749999999994,-0.22537037037037036,2.6283999999999637],[0.1857291666666666,-0.2064814814814815,2.6452000000000098],[0.1803124999999999,-0.20666666666666672,2.6617999999999853],[0.1875,-0.20685185185185184,2.678899999999963],[0.1929166666666667,-0.18407407407407403,2.698999999999998],[0.20729166666666668,-0.17259259259259258,2.715299999999985],[0.2181250000000001,-0.14814814814814814,2.728999999999999],[0.21385416666666662,-0.1479629629629629,2.745200000000011],[0.21375000000000005,-0.13851851851851854,2.7618999999999616],[0.20177083333333337,-0.10555555555555556,2.78070000000001],[0.19145833333333329,-0.0977777777777778,2.7952000000000083],[0.19020833333333323,-0.10796296296296298,2.811799999999984],[0.1961458333333333,-0.1096296296296296,2.8283999999999594],[0.19093749999999995,-0.06555555555555552,2.8450999999999738],[0.1875,-0.044444444444444446,2.8619999999999948],[0.1883333333333333,-0.02555555555555547,2.8807999999999865],[0.1806250000000001,0.005370370370370328,2.8955999999999733],[0.18250000000000005,0.02907407407407416,2.9117999999999853],[0.19041666666666662,0.010185185185185186,2.9284999999999997],[0.20885416666666667,-0.009814814814814731,2.9472999999999843],[0.22729166666666673,-0.029814814814814856,2.9617000000000075],[0.209375,0.023333333333333376,2.978499999999997],[0.19395833333333337,0.05481481481481486,2.9950999999999723],[0.17395833333333333,0.09611111111111106,3.0117999999999867],[0.15281250000000005,0.12740740740740733,3.028499999999994],[0.11708333333333343,0.16944444444444445,3.0450999999999766],[0.10510416666666676,0.16814814814814807,3.061799999999984],[0.0912499999999999,0.18037037037037032,3.0783999999999594],[0.05239583333333329,0.25259259259259254,3.098099999999974],[0.029062499999999977,0.2479629629629629,3.1122000000000085],[-0.005312500000000024,0.272037037037037,3.1284999999999954],[-0.002708333333333357,0.22333333333333338,3.1452000000000098],[-0.0026041666666666665,0.1962962962962963,3.1617999999999853],[-0.04479166666666667,0.16740740740740737,3.1817999999999884],[-0.043958333333333384,0.10722222222222218,3.198899999999959],[-0.03270833333333331,-0.027962962962963005,3.2142000000000053],[-0.01906249999999995,-0.10018518518518522,3.2288999999999604]]","[0.0002000000000066393,0.0380999999999716,0.04839999999996536,0.06179999999998387,0.07909999999997552,0.0988999999999649,0.1145999999999745,0.1284999999999954,0.14520000000000977,0.1617999999999853,0.18079999999998364,0.1997000000000071,0.21189999999996445,0.22859999999997171,0.2452000000000112,0.2617999999999867,0.278599999999976,0.29529999999998324,0.3133999999999588,0.3287999999999869,0.3463999999999601,0.36189999999996303,0.3785999999999703,0.39529999999998466,0.4153999999999627,0.4310999999999723,0.447499999999998,0.4642999999999873,0.4808999999999628,0.49549999999999983,0.5117999999999867,0.529999999999994,0.5475999999999743,0.5617999999999839,0.5784999999999982,0.597999999999999,0.6119999999999948,0.6287000000000091,0.6450999999999709,0.6639999999999944,0.6785999999999746,0.6987999999999843,0.7158999999999622,0.7287999999999855,0.7452999999999861,0.7620000000000005,0.7812999999999874,0.7953999999999652,0.8117999999999839,0.8283999999999594,0.8473999999999648,0.861899999999963,0.8784999999999954,0.8954999999999984,0.9158999999999651,0.9312000000000111,0.9475999999999729,0.9618999999999645,0.9784999999999968,1.0013999999999612,1.0120000000000005,1.0287000000000077,1.0452999999999832,1.0667999999999864,1.0820999999999756,1.0967999999999876,1.111899999999963,1.1284999999999954,1.1467000000000098,1.1617999999999853,1.1783999999999608,1.195200000000007,1.2117999999999824,1.2284999999999968,1.2450999999999723,1.2617999999999867,1.2783999999999622,1.2987999999999857,1.3164999999999978,1.3312000000000097,1.345700000000008,1.3620999999999768,1.3817000000000093,1.3974999999999937,1.4139999999999944,1.4284999999999997,1.4450999999999752,1.4617999999999824,1.4810999999999765,1.4974999999999952,1.5158999999999594,1.5288999999999646,1.5453999999999652,1.5648999999999589,1.5814999999999984,1.5980999999999739,1.616499999999995,1.6312999999999889,1.645899999999962,1.661999999999999,1.6812000000000111,1.6957000000000093,1.7119999999999962,1.7285999999999717,1.7487000000000066,1.7655999999999707,1.7818999999999647,1.7987000000000108,1.8153999999999613,1.830200000000012,1.8452999999999875,1.864200000000011,1.8785999999999703,1.895099999999971,1.9167999999999878,1.9322999999999837,1.9473999999999592,1.9619999999999962,1.9817999999999856,1.9972000000000065,2.013999999999996,2.028499999999994,2.0472999999999857,2.061700000000009,2.0784999999999982,2.0989999999999966,2.114299999999986,2.1285999999999703,2.1452999999999847,2.1617999999999853,2.178399999999961,2.1955999999999705,2.2117999999999824,2.228499999999997,2.245200000000011,2.2689999999999984,2.2783999999999622,2.2952000000000083,2.311799999999984,2.328599999999973,2.3452000000000055,2.361899999999963,2.3840000000000003,2.401999999999994,2.4117999999999853,2.431399999999961,2.4454999999999956,2.4618999999999645,2.4818999999999605,2.496799999999986,2.5118999999999616,2.5283999999999622,2.5452000000000083,2.561799999999984,2.5784999999999982,2.5950999999999738,2.6119999999999948,2.6283999999999637,2.6452000000000098,2.6617999999999853,2.678899999999963,2.698999999999998,2.715299999999985,2.728999999999999,2.745200000000011,2.7618999999999616,2.78070000000001,2.7952000000000083,2.811799999999984,2.8283999999999594,2.8450999999999738,2.8619999999999948,2.8807999999999865,2.8955999999999733,2.9117999999999853,2.9284999999999997,2.9472999999999843,2.9617000000000075,2.978499999999997,2.9950999999999723,3.0117999999999867,3.028499999999994,3.0450999999999766,3.061799999999984,3.0783999999999594,3.098099999999974,3.1122000000000085,3.1284999999999954,3.1452000000000098,3.1617999999999853,3.1817999999999884,3.198899999999959,3.2142000000000053,3.2288999999999604]","[1733110929991,1733110930021,1733110930032,1733110930045,1733110930062,1733110930082,1733110930098,1733110930112,1733110930128,1733110930145,1733110930164,1733110930183,1733110930195,1733110930212,1733110930228,1733110930245,1733110930262,1733110930278,1733110930297,1733110930312,1733110930330,1733110930345,1733110930362,1733110930378,1733110930398,1733110930414,1733110930431,1733110930447,1733110930464,1733110930479,1733110930495,1733110930513,1733110930531,1733110930545,1733110930562,1733110930581,1733110930595,1733110930612,1733110930628,1733110930647,1733110930662,1733110930682,1733110930699,1733110930712,1733110930728,1733110930745,1733110930764,1733110930778,1733110930795,1733110930812,1733110930830,1733110930845,1733110930862,1733110930879,1733110930899,1733110930914,1733110930931,1733110930945,1733110930962,1733110930985,1733110930995,1733110931012,1733110931028,1733110931050,1733110931065,1733110931080,1733110931095,1733110931112,1733110931130,1733110931145,1733110931162,1733110931178,1733110931195,1733110931212,1733110931228,1733110931245,1733110931262,1733110931282,1733110931300,1733110931314,1733110931329,1733110931345,1733110931365,1733110931381,1733110931397,1733110931412,1733110931428,1733110931445,1733110931464,1733110931481,1733110931499,1733110931512,1733110931528,1733110931548,1733110931565,1733110931581,1733110931600,1733110931614,1733110931629,1733110931645,1733110931664,1733110931679,1733110931695,1733110931712,1733110931732,1733110931749,1733110931765,1733110931782,1733110931799,1733110931813,1733110931828,1733110931847,1733110931862,1733110931878,1733110931900,1733110931915,1733110931930,1733110931945,1733110931965,1733110931980,1733110931997,1733110932012,1733110932030,1733110932045,1733110932062,1733110932082,1733110932097,1733110932112,1733110932128,1733110932145,1733110932162,1733110932179,1733110932195,1733110932212,1733110932228,1733110932252,1733110932262,1733110932278,1733110932295,1733110932312,1733110932328,1733110932345,1733110932367,1733110932385,1733110932395,1733110932414,1733110932429,1733110932445,1733110932465,1733110932480,1733110932495,1733110932512,1733110932528,1733110932545,1733110932562,1733110932578,1733110932595,1733110932612,1733110932628,1733110932645,1733110932662,1733110932682,1733110932698,1733110932712,1733110932728,1733110932745,1733110932764,1733110932778,1733110932795,1733110932812,1733110932828,1733110932845,1733110932864,1733110932879,1733110932895,1733110932912,1733110932930,1733110932945,1733110932962,1733110932978,1733110932995,1733110933012,1733110933028,1733110933045,1733110933062,1733110933081,1733110933095,1733110933112,1733110933128,1733110933145,1733110933165,1733110933182,1733110933197,1733110933212]","[[865.8,542.9],[865.8,542.9],[861.5,518.3],[871.5,478.8],[879.4,487.4],[887.3,496],[885.7,502.9],[885.7,502.9],[884,522.8],[894.2,522],[900.3,526.8],[903.1,540.7],[903.1,540.7],[913.6,538.6],[913.6,538.6],[918.6,576.8],[918.6,576.8],[913.8,638.3],[913.8,638.3],[925.6,646.6],[925.6,646.6],[935.5,656.9],[935.5,656.9],[946.5,683.2],[955.4,678.2],[956.3,682.8],[968.8,669],[982.2,670.3],[975,650.3],[973,636.2],[980.1,618.7],[974.9,603.3],[950.3,609.1],[944.1,594.8],[928.5,613.7],[933.3,610],[928.7,587.1],[918.9,556.3],[916.4,543.8],[913.6,554.4],[895,558.3],[866.5,552],[848.5,538.8],[850.6,521.1],[832.9,511.3],[797,502.7],[797,502.7],[800.3,511.5],[776.2,540.3],[756.3,562],[755.7,574.6],[754.3,566.2],[769.8,564.6],[782,569.7],[775.1,580.7],[787.8,595.5],[818.6,597.9],[808.5,617.3],[830.2,623.7],[858.5,623.8],[858.5,623.8],[857.5,613.2],[861.9,620.1],[856.6,626.5],[871.6,620.8],[887.9,620.4],[915.2,603.4],[910.8,579.2],[890.7,567.1],[886.6,542.3],[875.4,534],[874.5,522.4],[883.4,497.5],[895,476.5],[906.6,466.3],[886.7,450.7],[900.4,440.3],[912.4,443],[934.4,441.8],[938,474],[959.3,474.8],[980.6,475.6],[980,505.4],[977.6,525.2],[983.3,520.9],[997,542.2],[977.1,558.3],[983,582],[990.8,597.4],[992.7,576.6],[983.4,579.6],[974.1,582.6],[975,584.3],[988.1,587.4],[986.2,591.6],[993.8,587.5],[987.7,583.2],[982.5,584.7],[970.6,574.9],[967.8,581.5],[977.3,593.4],[977.3,593.4],[989.9,591.1],[989.9,591.1],[986.7,590.6],[967.2,583.5],[971.1,554.5],[971.4,534.2],[993.9,513],[984.8,512.1],[1008.4,501.1],[1025,509.1],[1028.5,487.7],[1039.1,483.8],[1086.5,445.6],[1093.9,438.5],[1073.1,475.1],[1053.7,501.1],[1050.7,520.7],[1073.5,503.8],[1068.3,497.1],[1070.5,480.1],[1073.8,471.6],[1066.9,459.8],[1043.8,470.5],[1066.6,465.3],[1080.9,438.9],[1097.4,414.4],[1105.6,397],[1121.7,382.2],[1114.3,380.1],[1114.3,380.1],[1106.5,369.3],[1106.5,369.3],[1115.4,364],[1115.2,370],[1115.2,370],[1098.7,373.8],[1098.7,373.8],[1107.6,373.5],[1107.6,373.5],[1129,377.8],[1144.4,375.5],[1147.8,372.4],[1147.8,372.4],[1129.7,381.1],[1146.6,391],[1156.5,409.9],[1142.8,420.2],[1143.5,424.9],[1157,414.9],[1145.1,409],[1130.8,406.8],[1125.9,404.2],[1123.5,412.5],[1129.1,415.7],[1127.5,414.7],[1131.3,418.3],[1138.3,428.5],[1133.1,428.4],[1140,428.3],[1145.2,440.6],[1159,446.8],[1169.4,460],[1165.3,460.1],[1165.2,465.2],[1153.7,483],[1143.8,487.2],[1142.6,481.7],[1148.3,480.8],[1143.3,504.6],[1140,516],[1140.8,526.2],[1133.4,542.9],[1135.2,555.7],[1142.8,545.5],[1160.5,534.7],[1178.2,523.9],[1161,552.6],[1146.2,569.6],[1127,591.9],[1106.7,608.8],[1072.4,631.5],[1060.9,630.8],[1047.6,637.4],[1010.3,676.4],[987.9,673.9],[954.9,686.9],[957.4,660.6],[957.5,646],[917,630.4],[917.8,597.9],[928.6,524.9],[941.7,485.9]]","[0,0.151169218]","[0.151169218,0.151169218]","[-0.151169218,0]","[-0.151169218,-0.151169218]","[0,0]","[0.151169218,0]","[0,-0.151169218]","[0.151169218,-0.151169218]",0,0,0,0,1,4,Smartphone,11,5,13,9
,,,,,,,,,,,,,,,,,,,46,001,2024-12-02_11h41.26.196,Attention_exp_legacy,2023.1.0,Win32,59.88023952,,,,,,,,,,,[0.14375],[0.13703703703703704],[1],[0],[0],[5.881299999999989],"[""Option2_label""]",Option2_label,2,6.9,"[[0.12916666666666668,-0.16296296296296298],[0.12916666666666668,-0.16296296296296298],[0.12916666666666668,-0.16296296296296298],[0.12916666666666668,-0.16296296296296298],[0.12604166666666666,-0.16296296296296298],[0.125,-0.16111111111111112],[0.11875,-0.16111111111111112],[0.10729166666666666,-0.16111111111111112],[0.08020833333333334,-0.16666666666666666],[0.071875,-0.16666666666666666],[0.057291666666666664,-0.17037037037037037],[0.05416666666666667,-0.17222222222222222],[0.05416666666666667,-0.17222222222222222],[0.053125,-0.17407407407407408],[0.053125,-0.17407407407407408],[0.053125,-0.17407407407407408],[0.053125,-0.17407407407407408],[0.053125,-0.17407407407407408],[0.053125,-0.17407407407407408],[0.053125,-0.17407407407407408],[0.053125,-0.17222222222222222],[0.058333333333333334,-0.15925925925925927],[0.059375,-0.15185185185185185],[0.06354166666666666,-0.1425925925925926],[0.065625,-0.13333333333333333],[0.06770833333333333,-0.12777777777777777],[0.06875,-0.12037037037037036],[0.06875,-0.11851851851851852],[0.06875,-0.11296296296296296],[0.06875,-0.1111111111111111],[0.06875,-0.10925925925925926],[0.06875,-0.10555555555555556],[0.06875,-0.10185185185185185],[0.06770833333333333,-0.09814814814814815],[0.065625,-0.0962962962962963],[0.065625,-0.09259259259259259],[0.0625,-0.08703703703703704],[0.059375,-0.08148148148148149],[0.051041666666666666,-0.06851851851851852],[0.0375,-0.046296296296296294],[0.021875,-0.005555555555555556],[0.004166666666666667,0.027777777777777776],[-0.00625,0.04814814814814815],[-0.014583333333333334,0.06111111111111111],[-0.016666666666666666,0.06481481481481481],[-0.016666666666666666,0.06481481481481481],[-0.016666666666666666,0.06481481481481481],[-0.016666666666666666,0.06481481481481481],[-0.016666666666666666,0.06481481481481481],[-0.0125,0.053703703703703705],[0.008333333333333333,0.018518518518518517],[0.035416666666666666,-0.022222222222222223],[0.06354166666666666,-0.05555555555555555],[0.084375,-0.07962962962962963],[0.10104166666666667,-0.09444444444444444],[0.10416666666666667,-0.09814814814814815],[0.10416666666666667,-0.10185185185185185],[0.10416666666666667,-0.1037037037037037],[0.10416666666666667,-0.1037037037037037],[0.10416666666666667,-0.1037037037037037],[0.10416666666666667,-0.1037037037037037],[0.10416666666666667,-0.1037037037037037],[0.10416666666666667,-0.1037037037037037],[0.10416666666666667,-0.1037037037037037],[0.10416666666666667,-0.1037037037037037],[0.10416666666666667,-0.1037037037037037],[0.10416666666666667,-0.1037037037037037],[0.10416666666666667,-0.1037037037037037],[0.10416666666666667,-0.10925925925925926],[0.103125,-0.1111111111111111],[0.09895833333333333,-0.1111111111111111],[0.09791666666666667,-0.11296296296296296],[0.09791666666666667,-0.11296296296296296],[0.09791666666666667,-0.11296296296296296],[0.09791666666666667,-0.11296296296296296],[0.10104166666666667,-0.1111111111111111],[0.10520833333333333,-0.10740740740740741],[0.11041666666666666,-0.1],[0.11354166666666667,-0.09814814814814815],[0.11875,-0.0962962962962963],[0.12083333333333333,-0.09259259259259259],[0.121875,-0.09259259259259259],[0.12291666666666666,-0.09259259259259259],[0.12291666666666666,-0.09259259259259259],[0.12291666666666666,-0.09259259259259259],[0.12395833333333334,-0.09259259259259259],[0.125,-0.09259259259259259],[0.12604166666666666,-0.09259259259259259],[0.12708333333333333,-0.09444444444444444],[0.12708333333333333,-0.09814814814814815],[0.12708333333333333,-0.1037037037037037],[0.12916666666666668,-0.10925925925925926],[0.13020833333333334,-0.11296296296296296],[0.13020833333333334,-0.11851851851851852],[0.13020833333333334,-0.12407407407407407],[0.13020833333333334,-0.1259259259259259],[0.13020833333333334,-0.12962962962962962],[0.13020833333333334,-0.13703703703703704],[0.12916666666666668,-0.1425925925925926],[0.128125,-0.15],[0.12291666666666666,-0.15925925925925927],[0.121875,-0.16111111111111112],[0.11875,-0.17037037037037037],[0.11666666666666667,-0.17407407407407408],[0.11354166666666667,-0.1814814814814815],[0.11041666666666666,-0.1962962962962963],[0.109375,-0.2074074074074074],[0.10729166666666666,-0.21851851851851853],[0.10729166666666666,-0.22962962962962963],[0.10729166666666666,-0.2388888888888889],[0.10729166666666666,-0.2462962962962963],[0.109375,-0.2574074074074074],[0.11145833333333334,-0.26296296296296295],[0.11354166666666667,-0.2722222222222222],[0.11666666666666667,-0.2740740740740741],[0.12083333333333333,-0.2777777777777778],[0.125,-0.2777777777777778],[0.12604166666666666,-0.2777777777777778],[0.12604166666666666,-0.2777777777777778],[0.12604166666666666,-0.2777777777777778],[0.12604166666666666,-0.2777777777777778],[0.12604166666666666,-0.2777777777777778],[0.12604166666666666,-0.2777777777777778],[0.12604166666666666,-0.2777777777777778],[0.12604166666666666,-0.2777777777777778],[0.12604166666666666,-0.2777777777777778],[0.12604166666666666,-0.2777777777777778],[0.12604166666666666,-0.2777777777777778],[0.12604166666666666,-0.2777777777777778],[0.12604166666666666,-0.2777777777777778],[0.12604166666666666,-0.2777777777777778],[0.12604166666666666,-0.2777777777777778],[0.12604166666666666,-0.2777777777777778],[0.12604166666666666,-0.2777777777777778],[0.12604166666666666,-0.2777777777777778],[0.12604166666666666,-0.2777777777777778],[0.12604166666666666,-0.2777777777777778],[0.12604166666666666,-0.2777777777777778],[0.12604166666666666,-0.2777777777777778],[0.12604166666666666,-0.2777777777777778],[0.12604166666666666,-0.2777777777777778],[0.12604166666666666,-0.2777777777777778],[0.12604166666666666,-0.2777777777777778],[0.12604166666666666,-0.2777777777777778],[0.12604166666666666,-0.2777777777777778],[0.12604166666666666,-0.2777777777777778],[0.12604166666666666,-0.2777777777777778],[0.12604166666666666,-0.2777777777777778],[0.12604166666666666,-0.2777777777777778],[0.12604166666666666,-0.2777777777777778],[0.12604166666666666,-0.2777777777777778],[0.12604166666666666,-0.2777777777777778],[0.12604166666666666,-0.2777777777777778],[0.12604166666666666,-0.2777777777777778],[0.12604166666666666,-0.2777777777777778],[0.12604166666666666,-0.2777777777777778],[0.12604166666666666,-0.2777777777777778],[0.12604166666666666,-0.2777777777777778],[0.12604166666666666,-0.2777777777777778],[0.12604166666666666,-0.2777777777777778],[0.12604166666666666,-0.2759259259259259],[0.12604166666666666,-0.2740740740740741],[0.125,-0.26851851851851855],[0.12395833333333334,-0.26481481481481484],[0.12395833333333334,-0.26481481481481484],[0.12291666666666666,-0.2611111111111111],[0.121875,-0.2574074074074074],[0.121875,-0.2574074074074074],[0.121875,-0.25555555555555554],[0.121875,-0.2537037037037037],[0.121875,-0.2537037037037037],[0.121875,-0.2537037037037037],[0.121875,-0.2537037037037037],[0.121875,-0.2518518518518518],[0.121875,-0.25],[0.12083333333333333,-0.25],[0.12083333333333333,-0.25],[0.12083333333333333,-0.25],[0.12083333333333333,-0.25],[0.12083333333333333,-0.25],[0.12083333333333333,-0.24814814814814815],[0.12083333333333333,-0.24814814814814815],[0.11979166666666667,-0.2462962962962963],[0.11875,-0.24444444444444444],[0.11875,-0.24074074074074073],[0.11875,-0.2388888888888889],[0.11770833333333333,-0.23333333333333334],[0.11666666666666667,-0.22962962962962963],[0.11666666666666667,-0.22592592592592592],[0.115625,-0.22407407407407406],[0.115625,-0.22037037037037038],[0.11458333333333333,-0.21851851851851853],[0.11458333333333333,-0.21666666666666667],[0.11458333333333333,-0.21481481481481482],[0.11458333333333333,-0.21296296296296297],[0.11458333333333333,-0.2111111111111111],[0.11458333333333333,-0.2111111111111111],[0.11354166666666667,-0.2111111111111111],[0.11354166666666667,-0.2111111111111111],[0.11354166666666667,-0.2111111111111111],[0.11354166666666667,-0.20925925925925926],[0.11354166666666667,-0.20925925925925926],[0.11354166666666667,-0.20925925925925926],[0.11354166666666667,-0.20925925925925926],[0.11354166666666667,-0.20925925925925926],[0.11354166666666667,-0.20925925925925926],[0.11354166666666667,-0.20925925925925926],[0.11354166666666667,-0.20925925925925926],[0.11354166666666667,-0.20925925925925926],[0.11354166666666667,-0.20925925925925926],[0.11354166666666667,-0.20925925925925926],[0.11354166666666667,-0.20925925925925926],[0.11354166666666667,-0.20925925925925926],[0.11354166666666667,-0.20925925925925926],[0.11354166666666667,-0.20925925925925926],[0.11354166666666667,-0.20925925925925926],[0.11354166666666667,-0.20925925925925926],[0.11354166666666667,-0.20925925925925926],[0.11354166666666667,-0.20925925925925926],[0.11354166666666667,-0.20925925925925926],[0.11354166666666667,-0.20925925925925926],[0.11354166666666667,-0.20925925925925926],[0.11354166666666667,-0.20925925925925926],[0.11354166666666667,-0.20925925925925926],[0.11354166666666667,-0.20925925925925926],[0.11354166666666667,-0.20925925925925926],[0.11354166666666667,-0.20925925925925926],[0.11354166666666667,-0.20925925925925926],[0.11354166666666667,-0.20925925925925926],[0.11354166666666667,-0.20925925925925926],[0.11354166666666667,-0.20925925925925926],[0.11354166666666667,-0.20925925925925926],[0.109375,-0.2037037037037037],[0.10416666666666667,-0.2],[0.090625,-0.18333333333333332],[0.07604166666666666,-0.16111111111111112],[0.059375,-0.11296296296296296],[0.05625,-0.09259259259259259],[0.041666666666666664,-0.03148148148148148],[0.03125,0.009259259259259259],[0.021875,0.04814814814814815],[0.009375,0.08148148148148149],[0.008333333333333333,0.09074074074074075],[0.004166666666666667,0.1],[0.0010416666666666667,0.10925925925925926],[-0.003125,0.11666666666666667],[-0.00625,0.12222222222222222],[-0.011458333333333333,0.12777777777777777],[-0.013541666666666667,0.12962962962962962],[-0.015625,0.13333333333333333],[-0.015625,0.13518518518518519],[-0.015625,0.13703703703703704],[-0.015625,0.13703703703703704],[-0.015625,0.13703703703703704],[-0.014583333333333334,0.14074074074074075],[-0.013541666666666667,0.14074074074074075],[-0.011458333333333333,0.14074074074074075],[-0.008333333333333333,0.14074074074074075],[-0.007291666666666667,0.14074074074074075],[-0.003125,0.14074074074074075],[0.0020833333333333333,0.14074074074074075],[0.011458333333333333,0.12962962962962962],[0.029166666666666667,0.08703703703703704],[0.05,0.044444444444444446],[0.075,-0.003703703703703704],[0.09375,-0.02962962962962963],[0.10416666666666667,-0.046296296296296294],[0.10625,-0.05],[0.10625,-0.05185185185185185],[0.10625,-0.05185185185185185],[0.10625,-0.05185185185185185],[0.10625,-0.05185185185185185],[0.10625,-0.05185185185185185],[0.10520833333333333,-0.05185185185185185],[0.103125,-0.04814814814814815],[0.1,-0.04259259259259259],[0.09791666666666667,-0.03518518518518519],[0.09583333333333334,-0.027777777777777776],[0.09375,-0.016666666666666666],[0.09270833333333334,-0.012962962962962963],[0.09166666666666666,-0.009259259259259259],[0.090625,-0.007407407407407408],[0.090625,-0.005555555555555556],[0.090625,-0.005555555555555556],[0.090625,-0.003703703703703704],[0.090625,-0.003703703703703704],[0.090625,-0.003703703703703704],[0.08958333333333333,-0.001851851851851852],[0.08958333333333333,-0.001851851851851852],[0.08854166666666667,0],[0.08854166666666667,0],[0.08854166666666667,0],[0.0875,0.003703703703703704],[0.0875,0.003703703703703704],[0.0875,0.003703703703703704],[0.0875,0.005555555555555556],[0.0875,0.007407407407407408],[0.0875,0.007407407407407408],[0.0875,0.007407407407407408],[0.0875,0.007407407407407408],[0.0875,0.007407407407407408],[0.0875,0.007407407407407408],[0.0875,0.007407407407407408],[0.0875,0.007407407407407408],[0.0875,0.007407407407407408],[0.0875,0.007407407407407408],[0.0875,0.007407407407407408],[0.0875,0.007407407407407408],[0.0875,0.007407407407407408],[0.0875,0.007407407407407408],[0.0875,0.007407407407407408],[0.0875,0.007407407407407408],[0.0875,0.007407407407407408],[0.0875,0.007407407407407408],[0.0875,0.007407407407407408],[0.0875,0.007407407407407408],[0.0875,0.007407407407407408],[0.0875,0.007407407407407408],[0.0875,0.009259259259259259],[0.0875,0.009259259259259259],[0.0875,0.011111111111111112],[0.0875,0.011111111111111112],[0.0875,0.014814814814814815],[0.0875,0.016666666666666666],[0.0875,0.020370370370370372],[0.0875,0.024074074074074074],[0.0875,0.02962962962962963],[0.0875,0.03333333333333333],[0.0875,0.03888888888888889],[0.0875,0.04259259259259259],[0.0875,0.04814814814814815],[0.08645833333333333,0.05555555555555555],[0.08541666666666667,0.05925925925925926],[0.08541666666666667,0.06296296296296296],[0.084375,0.07222222222222222],[0.084375,0.07777777777777778],[0.08333333333333333,0.07962962962962963],[0.08333333333333333,0.08518518518518518],[0.08333333333333333,0.08518518518518518],[0.08333333333333333,0.09074074074074075],[0.08333333333333333,0.09444444444444444],[0.08541666666666667,0.09814814814814815],[0.08958333333333333,0.1037037037037037],[0.096875,0.10555555555555556],[0.10208333333333333,0.1111111111111111],[0.11041666666666666,0.11851851851851852],[0.11875,0.12037037037037036],[0.128125,0.1259259259259259],[0.1375,0.13148148148148148],[0.14166666666666666,0.13518518518518519],[0.14375,0.13703703703703704],[0.14375,0.13703703703703704],[0.14375,0.13703703703703704],[0.14375,0.13703703703703704],[0.14375,0.13703703703703704],[0.14375,0.13703703703703704],[0.14375,0.13703703703703704],[0.14375,0.13703703703703704],[0.14375,0.13703703703703704],[0.14375,0.13703703703703704],[0.14375,0.13703703703703704],[0.14375,0.13703703703703704],[0.14375,0.13703703703703704],[0.14375,0.13703703703703704],[0.14375,0.13703703703703704],[0.14375,0.13703703703703704],[0.14375,0.13703703703703704],[0.14375,0.13703703703703704],[0.13541666666666666,0.13148148148148148],[0.13125,0.1259259259259259],[0.12604166666666666,0.11296296296296296],[0.12291666666666666,0.10555555555555556],[0.11875,0.0962962962962963],[0.115625,0.08148148148148149],[0.1125,0.06111111111111111],[0.109375,0.037037037037037035],[0.10833333333333334,0.016666666666666666],[0.10729166666666666,-0.003703703703703704],[0.10729166666666666,-0.018518518518518517],[0.10729166666666666,-0.025925925925925925],[0.10729166666666666,-0.03518518518518519],[0.10833333333333334,-0.046296296296296294],[0.109375,-0.05555555555555555],[0.109375,-0.06111111111111111],[0.109375,-0.06666666666666667],[0.109375,-0.07222222222222222],[0.109375,-0.07777777777777778],[0.11041666666666666,-0.07777777777777778],[0.11041666666666666,-0.07962962962962963],[0.11041666666666666,-0.07962962962962963],[0.11041666666666666,-0.07962962962962963],[0.11041666666666666,-0.07962962962962963],[0.11041666666666666,-0.07962962962962963],[0.11041666666666666,-0.07962962962962963],[0.11041666666666666,-0.07962962962962963],[0.11041666666666666,-0.07962962962962963],[0.11041666666666666,-0.07962962962962963],[0.11041666666666666,-0.07962962962962963],[0.1125,-0.07962962962962963],[0.10729166666666666,-0.06666666666666667],[0.109375,-0.06666666666666667],[0.109375,-0.06666666666666667],[0.109375,-0.06666666666666667],[0.109375,-0.06666666666666667],[0.109375,-0.06666666666666667],[0.109375,-0.06666666666666667],[0.109375,-0.06666666666666667],[0.10833333333333334,-0.06851851851851852],[0.10729166666666666,-0.06851851851851852],[0.10729166666666666,-0.06851851851851852],[0.10729166666666666,-0.06851851851851852],[0.10729166666666666,-0.06851851851851852],[0.10729166666666666,-0.06851851851851852],[0.10729166666666666,-0.06851851851851852],[0.10729166666666666,-0.06851851851851852]]","[[0.06072916666666662,-0.006851851851851936],[0.06072916666666662,-0.006851851851851936],[0.05520833333333333,-0.03314814814814811],[0.059062500000000046,-0.011111111111111112],[0.059062500000000046,-0.011111111111111112],[0.0640625,-0.0016666666666666245],[0.0640625,-0.0016666666666666245],[0.06697916666666662,-0.006111111111111027],[0.06697916666666662,-0.006111111111111027],[0.08250000000000005,0.012777777777777735],[0.11031250000000009,0.0012962962962963806],[0.12312500000000005,-0.026666666666666623],[0.1349999999999999,-0.056296296296296254],[0.14249999999999996,-0.08481481481481483],[0.16062500000000005,-0.07759259259259255],[0.16062500000000005,-0.07759259259259255],[0.18156249999999996,-0.0868518518518518],[0.1896874999999999,-0.08777777777777773],[0.1890625,-0.08407407407407404],[0.19458333333333327,-0.10759259259259263],[0.1734375,-0.10018518518518522],[0.15593750000000003,-0.10925925925925926],[0.15322916666666658,-0.11277777777777774],[0.13468749999999996,-0.05870370370370368],[0.12354166666666658,-0.01574074074074074],[0.09645833333333324,0.039074074074074115],[0.06937499999999991,0.09388888888888898],[0.053125,0.12481481481481477],[0.04760416666666671,0.15092592592592594],[0.04208333333333331,0.17703703703703708],[0.024479166666666666,0.22407407407407406],[0.03947916666666664,0.20759259259259263],[0.028541666666666642,0.22092592592592583],[0.022291666666666644,0.2257407407407407],[0.022291666666666644,0.2257407407407407],[0.025520833333333333,0.24222222222222214],[0.02166666666666662,0.22851851851851848],[0.017812500000000023,0.21481481481481482],[-0.02166666666666662,0.2183333333333333],[-0.02166666666666662,0.2183333333333333],[-0.07541666666666665,0.28648148148148156],[-0.11979166666666667,0.35037037037037044],[-0.08177083333333333,0.30574074074074076],[-0.08177083333333333,0.302962962962963],[-0.09468749999999998,0.31074074074074065],[-0.0907291666666667,0.27388888888888885],[-0.0985416666666667,0.23296296296296287],[-0.10208333333333333,0.25037037037037047],[-0.08687499999999998,0.2479629629629629],[-0.03875000000000005,0.2192592592592592],[-0.005208333333333333,0.12759259259259256],[0.00947916666666669,0.08000000000000008],[-0.0296875,0.10907407407407403],[-0.0296875,0.10907407407407403],[-0.04583333333333333,0.08351851851851856],[-0.017812500000000023,0.041111111111111195],[-0.004062499999999977,0.048333333333333374],[0.008124999999999953,0.06481481481481481],[0.016770833333333356,0.03518518518518519],[0.007083333333333286,0.012592592592592508],[-0.010312499999999976,0.03851851851851843],[0.0012500000000000473,0.057962962962962876],[0.019479166666666714,0.04203703703703712],[0.04624999999999998,0.024629629629629547],[0.04635416666666667,0.059999999999999956],[0.04114583333333333,0.07185185185185176],[0.03875000000000005,0.06722222222222214],[0.04677083333333331,0.05055555555555547],[0.05385416666666672,0.05481481481481486],[0.05385416666666672,0.05481481481481486],[0.06375000000000004,0.06870370370370374],[0.08260416666666662,0.06148148148148157],[0.0865624999999999,0.06611111111111119],[0.10052083333333334,0.06722222222222214],[0.11114583333333337,0.058333333333333334],[0.1412499999999999,0.015000000000000043],[0.17052083333333337,-0.038703703703703664],[0.17916666666666667,-0.06259259259259262],[0.1756249999999999,-0.05499999999999998],[0.1834374999999999,-0.06814814814814817],[0.19916666666666671,-0.09611111111111106],[0.21593749999999995,-0.1411111111111111],[0.21885416666666657,-0.1287037037037037],[0.21458333333333332,-0.11722222222222224],[0.22104166666666672,-0.14814814814814814],[0.21124999999999997,-0.1272222222222222],[0.1962500000000001,-0.11481481481481481],[0.1962500000000001,-0.11481481481481481],[0.19197916666666662,-0.07481481481481478],[0.17645833333333344,-0.0507407407407407],[0.16218750000000004,-0.04611111111111107],[0.13677083333333329,-0.0235185185185186],[0.1040625000000001,0.0025925925925925505],[0.10322916666666657,-0.02907407407407416],[0.10239583333333328,-0.06074074074074076],[0.0796875,-0.016851851851851896],[0.06604166666666664,-0.0016666666666666245],[0.058437500000000024,0.032407407407407406],[0.05541666666666671,0.0514814814814814],[0.06145833333333333,0.05925925925925926],[0.07541666666666676,0.07925925925925917],[0.08937499999999995,0.0992592592592593],[0.09187500000000005,0.0933333333333333],[0.09031250000000005,0.12388888888888884],[0.08812499999999991,0.14870370370370362],[0.10947916666666657,0.17537037037037045],[0.10843749999999991,0.16222222222222227],[0.10739583333333323,0.14907407407407408],[0.0931250000000001,0.1198148148148149],[0.084375,0.08907407407407411],[0.06270833333333338,0.07925925925925917],[0.051874999999999956,0.0742592592592593],[0.07906250000000009,0.07685185185185185],[0.08072916666666667,0.09388888888888898],[0.07999999999999995,0.11425925925925934],[0.06687500000000005,0.09962962962962954],[0.07156250000000004,0.16537037037037028],[0.07625000000000005,0.23111111111111102],[0.07625000000000005,0.23111111111111102],[0.09406249999999995,0.282037037037037],[0.09406249999999995,0.282037037037037],[0.09552083333333337,0.3138888888888889],[0.09552083333333337,0.3138888888888889],[0.11604166666666677,0.30277777777777776],[0.11604166666666677,0.30277777777777776],[0.10177083333333338,0.3194444444444444],[0.10177083333333338,0.3194444444444444],[0.07249999999999991,0.35037037037037044],[0.07249999999999991,0.35037037037037044],[0.0640625,0.34370370370370373],[0.04885416666666664,0.3416666666666667],[0.033958333333333354,0.3648148148148148],[0.012916666666666642,0.34222222222222215],[-0.008124999999999953,0.31962962962962965],[-0.02677083333333338,0.28851851851851845],[-0.041666666666666664,0.27759259259259256],[-0.07052083333333338,0.31925925925925924],[-0.0655208333333333,0.29666666666666675],[-0.057083333333333285,0.26722222222222214],[-0.05604166666666662,0.28722222222222227],[-0.0265625,0.27314814814814814],[0.0026041666666666665,0.2338888888888888],[0.033854166666666664,0.21296296296296297],[0.06499999999999997,0.18629629629629635],[0.09375,0.16814814814814807],[0.12604166666666666,0.16444444444444437],[0.15885416666666666,0.1361111111111111],[0.17927083333333324,0.14685185185185176],[0.20270833333333324,0.13759259259259252],[0.20270833333333324,0.13759259259259252],[0.22218749999999995,0.0948148148148149],[0.20760416666666662,0.11925925925925922],[0.20062499999999991,0.1388888888888889],[0.20354166666666676,0.127962962962963],[0.19916666666666671,0.13574074074074066],[0.18739583333333343,0.13759259259259252],[0.1709374999999999,0.1551851851851851],[0.15260416666666668,0.17407407407407408],[0.15177083333333338,0.1574074074074074],[0.15177083333333338,0.1574074074074074],[0.14052083333333343,0.1983333333333334],[0.12958333333333344,0.20185185185185187],[0.12833333333333338,0.147037037037037],[0.12062499999999995,0.10314814814814824],[0.11854166666666661,0.08962962962962959],[0.121875,0.06759259259259259],[0.1326041666666666,0.0514814814814814],[0.15927083333333342,0.01777777777777782],[0.1857291666666666,-0.021296296296296296],[0.1951041666666666,0.012962962962962963],[0.20416666666666666,0.01703703703703712],[0.20510416666666675,0.032037037037036954],[0.21520833333333325,0.03537037037037041],[0.2275000000000001,0.07314814814814814],[0.20833333333333334,0.12296296296296293],[0.19114583333333332,0.16833333333333328],[0.18354166666666671,0.18425925925925926],[0.17374999999999996,0.18648148148148155],[0.1578125,0.20981481481481473],[0.14395833333333338,0.18796296296296297],[0.12802083333333342,0.16722222222222213],[0.12999999999999995,0.16296296296296298],[0.12083333333333333,0.20462962962962963],[0.09937500000000009,0.21092592592592588],[0.09333333333333324,0.17092592592592584],[0.10541666666666671,0.18518518518518517],[0.10625,0.222037037037037],[0.10708333333333328,0.2588888888888888],[0.10645833333333338,0.2564814814814815],[0.10843749999999991,0.2577777777777779],[0.1178124999999999,0.24611111111111106],[0.10541666666666671,0.2581481481481481],[0.10697916666666671,0.255925925925926],[0.12156250000000005,0.25462962962962965],[0.12541666666666676,0.2911111111111112],[0.11833333333333323,0.2633333333333334],[0.11552083333333343,0.2462962962962963],[0.10833333333333334,0.23037037037037034],[0.10833333333333334,0.23037037037037034],[0.11010416666666671,0.27981481481481485],[0.11270833333333338,0.29074074074074074],[0.1099999999999999,0.3135185185185184],[0.11166666666666672,0.32222222222222224],[0.10708333333333328,0.3338888888888888],[0.09989583333333343,0.3346296296296297],[0.10395833333333329,0.33203703703703696],[0.07552083333333333,0.35037037037037044],[0.07552083333333333,0.35037037037037044],[0.051874999999999956,0.3633333333333334],[0.02010416666666662,0.3803703703703703],[0.012083333333333357,0.342962962962963],[0.001979166666666643,0.35],[-0.027291666666666714,0.35407407407407415],[-0.06083333333333331,0.3461111111111111],[-0.0859375,0.3140740740740741],[-0.11072916666666661,0.30833333333333335],[-0.13552083333333337,0.3025925925925925],[-0.1326041666666666,0.28481481481481474],[-0.12833333333333338,0.24870370370370362],[-0.12208333333333338,0.22592592592592592],[-0.13656250000000003,0.2192592592592592],[-0.13656250000000003,0.2192592592592592],[-0.14624999999999996,0.20796296296296288],[-0.14624999999999996,0.20796296296296288],[-0.13343750000000001,0.2161111111111112],[-0.08791666666666664,0.227962962962963],[-0.058124999999999954,0.25203703703703706],[-0.030104166666666644,0.25462962962962965],[-0.030104166666666644,0.25462962962962965],[0.01072916666666662,0.2657407407407407],[0.044062499999999956,0.2727777777777777],[0.06864583333333343,0.2996296296296295],[0.08583333333333343,0.28666666666666657],[0.08583333333333343,0.28666666666666657],[0.10843749999999991,0.28277777777777785],[0.10302083333333342,0.2716666666666668],[0.08489583333333334,0.24537037037037038],[0.08489583333333334,0.24537037037037038],[0.05770833333333331,0.2146296296296296],[0.05770833333333331,0.2146296296296296],[0.036666666666666715,0.22518518518518524],[0.027395833333333286,0.2081481481481481],[0.027395833333333286,0.2081481481481481],[-0.0005208333333333333,0.25574074074074077],[-0.0005208333333333333,0.25574074074074077],[-0.030416666666666713,0.22148148148148153],[-0.030416666666666713,0.22148148148148153],[-0.05593750000000005,0.1853703703703704],[-0.05593750000000005,0.1853703703703704],[-0.07197916666666669,0.18574074074074065],[-0.07135416666666666,0.1737037037037036],[-0.06687500000000005,0.12629629629629638],[-0.04541666666666669,0.11296296296296296],[-0.03802083333333333,0.13240740740740742],[-0.019687499999999976,0.08833333333333342],[-0.02010416666666662,0.10203703703703708],[-0.014583333333333334,0.008333333333333333],[-0.006979166666666714,0.03629629629629634],[0.00947916666666669,0.055740740740740785],[0.0234375,0.06833333333333329],[0.028437499999999952,0.0242592592592593],[0.05145833333333331,0.01777777777777782],[0.05510416666666664,-0.006296296296296254],[0.06124999999999995,-0.03944444444444436],[0.057604166666666616,-0.03851851851851843],[0.06656249999999998,-0.05499999999999998],[0.06895833333333339,-0.0418518518518519],[0.07635416666666663,-0.06333333333333331],[0.06385416666666661,-0.06018518518518518],[0.06822916666666666,-0.06759259259259259],[0.06697916666666662,-0.049074074074074076],[0.05614583333333331,-0.0025925925925925505],[0.08197916666666671,-0.03833333333333342],[0.09281249999999991,-0.03333333333333333],[0.09656250000000005,-0.06277777777777774],[0.09333333333333324,-0.09259259259259259],[0.11385416666666662,-0.15055555555555558],[0.12822916666666656,-0.18907407407407412],[0.1397916666666667,-0.22629629629629627],[0.1397916666666667,-0.22629629629629627],[0.1349999999999999,-0.22611111111111115],[0.13145833333333337,-0.21388888888888888],[0.13135416666666658,-0.20759259259259263],[0.11437499999999995,-0.13203703703703706],[0.11437499999999995,-0.12240740740740745],[0.121875,-0.0933333333333333],[0.1234375,-0.06888888888888887],[0.10770833333333343,-0.023148148148148147],[0.09510416666666661,0.040740740740740744],[0.0962500000000001,0.03814814814814819],[0.10427083333333324,0.03592592592592588],[0.09635416666666667,0.011666666666666582],[0.1,0.01703703703703712],[0.09208333333333343,0.020740740740740823],[0.06072916666666662,0.017407407407407365],[0.05302083333333331,0.017592592592592594],[0.04239583333333338,0.04222222222222214],[0.041979166666666616,0.05259259259259255],[0.04093749999999995,0.03092592592592601],[0.025416666666666643,0.06962962962962967],[0.03354166666666671,0.06925925925925921],[0.04239583333333338,0.10833333333333334],[0.03875000000000005,0.1227777777777777],[0.041562499999999974,0.08740740740740749],[0.06031249999999998,0.08425925925925926],[0.05499999999999995,0.09259259259259259],[0.058958333333333356,0.08333333333333333],[0.05270833333333336,0.09981481481481477],[0.04104166666666664,0.10796296296296289],[0.04104166666666664,0.10796296296296289],[0.03958333333333333,0.10666666666666672],[0.009895833333333333,0.12333333333333338],[-0.013437499999999976,0.11296296296296296],[-0.029895833333333382,0.11833333333333329],[-0.03343750000000002,0.15129629629629637],[-0.03760416666666669,0.17592592592592593],[-0.04916666666666671,0.19888888888888884],[-0.059791666666666646,0.20722222222222217],[-0.08322916666666665,0.2403703703703703],[-0.07093750000000003,0.26740740740740737],[-0.06458333333333334,0.2668518518518519],[-0.04635416666666667,0.2616666666666666],[-0.03447916666666669,0.29222222222222216],[-0.014895833333333285,0.24870370370370362],[-0.0171875,0.2566666666666667],[-0.013750000000000047,0.26185185185185184],[0.004375000000000047,0.2518518518518518],[0.004375000000000047,0.2518518518518518],[0.021249999999999977,0.22481481481481477],[0.04770833333333328,0.1866666666666666],[0.052291666666666715,0.14981481481481476],[0.06135416666666664,0.12981481481481486],[0.058229166666666644,0.13277777777777786],[0.057395833333333354,0.12814814814814823],[0.04906250000000002,0.15481481481481485],[0.06666666666666667,0.07740740740740733],[0.0828125,0.01629629629629621],[0.08614583333333338,-0.03611111111111111],[0.08614583333333338,-0.03611111111111111],[0.08583333333333343,-0.0418518518518519],[0.0853125000000001,-0.04981481481481477],[0.07229166666666677,-0.032407407407407406],[0.058749999999999976,-0.013333333333333417],[0.05364583333333333,-0.027037037037037078],[0.05302083333333331,-0.08462962962962961],[0.05687500000000002,-0.10277777777777777],[0.04895833333333333,-0.07666666666666662],[0.042499999999999954,-0.0668518518518519],[0.04906250000000002,-0.028888888888888933],[0.04895833333333333,-0.007777777777777862],[0.07447916666666667,-0.01722222222222214],[0.09458333333333328,-0.02370370370370362],[0.09458333333333328,-0.02370370370370362],[0.1271874999999999,-0.03777777777777774],[0.16604166666666675,-0.03740740740740749],[0.19166666666666668,0.014814814814814815],[0.21822916666666667,-0.01722222222222214],[0.23687500000000009,-0.0235185185185186],[0.2555208333333333,-0.029814814814814856],[0.2555208333333333,-0.029814814814814856],[0.25333333333333335,-0.06666666666666667],[0.25333333333333335,-0.06666666666666667],[0.25635416666666655,-0.0809259259259259],[0.23989583333333328,-0.09092592592592597],[0.23989583333333328,-0.09092592592592597],[0.2515625,-0.1588888888888889],[0.2515625,-0.1588888888888889],[0.24541666666666656,-0.15833333333333333],[0.24541666666666656,-0.15833333333333333],[0.22770833333333323,-0.172037037037037],[0.21322916666666672,-0.222037037037037],[0.19333333333333325,-0.22722222222222221],[0.17114583333333327,-0.20629629629629626],[0.1586458333333333,-0.18351851851851855],[0.15812499999999996,-0.1492592592592593],[0.16395833333333343,-0.15037037037037035],[0.15281250000000005,-0.14018518518518516],[0.1345833333333334,-0.08814814814814818],[0.12447916666666667,-0.06462962962962959],[0.13020833333333334,-0.06574074074074074],[0.12447916666666667,-0.053703703703703705],[0.1423958333333334,-0.05092592592592592],[0.15552083333333327,-0.06759259259259259],[0.15197916666666675,-0.05851851851851856],[0.14979166666666663,-0.050370370370370454],[0.10625,-0.06518518518518517],[0.08875000000000005,-0.0668518518518519],[0.03322916666666664,-0.09296296296296294],[0.018333333333333358,-0.10722222222222218],[0.006562499999999953,-0.08962962962962959],[0.005312500000000024,-0.040740740740740744],[-0.004062499999999977,-0.0035185185185184764],[-0.019791666666666666,0.025370370370370456],[-0.02041666666666669,0.03888888888888889],[-0.041666666666666664,0.06185185185185181],[-0.021562500000000047,0.10777777777777786],[-0.010104166666666714,0.14444444444444443],[0.03427083333333331,0.21203703703703702],[0.04718749999999995,0.20055555555555546],[0.04718749999999995,0.20055555555555546],[0.03218749999999997,0.19888888888888884],[0.0265625,0.18796296296296297],[0.025937499999999978,0.17777777777777778],[0.0171875,0.175],[0.025416666666666643,0.14462962962962966],[0.03312499999999995,0.12074074074074083],[0.052291666666666715,0.07851851851851847],[0.06447916666666664,0.08259259259259263],[0.0756249999999999,0.04981481481481477],[0.08093750000000005,0.12333333333333338],[0.08489583333333334,0.12981481481481486],[0.0921875,0.105925925925926],[0.07895833333333328,0.10222222222222231],[0.0734375,0.1294444444444444],[0.042708333333333334,0.10574074074074079]]","[[0.06072916666666662,-0.006851851851851936,0.00009999999997489795],[0.06072916666666662,-0.006851851851851936,0.01629999999998688],[0.05520833333333333,-0.03314814814814811,0.032899999999962404],[0.059062500000000046,-0.011111111111111112,0.055999999999997385],[0.059062500000000046,-0.011111111111111112,0.07039999999996382],[0.0640625,-0.0016666666666666245,0.0830999999999733],[0.0640625,-0.0016666666666666245,0.09970000000000567],[0.06697916666666662,-0.006111111111111027,0.12359999999997484],[0.06697916666666662,-0.006111111111111027,0.13429999999998898],[0.08250000000000005,0.012777777777777735,0.14999999999999858],[0.11031250000000009,0.0012962962962963806,0.16939999999996047],[0.12312500000000005,-0.026666666666666623,0.18309999999997473],[0.1349999999999999,-0.056296296296296254,0.199899999999964],[0.14249999999999996,-0.08481481481481483,0.21639999999996462],[0.16062500000000005,-0.07759259259259255,0.23289999999996525],[0.16062500000000005,-0.07759259259259255,0.24970000000001136],[0.18156249999999996,-0.0868518518518518,0.2662999999999869],[0.1896874999999999,-0.08777777777777773,0.2833999999999648],[0.1890625,-0.08407407407407404,0.2995999999999768],[0.19458333333333327,-0.10759259259259263,0.31629999999998404],[0.1734375,-0.10018518518518522,0.33629999999998716],[0.15593750000000003,-0.10925925925925926,0.351799999999983],[0.15322916666666658,-0.11277777777777774,0.3663999999999632],[0.13468749999999996,-0.05870370370370368,0.38309999999997046],[0.12354166666666658,-0.01574074074074074,0.4019999999999939],[0.09645833333333324,0.039074074074074115,0.41639999999996036],[0.06937499999999991,0.09388888888888898,0.43320000000000647],[0.053125,0.12481481481481477,0.4532999999999845],[0.04760416666666671,0.15092592592592594,0.46929999999998273],[0.04208333333333331,0.17703703703703708,0.4848999999999606],[0.024479166666666666,0.22407407407407406,0.503799999999984],[0.03947916666666664,0.20759259259259263,0.5202999999999847],[0.028541666666666642,0.22092592592592583,0.5357999999999876],[0.022291666666666644,0.2257407407407407,0.5549999999999997],[0.022291666666666644,0.2257407407407407,0.5663999999999589],[0.025520833333333333,0.24222222222222214,0.583299999999987],[0.02166666666666662,0.22851851851851848,0.6005999999999716],[0.017812500000000023,0.21481481481481482,0.6199999999999974],[-0.02166666666666662,0.2183333333333333,0.6348999999999592],[-0.02166666666666662,0.2183333333333333,0.6497999999999848],[-0.07541666666666665,0.28648148148148156,0.6688999999999652],[-0.11979166666666667,0.35037037037037044,0.6852999999999838],[-0.08177083333333333,0.30574074074074076,0.701399999999964],[-0.08177083333333333,0.302962962962963,0.7163999999999646],[-0.09468749999999998,0.31074074074074065,0.7352999999999881],[-0.0907291666666667,0.27388888888888885,0.7495999999999725],[-0.0985416666666667,0.23296296296296287,0.768499999999996],[-0.10208333333333333,0.25037037037037047,0.7829999999999941],[-0.08687499999999998,0.2479629629629629,0.7994999999999948],[-0.03875000000000005,0.2192592592592592,0.8183999999999614],[-0.005208333333333333,0.12759259259259256,0.8330999999999733],[0.00947916666666669,0.08000000000000008,0.8497999999999877],[-0.0296875,0.10907407407407403,0.8704999999999998],[-0.0296875,0.10907407407407403,0.8832000000000093],[-0.04583333333333333,0.08351851851851856,0.8998999999999597],[-0.017812500000000023,0.041111111111111195,0.9163999999999604],[-0.004062499999999977,0.048333333333333374,0.9367999999999839],[0.008124999999999953,0.06481481481481481,0.9520999999999731],[0.016770833333333356,0.03518518518518519,0.9668999999999599],[0.007083333333333286,0.012592592592592508,0.9833999999999605],[-0.010312499999999976,0.03851851851851843,0.9994999999999976],[0.0012500000000000473,0.057962962962962876,1.0162999999999869],[0.019479166666666714,0.04203703703703712,1.0330999999999761],[0.04624999999999998,0.024629629629629547,1.0499999999999972],[0.04635416666666667,0.059999999999999956,1.0662000000000091],[0.04114583333333333,0.07185185185185176,1.0828999999999596],[0.03875000000000005,0.06722222222222214,1.0998999999999626],[0.04677083333333331,0.05055555555555547,1.1162000000000063],[0.05385416666666672,0.05481481481481486,1.1352000000000118],[0.05385416666666672,0.05481481481481486,1.1498999999999597],[0.06375000000000004,0.06870370370370374,1.1664999999999992],[0.08260416666666662,0.06148148148148157,1.1830999999999747],[0.0865624999999999,0.06611111111111119,1.1995999999999754],[0.10052083333333334,0.06722222222222214,1.2162999999999826],[0.11114583333333337,0.058333333333333334,1.2363999999999606],[0.1412499999999999,0.015000000000000043,1.2532000000000068],[0.17052083333333337,-0.038703703703703664,1.2697000000000074],[0.17916666666666667,-0.06259259259259262,1.2849999999999966],[0.1756249999999999,-0.05499999999999998,1.2997999999999834],[0.1834374999999999,-0.06814814814814817,1.3189999999999955],[0.19916666666666671,-0.09611111111111106,1.3344999999999985],[0.21593749999999995,-0.1411111111111111,1.350299999999983],[0.21885416666666657,-0.1287037037037037,1.3662999999999883],[0.21458333333333332,-0.11722222222222224,1.3828999999999638],[0.22104166666666672,-0.14814814814814814,1.401999999999994],[0.21124999999999997,-0.1272222222222222,1.4188999999999652],[0.1962500000000001,-0.11481481481481481,1.4332000000000065],[0.1962500000000001,-0.11481481481481481,1.449899999999964],[0.19197916666666662,-0.07481481481481478,1.4664999999999964],[0.17645833333333344,-0.0507407407407407,1.4857999999999834],[0.16218750000000004,-0.04611111111111107,1.5018999999999636],[0.13677083333333329,-0.0235185185185186,1.5162999999999869],[0.1040625000000001,0.0025925925925925505,1.536299999999983],[0.10322916666666657,-0.02907407407407416,1.5512000000000086],[0.10239583333333328,-0.06074074074074076,1.566399999999959],[0.0796875,-0.016851851851851896,1.5878999999999621],[0.06604166666666664,-0.0016666666666666245,1.603399999999965],[0.058437500000000024,0.032407407407407406,1.6177999999999884],[0.05541666666666671,0.0514814814814814,1.6330999999999705],[0.06145833333333333,0.05925925925925926,1.6553999999999647],[0.07541666666666676,0.07925925925925917,1.6699999999999946],[0.08937499999999995,0.0992592592592593,1.6850999999999772],[0.09187500000000005,0.0933333333333333,1.7019999999999982],[0.09031250000000005,0.12388888888888884,1.7193999999999647],[0.08812499999999991,0.14870370370370362,1.7334999999999994],[0.10947916666666657,0.17537037037037045,1.7505999999999773],[0.10843749999999991,0.16222222222222227,1.7663999999999618],[0.10739583333333323,0.14907407407407408,1.7857999999999876],[0.0931250000000001,0.1198148148148149,1.8020999999999745],[0.084375,0.08907407407407411,1.817799999999984],[0.06270833333333338,0.07925925925925917,1.8329999999999984],[0.051874999999999956,0.0742592592592593,1.8544999999999945],[0.07906250000000009,0.07685185185185185,1.8698999999999657],[0.08072916666666667,0.09388888888888898,1.8844999999999956],[0.07999999999999995,0.11425925925925934,1.8997999999999848],[0.06687500000000005,0.09962962962962954,1.9188999999999652],[0.07156250000000004,0.16537037037037028,1.9332999999999885],[0.07625000000000005,0.23111111111111102,1.9538999999999618],[0.07625000000000005,0.23111111111111102,1.9662000000000077],[0.09406249999999995,0.282037037037037,1.982999999999997],[0.09406249999999995,0.282037037037037,1.9994999999999976],[0.09552083333333337,0.3138888888888889,2.016299999999987],[0.09552083333333337,0.3138888888888889,2.0328999999999624],[0.11604166666666677,0.30277777777777776,2.0497000000000085],[0.11604166666666677,0.30277777777777776,2.066299999999984],[0.10177083333333338,0.3194444444444444,2.0829999999999984],[0.10177083333333338,0.3194444444444444,2.099599999999974],[0.07249999999999991,0.35037037037037044,2.1162999999999883],[0.07249999999999991,0.35037037037037044,2.132899999999964],[0.0640625,0.34370370370370373,2.149799999999985],[0.04885416666666664,0.3416666666666667,2.166700000000006],[0.033958333333333354,0.3648148148148148,2.185099999999977],[0.012916666666666642,0.34222222222222215,2.1995999999999754],[-0.008124999999999953,0.31962962962962965,2.219999999999999],[-0.02677083333333338,0.28851851851851845,2.236099999999972],[-0.041666666666666664,0.27759259259259256,2.252299999999984],[-0.07052083333333338,0.31925925925925924,2.268499999999996],[-0.0655208333333333,0.29666666666666675,2.2828999999999624],[-0.057083333333333285,0.26722222222222214,2.2994999999999948],[-0.05604166666666662,0.28722222222222227,2.316299999999984],[-0.0265625,0.27314814814814814,2.3350999999999758],[0.0026041666666666665,0.2338888888888888,2.351700000000008],[0.033854166666666664,0.21296296296296297,2.3667999999999836],[0.06499999999999997,0.18629629629629635,2.382899999999964],[0.09375,0.16814814814814807,2.399499999999996],[0.12604166666666666,0.16444444444444437,2.4163999999999604],[0.15885416666666666,0.1361111111111111,2.432899999999961],[0.17927083333333324,0.14685185185185176,2.4507999999999868],[0.20270833333333324,0.13759259259259252,2.4695999999999714],[0.20270833333333324,0.13759259259259252,2.482999999999997],[0.22218749999999995,0.0948148148148149,2.4995999999999725],[0.20760416666666662,0.11925925925925922,2.516200000000012],[0.20062499999999991,0.1388888888888889,2.5372000000000057],[0.20354166666666676,0.127962962962963,2.553399999999961],[0.19916666666666671,0.13574074074074066,2.5692000000000093],[0.18739583333333343,0.13759259259259252,2.5858999999999597],[0.1709374999999999,0.1551851851851851,2.6030999999999764],[0.15260416666666668,0.17407407407407408,2.6197999999999837],[0.15177083333333338,0.1574074074074074,2.636399999999959],[0.15177083333333338,0.1574074074074074,2.649599999999971],[0.14052083333333343,0.1983333333333334,2.669099999999972],[0.12958333333333344,0.20185185185185187,2.686799999999984],[0.12833333333333338,0.147037037037037,2.7025000000000006],[0.12062499999999995,0.10314814814814824,2.7209999999999965],[0.11854166666666661,0.08962962962962959,2.7357999999999834],[0.121875,0.06759259259259259,2.7519999999999953],[0.1326041666666666,0.0514814814814814,2.7680000000000007],[0.15927083333333342,0.01777777777777782,2.7828999999999624],[0.1857291666666666,-0.021296296296296296,2.802499999999995],[0.1951041666666666,0.012962962962962963,2.8165999999999727],[0.20416666666666666,0.01703703703703712,2.8327999999999847],[0.20510416666666675,0.032037037037036954,2.851899999999965],[0.21520833333333325,0.03537037037037041,2.8677999999999884],[0.2275000000000001,0.07314814814814814,2.887299999999989],[0.20833333333333334,0.12296296296296293,2.9032999999999873],[0.19114583333333332,0.16833333333333328,2.918299999999988],[0.18354166666666671,0.18425925925925926,2.932899999999961],[0.17374999999999996,0.18648148148148155,2.9517999999999844],[0.1578125,0.20981481481481473,2.9685999999999737],[0.14395833333333338,0.18796296296296297,2.9833999999999605],[0.12802083333333342,0.16722222222222213,3.0034999999999954],[0.12999999999999995,0.16296296296296298,3.019200000000012],[0.12083333333333333,0.20462962962962963,3.0335999999999714],[0.09937500000000009,0.21092592592592588,3.0497999999999834],[0.09333333333333324,0.17092592592592584,3.068700000000007],[0.10541666666666671,0.18518518518518517,3.0829999999999984],[0.10625,0.222037037037037,3.0997999999999877],[0.10708333333333328,0.2588888888888888,3.116399999999963],[0.10645833333333338,0.2564814814814815,3.1352999999999867],[0.10843749999999991,0.2577777777777779,3.1500999999999735],[0.1178124999999999,0.24611111111111106,3.1663999999999604],[0.10541666666666671,0.2581481481481481,3.1862999999999886],[0.10697916666666671,0.255925925925926,3.2025000000000006],[0.12156250000000005,0.25462962962962965,3.219799999999985],[0.12541666666666676,0.2911111111111112,3.2380999999999744],[0.11833333333333323,0.2633333333333334,3.253700000000009],[0.11552083333333343,0.2462962962962963,3.2702000000000098],[0.10833333333333334,0.23037037037037034,3.288599999999974],[0.10833333333333334,0.23037037037037034,3.2995999999999768],[0.11010416666666671,0.27981481481481485,3.316299999999984],[0.11270833333333338,0.29074074074074074,3.3344999999999985],[0.1099999999999999,0.3135185185185184,3.3504999999999967],[0.11166666666666672,0.32222222222222224,3.3683999999999656],[0.10708333333333328,0.3338888888888888,3.382899999999964],[0.09989583333333343,0.3346296296296297,3.403499999999994],[0.10395833333333329,0.33203703703703696,3.4193999999999605],[0.07552083333333333,0.35037037037037044,3.435099999999977],[0.07552083333333333,0.35037037037037044,3.449700000000007],[0.051874999999999956,0.3633333333333334,3.4662999999999826],[0.02010416666666662,0.3803703703703703,3.4828999999999652],[0.012083333333333357,0.342962962962963,3.4995999999999725],[0.001979166666666643,0.35,3.516200000000012],[-0.027291666666666714,0.35407407407407415,3.5327999999999875],[-0.06083333333333331,0.3461111111111111,3.5495999999999768],[-0.0859375,0.3140740740740741,3.566299999999984],[-0.11072916666666661,0.30833333333333335,3.5852000000000075],[-0.13552083333333337,0.3025925925925925,3.599599999999974],[-0.1326041666666666,0.28481481481481474,3.6162000000000063],[-0.12833333333333338,0.24870370370370362,3.6330999999999705],[-0.12208333333333338,0.22592592592592592,3.6498999999999597],[-0.13656250000000003,0.2192592592592592,3.6699999999999946],[-0.13656250000000003,0.2192592592592592,3.6892999999999887],[-0.14624999999999996,0.20796296296296288,3.708399999999962],[-0.14624999999999996,0.20796296296296288,3.7165999999999713],[-0.13343750000000001,0.2161111111111112,3.7328999999999652],[-0.08791666666666664,0.227962962962963,3.7497999999999863],[-0.058124999999999954,0.25203703703703706,3.766200000000012],[-0.030104166666666644,0.25462962962962965,3.7873999999999626],[-0.030104166666666644,0.25462962962962965,3.7994999999999948],[0.01072916666666662,0.2657407407407407,3.816299999999984],[0.044062499999999956,0.2727777777777777,3.8328999999999596],[0.06864583333333343,0.2996296296296295,3.8530999999999764],[0.08583333333333343,0.28666666666666657,3.8717000000000112],[0.08583333333333343,0.28666666666666657,3.8829999999999956],[0.10843749999999991,0.28277777777777785,3.899799999999985],[0.10302083333333342,0.2716666666666668,3.9163999999999604],[0.08489583333333334,0.24537037037037038,3.936099999999975],[0.08489583333333334,0.24537037037037038,3.949799999999989],[0.05770833333333331,0.2146296296296296,3.9663999999999646],[0.05770833333333331,0.2146296296296296,3.983099999999972],[0.036666666666666715,0.22518518518518524,4.003799999999984],[0.027395833333333286,0.2081481481481481,4.024499999999996],[0.027395833333333286,0.2081481481481481,4.032999999999994],[-0.0005208333333333333,0.25574074074074077,4.057099999999977],[-0.0005208333333333333,0.25574074074074077,4.066299999999984],[-0.030416666666666713,0.22148148148148153,4.083200000000012],[-0.030416666666666713,0.22148148148148153,4.103499999999997],[-0.05593750000000005,0.1853703703703704,4.116599999999977],[-0.05593750000000005,0.1853703703703704,4.132999999999996],[-0.07197916666666669,0.18574074074074065,4.153099999999974],[-0.07135416666666666,0.1737037037037036,4.167200000000008],[-0.06687500000000005,0.12629629629629638,4.183],[-0.04541666666666669,0.11296296296296296,4.199700000000007],[-0.03802083333333333,0.13240740740740742,4.216200000000008],[-0.019687499999999976,0.08833333333333342,4.2357000000000085],[-0.02010416666666662,0.10203703703703708,4.251299999999986],[-0.014583333333333334,0.008333333333333333,4.266799999999982],[-0.006979166666666714,0.03629629629629634,4.282999999999994],[0.00947916666666669,0.055740740740740785,4.301700000000011],[0.0234375,0.06833333333333329,4.316299999999984],[0.028437499999999952,0.0242592592592593,4.332999999999998],[0.05145833333333331,0.01777777777777782,4.349899999999963],[0.05510416666666664,-0.006296296296296254,4.369],[0.06124999999999995,-0.03944444444444436,4.382999999999996],[0.057604166666666616,-0.03851851851851843,4.39970000000001],[0.06656249999999998,-0.05499999999999998,4.419799999999988],[0.06895833333333339,-0.0418518518518519,4.434999999999995],[0.07635416666666663,-0.06333333333333331,4.453700000000012],[0.06385416666666661,-0.06018518518518518,4.469999999999999],[0.06822916666666666,-0.06759259259259259,4.485299999999988],[0.06697916666666662,-0.049074074074074076,4.501700000000007],[0.05614583333333331,-0.0025925925925925505,4.516200000000012],[0.08197916666666671,-0.03833333333333342,4.5334999999999965],[0.09281249999999991,-0.03333333333333333,4.554200000000009],[0.09656250000000005,-0.06277777777777774,4.569700000000012],[0.09333333333333324,-0.09259259259259259,4.585399999999964],[0.11385416666666662,-0.15055555555555558,4.599899999999963],[0.12822916666666656,-0.18907407407407412,4.618599999999972],[0.1397916666666667,-0.22629629629629627,4.6330999999999705],[0.1397916666666667,-0.22629629629629627,4.649999999999999],[0.1349999999999999,-0.22611111111111115,4.669599999999974],[0.13145833333333337,-0.21388888888888888,4.685099999999977],[0.13135416666666658,-0.20759259259259263,4.702299999999987],[0.11437499999999995,-0.13203703703703706,4.716099999999976],[0.11437499999999995,-0.12240740740740745,4.735200000000006],[0.121875,-0.0933333333333333,4.752799999999986],[0.1234375,-0.06888888888888887,4.766200000000012],[0.10770833333333343,-0.023148148148148147,4.782999999999994],[0.09510416666666661,0.040740740740740744,4.799499999999995],[0.0962500000000001,0.03814814814814819,4.818399999999961],[0.10427083333333324,0.03592592592592588,4.83289999999996],[0.09635416666666667,0.011666666666666582,4.849999999999994],[0.1,0.01703703703703712,4.868599999999972],[0.09208333333333343,0.020740740740740823,4.882799999999989],[0.06072916666666662,0.017407407407407365,4.899599999999971],[0.05302083333333331,0.017592592592592594,4.9162999999999855],[0.04239583333333338,0.04222222222222214,4.9363999999999635],[0.041979166666666616,0.05259259259259255,4.952200000000012],[0.04093749999999995,0.03092592592592601,4.966399999999965],[0.025416666666666643,0.06962962962962967,4.982899999999965],[0.03354166666666671,0.06925925925925921,5.001799999999989],[0.04239583333333338,0.10833333333333334,5.018399999999964],[0.03875000000000005,0.1227777777777777,5.0350999999999715],[0.041562499999999974,0.08740740740740749,5.049599999999977],[0.06031249999999998,0.08425925925925926,5.066200000000009],[0.05499999999999995,0.09259259259259259,5.084999999999994],[0.058958333333333356,0.08333333333333333,5.099599999999974],[0.05270833333333336,0.09981481481481477,5.1207000000000065],[0.04104166666666664,0.10796296296296289,5.136399999999959],[0.04104166666666664,0.10796296296296289,5.14970000000001],[0.03958333333333333,0.10666666666666672,5.1662999999999855],[0.009895833333333333,0.12333333333333338,5.182799999999986],[-0.013437499999999976,0.11296296296296296,5.1995000000000005],[-0.029895833333333382,0.11833333333333329,5.21839999999996],[-0.03343750000000002,0.15129629629629637,5.232799999999983],[-0.03760416666666669,0.17592592592592593,5.2495999999999725],[-0.04916666666666671,0.19888888888888884,5.266200000000012],[-0.059791666666666646,0.20722222222222217,5.2827999999999875],[-0.08322916666666665,0.2403703703703703,5.3028999999999655],[-0.07093750000000003,0.26740740740740737,5.316200000000009],[-0.06458333333333334,0.2668518518518519,5.33439999999996],[-0.04635416666666667,0.2616666666666666,5.349499999999999],[-0.03447916666666669,0.29222222222222216,5.368499999999997],[-0.014895833333333285,0.24870370370370362,5.382999999999996],[-0.0171875,0.2566666666666667,5.39970000000001],[-0.013750000000000047,0.26185185185185184,5.4162999999999855],[0.004375000000000047,0.2518518518518518,5.4363999999999635],[0.004375000000000047,0.2518518518518518,5.449899999999964],[0.021249999999999977,0.22481481481481477,5.466399999999965],[0.04770833333333328,0.1866666666666666,5.483099999999972],[0.052291666666666715,0.14981481481481476,5.503],[0.06135416666666664,0.12981481481481486,5.518499999999996],[0.058229166666666644,0.13277777777777786,5.533200000000008],[0.057395833333333354,0.12814814814814823,5.549799999999983],[0.04906250000000002,0.15481481481481485,5.568899999999964],[0.06666666666666667,0.07740740740740733,5.582999999999998],[0.0828125,0.01629629629629621,5.599999999999994],[0.08614583333333338,-0.03611111111111111,5.619399999999963],[0.08614583333333338,-0.03611111111111111,5.634700000000009],[0.08583333333333343,-0.0418518518518519,5.64970000000001],[0.0853125000000001,-0.04981481481481477,5.6662999999999855],[0.07229166666666677,-0.032407407407407406,5.685399999999966],[0.058749999999999976,-0.013333333333333417,5.700099999999971],[0.05364583333333333,-0.027037037037037078,5.716399999999965],[0.05302083333333331,-0.08462962962962961,5.736099999999972],[0.05687500000000002,-0.10277777777777777,5.751700000000007],[0.04895833333333333,-0.07666666666666662,5.767099999999971],[0.042499999999999954,-0.0668518518518519,5.782999999999994],[0.04906250000000002,-0.028888888888888933,5.802399999999963],[0.04895833333333333,-0.007777777777777862,5.816299999999984],[0.07447916666666667,-0.01722222222222214,5.833099999999973],[0.09458333333333328,-0.02370370370370362,5.853599999999972],[0.09458333333333328,-0.02370370370370362,5.866200000000006],[0.1271874999999999,-0.03777777777777774,5.882899999999964],[0.16604166666666675,-0.03740740740740749,5.902099999999976],[0.19166666666666668,0.014814814814814815,5.916200000000011],[0.21822916666666667,-0.01722222222222214,5.932799999999986],[0.23687500000000009,-0.0235185185185186,5.949599999999975],[0.2555208333333333,-0.029814814814814856,5.972099999999976],[0.2555208333333333,-0.029814814814814856,5.987599999999972],[0.25333333333333335,-0.06666666666666667,5.9995999999999725],[0.25333333333333335,-0.06666666666666667,6.016299999999987],[0.25635416666666655,-0.0809259259259259,6.032899999999962],[0.23989583333333328,-0.09092592592592597,6.055899999999966],[0.23989583333333328,-0.09092592592592597,6.066200000000009],[0.2515625,-0.1588888888888889,6.082799999999985],[0.2515625,-0.1588888888888889,6.099499999999999],[0.24541666666666656,-0.15833333333333333,6.116200000000006],[0.24541666666666656,-0.15833333333333333,6.136700000000012],[0.22770833333333323,-0.172037037037037,6.149799999999985],[0.21322916666666672,-0.222037037037037,6.166200000000011],[0.19333333333333325,-0.22722222222222221,6.182899999999961],[0.17114583333333327,-0.20629629629629626,6.201399999999964],[0.1586458333333333,-0.18351851851851855,6.216299999999983],[0.15812499999999996,-0.1492592592592593,6.233000000000004],[0.16395833333333343,-0.15037037037037035,6.2495999999999725],[0.15281250000000005,-0.14018518518518516,6.269299999999987],[0.1345833333333334,-0.08814814814814818,6.2835999999999785],[0.12447916666666667,-0.06462962962962959,6.300899999999956],[0.13020833333333334,-0.06574074074074074,6.316299999999984],[0.12447916666666667,-0.053703703703703705,6.335099999999969],[0.1423958333333334,-0.05092592592592592,6.349700000000013],[0.15552083333333327,-0.06759259259259259,6.366299999999981],[0.15197916666666675,-0.05851851851851856,6.382999999999996],[0.14979166666666663,-0.050370370370370454,6.402099999999976],[0.10625,-0.06518518518518517,6.416299999999993],[0.08875000000000005,-0.0668518518518519,6.432899999999961],[0.03322916666666664,-0.09296296296296294,6.45320000000001],[0.018333333333333358,-0.10722222222222218,6.468299999999985],[0.006562499999999953,-0.08962962962962959,6.482799999999983],[0.005312500000000024,-0.040740740740740744,6.499499999999998],[-0.004062499999999977,-0.0035185185185184764,6.516299999999987],[-0.019791666666666666,0.025370370370370456,6.53279999999998],[-0.02041666666666669,0.03888888888888889,6.553099999999972],[-0.041666666666666664,0.06185185185185181,6.5683999999999685],[-0.021562500000000047,0.10777777777777786,6.582799999999992],[-0.010104166666666714,0.14444444444444443,6.599799999999988],[0.03427083333333331,0.21203703703703702,6.616200000000006],[0.04718749999999995,0.20055555555555546,6.635999999999996],[0.04718749999999995,0.20055555555555546,6.64970000000001],[0.03218749999999997,0.19888888888888884,6.6663999999999675],[0.0265625,0.18796296296296297,6.682799999999986],[0.025937499999999978,0.17777777777777778,6.701700000000002],[0.0171875,0.175,6.716200000000015],[0.025416666666666643,0.14462962962962966,6.732799999999983],[0.03312499999999995,0.12074074074074083,6.751599999999968],[0.052291666666666715,0.07851851851851847,6.7695999999999685],[0.06447916666666664,0.08259259259259263,6.787099999999981],[0.0756249999999999,0.04981481481481477,6.802200000000013],[0.08093750000000005,0.12333333333333338,6.816099999999977],[0.08489583333333334,0.12981481481481486,6.832799999999992],[0.0921875,0.105925925925926,6.849499999999992],[0.07895833333333328,0.10222222222222231,6.866099999999975],[0.0734375,0.1294444444444444,6.882799999999989],[0.042708333333333334,0.10574074074074079,6.8999999999999915]]","[0.00009999999997489795,0.01629999999998688,0.032899999999962404,0.055999999999997385,0.07039999999996382,0.0830999999999733,0.09970000000000567,0.12359999999997484,0.13429999999998898,0.14999999999999858,0.16939999999996047,0.18309999999997473,0.199899999999964,0.21639999999996462,0.23289999999996525,0.24970000000001136,0