inst1_resp.keys,inst1_resp.rt,calibrationMouse.x,calibrationMouse.y,calibrationMouse.leftButton,calibrationMouse.midButton,calibrationMouse.rightButton,calibrationClick.x,calibrationClick.y,calibrationClick.leftButton,calibrationClick.midButton,calibrationClick.rightButton,trialsc.thisRepN,trialsc.thisTrialN,trialsc.thisN,trialsc.thisIndex,trialsc.ran,calibration_x,calibration_y,participant,session,date,expName,psychopyVersion,OS,frameRate,calibrationClick.clicked_name,ScreenRes_pixels,Camera_pixels,mouse_2.x,mouse_2.y,mouse_2.leftButton,mouse_2.midButton,mouse_2.rightButton,mouse_2.time,mouse_2.clicked_name,mouse.x,mouse.y,mouse.leftButton,mouse.midButton,mouse.rightButton,mouse.time,mouse.clicked_name,Choice,Trial,TrialDuration,MOUSE_GAZE,ET_GAZE,ET_GAZE_x_T,time,unixTime,ET_GAZE_NF,Loc_Option1_label,Loc_Option2_label,Loc_Cost_label,Loc_Qual_label,Loc_Option1_cost,Loc_Option2_cost,Loc_Option1_quality,Loc_Option2_quality,trials.thisRepN,trials.thisTrialN,trials.thisN,trials.thisIndex,trials.ran,Block,Device,cost1,qual1,cost2,qual2
space,3.9614,-0.207291667,-0.546296296,1,0,0,-0.676041667,0.011111111,1,0,0,0,0,0,2,1,-0.67,0,33,001,2024-12-02_15h17.41.307,Attention_exp_legacy,2023.1.0,Win32,59.52380952,,,,,,,,,,,,,,,,,,,,,,,,,,,,,,,,,,,,,,,,,,,,,
,,,,,,,0.670833333,-0.672222222,1,0,0,0,1,1,20,1,0.67,-0.67,33,001,2024-12-02_15h17.41.307,Attention_exp_legacy,2023.1.0,Win32,59.52380952,calibration_square,,,,,,,,,,,,,,,,,,,,,,,,,,,,,,,,,,,,,,,,,,,,
,,,,,,,-0.670833333,-0.324074074,1,0,0,0,2,2,1,1,-0.67,-0.33,33,001,2024-12-02_15h17.41.307,Attention_exp_legacy,2023.1.0,Win32,59.52380952,calibration_square,,,,,,,,,,,,,,,,,,,,,,,,,,,,,,,,,,,,,,,,,,,,
,,,,,,,0.002083333,0.007407407,1,0,0,0,3,3,11,1,0,0,33,001,2024-12-02_15h17.41.307,Attention_exp_legacy,2023.1.0,Win32,59.52380952,calibration_square,,,,,,,,,,,,,,,,,,,,,,,,,,,,,,,,,,,,,,,,,,,,
,,,,,,,0.004166667,0.687037037,1,0,0,0,4,4,13,1,0,0.67,33,001,2024-12-02_15h17.41.307,Attention_exp_legacy,2023.1.0,Win32,59.52380952,,,,,,,,,,,,,,,,,,,,,,,,,,,,,,,,,,,,,,,,,,,,,
,,,,,,,0.335416667,0.337037037,1,0,0,0,5,5,17,1,0.33,0.33,33,001,2024-12-02_15h17.41.307,Attention_exp_legacy,2023.1.0,Win32,59.52380952,calibration_square,,,,,,,,,,,,,,,,,,,,,,,,,,,,,,,,,,,,,,,,,,,,
,,,,,,,-0.328125,-0.681481481,1,0,0,0,6,6,4,1,-0.33,-0.67,33,001,2024-12-02_15h17.41.307,Attention_exp_legacy,2023.1.0,Win32,59.52380952,,,,,,,,,,,,,,,,,,,,,,,,,,,,,,,,,,,,,,,,,,,,,
,,,,,,,-0.676041667,-0.677777778,1,0,0,0,7,7,0,1,-0.67,-0.67,33,001,2024-12-02_15h17.41.307,Attention_exp_legacy,2023.1.0,Win32,59.52380952,calibration_square,,,,,,,,,,,,,,,,,,,,,,,,,,,,,,,,,,,,,,,,,,,,
,,,,,,,0.001041667,0.335185185,1,0,0,0,8,8,12,1,0,0.33,33,001,2024-12-02_15h17.41.307,Attention_exp_legacy,2023.1.0,Win32,59.52380952,calibration_square,,,,,,,,,,,,,,,,,,,,,,,,,,,,,,,,,,,,,,,,,,,,
,,,,,,,0.333333333,-0.322222222,1,0,0,0,9,9,15,1,0.33,-0.33,33,001,2024-12-02_15h17.41.307,Attention_exp_legacy,2023.1.0,Win32,59.52380952,calibration_square,,,,,,,,,,,,,,,,,,,,,,,,,,,,,,,,,,,,,,,,,,,,
,,,,,,,-0.333333333,0.342592593,1,0,0,0,10,10,7,1,-0.33,0.33,33,001,2024-12-02_15h17.41.307,Attention_exp_legacy,2023.1.0,Win32,59.52380952,,,,,,,,,,,,,,,,,,,,,,,,,,,,,,,,,,,,,,,,,,,,,
,,,,,,,0.005208333,-0.333333333,1,0,0,0,11,11,10,1,0,-0.33,33,001,2024-12-02_15h17.41.307,Attention_exp_legacy,2023.1.0,Win32,59.52380952,calibration_square,,,,,,,,,,,,,,,,,,,,,,,,,,,,,,,,,,,,,,,,,,,,
,,,,,,,0.671875,0.685185185,1,0,0,0,12,12,19,1,0.67,0.67,33,001,2024-12-02_15h17.41.307,Attention_exp_legacy,2023.1.0,Win32,59.52380952,,,,,,,,,,,,,,,,,,,,,,,,,,,,,,,,,,,,,,,,,,,,,
,,,,,,,-0.321875,0.690740741,1,0,0,0,13,13,8,1,-0.33,0.67,33,001,2024-12-02_15h17.41.307,Attention_exp_legacy,2023.1.0,Win32,59.52380952,,,,,,,,,,,,,,,,,,,,,,,,,,,,,,,,,,,,,,,,,,,,,
,,,,,,,-0.340625,-0.005555556,1,0,0,0,14,14,6,1,-0.33,0,33,001,2024-12-02_15h17.41.307,Attention_exp_legacy,2023.1.0,Win32,59.52380952,,,,,,,,,,,,,,,,,,,,,,,,,,,,,,,,,,,,,,,,,,,,,
,,,,,,,-0.001041667,-0.659259259,1,0,0,0,15,15,9,1,0,-0.67,33,001,2024-12-02_15h17.41.307,Attention_exp_legacy,2023.1.0,Win32,59.52380952,,,,,,,,,,,,,,,,,,,,,,,,,,,,,,,,,,,,,,,,,,,,,
,,,,,,,0.332291667,0.677777778,1,0,0,0,16,16,18,1,0.33,0.67,33,001,2024-12-02_15h17.41.307,Attention_exp_legacy,2023.1.0,Win32,59.52380952,calibration_square,,,,,,,,,,,,,,,,,,,,,,,,,,,,,,,,,,,,,,,,,,,,
,,,,,,,0.338541667,-0.644444444,1,0,0,0,17,17,14,1,0.33,-0.67,33,001,2024-12-02_15h17.41.307,Attention_exp_legacy,2023.1.0,Win32,59.52380952,,,,,,,,,,,,,,,,,,,,,,,,,,,,,,,,,,,,,,,,,,,,,
,,,,,,,0.340625,-0.007407407,1,0,0,0,18,18,16,1,0.33,0,33,001,2024-12-02_15h17.41.307,Attention_exp_legacy,2023.1.0,Win32,59.52380952,,,,,,,,,,,,,,,,,,,,,,,,,,,,,,,,,,,,,,,,,,,,,
,,,,,,,-0.3375,-0.318518519,1,0,0,0,19,19,5,1,-0.33,-0.33,33,001,2024-12-02_15h17.41.307,Attention_exp_legacy,2023.1.0,Win32,59.52380952,,,,,,,,,,,,,,,,,,,,,,,,,,,,,,,,,,,,,,,,,,,,,
,,,,,,,-0.665625,0.335185185,1,0,0,0,20,20,3,1,-0.67,0.33,33,001,2024-12-02_15h17.41.307,Attention_exp_legacy,2023.1.0,Win32,59.52380952,calibration_square,,,,,,,,,,,,,,,,,,,,,,,,,,,,,,,,,,,,,,,,,,,,
,,,,,,,,,,,,,,,,,,,33,001,2024-12-02_15h17.41.307,Attention_exp_legacy,2023.1.0,Win32,59.52380952,,"[1920,1080]","[640,480]",[0.05520833333333333],[-0.5074074074074074],[1],[0],[0],[4.762700000001111],"[""StartButton""]","[-0.020833333333333332,-0.023958333333333335]","[0.5925925925925926,0.524074074074074]","[1,1]","[0,0]","[0,0]","[4.814999999999998,5.434099999999631]","[""Option1_label"",""Option1_label""]",Option1_label,1,5.8287,"[[0.0875,-0.4351851851851852],[0.0875,-0.4351851851851852],[0.0875,-0.4351851851851852],[0.0875,-0.4351851851851852],[0.0875,-0.4351851851851852],[0.0875,-0.4351851851851852],[0.0875,-0.4351851851851852],[0.0875,-0.4351851851851852],[0.0875,-0.4351851851851852],[0.0875,-0.4351851851851852],[0.0875,-0.4351851851851852],[0.0875,-0.4351851851851852],[0.0875,-0.4351851851851852],[0.0875,-0.4351851851851852],[0.0875,-0.4351851851851852],[0.0875,-0.4351851851851852],[0.0875,-0.4351851851851852],[0.0875,-0.4351851851851852],[0.0875,-0.4351851851851852],[0.0875,-0.4351851851851852],[0.0875,-0.4351851851851852],[0.0875,-0.4351851851851852],[0.0875,-0.4351851851851852],[0.0875,-0.4351851851851852],[0.0875,-0.4351851851851852],[0.0875,-0.4351851851851852],[0.0875,-0.4351851851851852],[0.0875,-0.4351851851851852],[0.0875,-0.4351851851851852],[0.0875,-0.4351851851851852],[0.0875,-0.4351851851851852],[0.0875,-0.4351851851851852],[0.0875,-0.4351851851851852],[0.0875,-0.4351851851851852],[0.0875,-0.4351851851851852],[0.0875,-0.4351851851851852],[0.0875,-0.4351851851851852],[0.0875,-0.42962962962962964],[0.0875,-0.4185185185185185],[0.0875,-0.4],[0.08020833333333334,-0.37407407407407406],[0.06458333333333334,-0.32222222222222224],[0.053125,-0.2796296296296296],[0.03333333333333333,-0.21481481481481482],[0.026041666666666668,-0.19444444444444445],[0.013541666666666667,-0.15185185185185185],[0.003125,-0.1111111111111111],[-0.00625,-0.07592592592592592],[-0.015625,-0.037037037037037035],[-0.020833333333333332,-0.009259259259259259],[-0.026041666666666668,0.020370370370370372],[-0.03125,0.06111111111111111],[-0.03229166666666667,0.07222222222222222],[-0.034375,0.0962962962962963],[-0.035416666666666666,0.10925925925925926],[-0.035416666666666666,0.11481481481481481],[-0.036458333333333336,0.11851851851851852],[-0.036458333333333336,0.12037037037037036],[-0.036458333333333336,0.12037037037037036],[-0.036458333333333336,0.12037037037037036],[-0.036458333333333336,0.12037037037037036],[-0.036458333333333336,0.12037037037037036],[-0.0375,0.12222222222222222],[-0.03958333333333333,0.12222222222222222],[-0.042708333333333334,0.12222222222222222],[-0.065625,0.10740740740740741],[-0.08854166666666667,0.08888888888888889],[-0.115625,0.06666666666666667],[-0.140625,0.04814814814814815],[-0.165625,0.03518518518518519],[-0.19270833333333334,0.022222222222222223],[-0.215625,0.009259259259259259],[-0.23125,0.005555555555555556],[-0.24583333333333332,0],[-0.253125,-0.001851851851851852],[-0.25416666666666665,-0.001851851851851852],[-0.25729166666666664,-0.001851851851851852],[-0.25833333333333336,-0.001851851851851852],[-0.25833333333333336,-0.001851851851851852],[-0.25833333333333336,-0.001851851851851852],[-0.25833333333333336,-0.001851851851851852],[-0.25833333333333336,-0.001851851851851852],[-0.25833333333333336,-0.001851851851851852],[-0.25729166666666664,-0.001851851851851852],[-0.23645833333333333,0.005555555555555556],[-0.196875,0.025925925925925925],[-0.13125,0.040740740740740744],[-0.06354166666666666,0.05185185185185185],[-0.014583333333333334,0.05555555555555555],[0.04791666666666667,0.05555555555555555],[0.07291666666666667,0.05555555555555555],[0.09375,0.05740740740740741],[0.109375,0.06481481481481481],[0.115625,0.06666666666666667],[0.11979166666666667,0.06851851851851852],[0.121875,0.07222222222222222],[0.121875,0.07222222222222222],[0.121875,0.07222222222222222],[0.12291666666666666,0.07222222222222222],[0.12395833333333334,0.07222222222222222],[0.125,0.07222222222222222],[0.14166666666666666,0.07592592592592592],[0.165625,0.08148148148148149],[0.20104166666666667,0.08333333333333333],[0.2604166666666667,0.08333333333333333],[0.33958333333333335,0.08333333333333333],[0.425,0.08148148148148149],[0.4979166666666667,0.06481481481481481],[0.55625,0.05740740740740741],[0.5947916666666667,0.05185185185185185],[0.6208333333333333,0.05185185185185185],[0.6395833333333333,0.05185185185185185],[0.6614583333333334,0.05185185185185185],[0.66875,0.044444444444444446],[0.6739583333333333,0.03888888888888889],[0.6760416666666667,0.03333333333333333],[0.678125,0.022222222222222223],[0.6791666666666667,0.009259259259259259],[0.6802083333333333,-0.012962962962962963],[0.6802083333333333,-0.046296296296296294],[0.6802083333333333,-0.09074074074074075],[0.6791666666666667,-0.13703703703703704],[0.6729166666666667,-0.21666666666666667],[0.6677083333333333,-0.26481481481481484],[0.6677083333333333,-0.3074074074074074],[0.6677083333333333,-0.3351851851851852],[0.6677083333333333,-0.35185185185185186],[0.6677083333333333,-0.3648148148148148],[0.6677083333333333,-0.37407407407407406],[0.6677083333333333,-0.3851851851851852],[0.6677083333333333,-0.39444444444444443],[0.6677083333333333,-0.39814814814814814],[0.6677083333333333,-0.40555555555555556],[0.6677083333333333,-0.4111111111111111],[0.66875,-0.412962962962963],[0.66875,-0.4166666666666667],[0.66875,-0.4166666666666667],[0.66875,-0.4185185185185185],[0.66875,-0.4185185185185185],[0.66875,-0.4203703703703704],[0.66875,-0.4203703703703704],[0.66875,-0.4203703703703704],[0.66875,-0.4222222222222222],[0.66875,-0.4222222222222222],[0.66875,-0.4222222222222222],[0.66875,-0.4222222222222222],[0.66875,-0.4222222222222222],[0.66875,-0.4222222222222222],[0.66875,-0.4222222222222222],[0.66875,-0.4222222222222222],[0.66875,-0.4222222222222222],[0.66875,-0.4222222222222222],[0.66875,-0.4222222222222222],[0.66875,-0.4222222222222222],[0.66875,-0.42407407407407405],[0.66875,-0.42407407407407405],[0.66875,-0.42592592592592593],[0.66875,-0.42592592592592593],[0.6666666666666666,-0.42777777777777776],[0.665625,-0.42777777777777776],[0.6645833333333333,-0.42777777777777776],[0.6645833333333333,-0.42777777777777776],[0.6635416666666667,-0.42777777777777776],[0.6625,-0.42962962962962964],[0.6625,-0.42962962962962964],[0.6614583333333334,-0.42962962962962964],[0.6614583333333334,-0.42962962962962964],[0.6614583333333334,-0.42962962962962964],[0.6604166666666667,-0.42962962962962964],[0.659375,-0.42962962962962964],[0.659375,-0.42962962962962964],[0.659375,-0.42962962962962964],[0.659375,-0.42962962962962964],[0.659375,-0.42962962962962964],[0.659375,-0.42962962962962964],[0.659375,-0.42962962962962964],[0.659375,-0.42962962962962964],[0.659375,-0.42962962962962964],[0.659375,-0.42962962962962964],[0.659375,-0.42962962962962964],[0.659375,-0.42962962962962964],[0.659375,-0.42962962962962964],[0.659375,-0.42962962962962964],[0.659375,-0.42962962962962964],[0.659375,-0.42962962962962964],[0.659375,-0.42962962962962964],[0.659375,-0.42962962962962964],[0.659375,-0.42962962962962964],[0.659375,-0.42962962962962964],[0.659375,-0.42962962962962964],[0.659375,-0.42962962962962964],[0.659375,-0.42962962962962964],[0.659375,-0.42962962962962964],[0.659375,-0.42962962962962964],[0.659375,-0.42962962962962964],[0.659375,-0.42962962962962964],[0.6583333333333333,-0.42962962962962964],[0.6583333333333333,-0.42962962962962964],[0.6583333333333333,-0.42962962962962964],[0.6583333333333333,-0.42962962962962964],[0.6583333333333333,-0.42962962962962964],[0.6583333333333333,-0.42962962962962964],[0.6583333333333333,-0.42962962962962964],[0.6583333333333333,-0.42962962962962964],[0.6583333333333333,-0.42962962962962964],[0.65625,-0.42962962962962964],[0.6552083333333333,-0.42962962962962964],[0.653125,-0.42962962962962964],[0.65,-0.42962962962962964],[0.6447916666666667,-0.42592592592592593],[0.6375,-0.4185185185185185],[0.6322916666666667,-0.412962962962963],[0.628125,-0.40925925925925927],[0.625,-0.40555555555555556],[0.6239583333333333,-0.40555555555555556],[0.621875,-0.40370370370370373],[0.621875,-0.40370370370370373],[0.621875,-0.40370370370370373],[0.621875,-0.40370370370370373],[0.621875,-0.40370370370370373],[0.621875,-0.40370370370370373],[0.621875,-0.40370370370370373],[0.621875,-0.40370370370370373],[0.621875,-0.40370370370370373],[0.621875,-0.40370370370370373],[0.621875,-0.40370370370370373],[0.621875,-0.40370370370370373],[0.621875,-0.40370370370370373],[0.621875,-0.40370370370370373],[0.621875,-0.40370370370370373],[0.6197916666666666,-0.4],[0.6177083333333333,-0.3962962962962963],[0.6145833333333334,-0.39444444444444443],[0.6114583333333333,-0.387037037037037],[0.6083333333333333,-0.387037037037037],[0.60625,-0.38333333333333336],[0.6052083333333333,-0.37962962962962965],[0.603125,-0.37962962962962965],[0.603125,-0.37777777777777777],[0.6010416666666667,-0.37777777777777777],[0.6010416666666667,-0.37777777777777777],[0.6010416666666667,-0.37777777777777777],[0.6010416666666667,-0.37777777777777777],[0.6010416666666667,-0.37777777777777777],[0.6010416666666667,-0.37777777777777777],[0.6010416666666667,-0.37777777777777777],[0.6010416666666667,-0.37777777777777777],[0.6010416666666667,-0.37777777777777777],[0.6010416666666667,-0.37777777777777777],[0.6010416666666667,-0.37777777777777777],[0.6010416666666667,-0.37777777777777777],[0.6010416666666667,-0.37777777777777777],[0.6010416666666667,-0.37777777777777777],[0.6010416666666667,-0.37777777777777777],[0.6010416666666667,-0.37777777777777777],[0.6,-0.37407407407407406],[0.5989583333333334,-0.37037037037037035],[0.5947916666666667,-0.362962962962963],[0.5885416666666666,-0.35185185185185186],[0.5760416666666667,-0.3277777777777778],[0.5541666666666667,-0.2962962962962963],[0.5072916666666667,-0.23333333333333334],[0.428125,-0.13518518518518519],[0.34375,-0.012962962962962963],[0.24583333333333332,0.1388888888888889],[0.15625,0.2759259259259259],[0.084375,0.38333333333333336],[0.04479166666666667,0.4462962962962963],[0.019791666666666666,0.48518518518518516],[0.0010416666666666667,0.512962962962963],[-0.005208333333333333,0.5222222222222223],[-0.007291666666666667,0.5259259259259259],[-0.007291666666666667,0.5259259259259259],[-0.008333333333333333,0.5277777777777778],[-0.008333333333333333,0.5277777777777778],[-0.008333333333333333,0.5314814814814814],[-0.011458333333333333,0.5407407407407407],[-0.0125,0.5592592592592592],[-0.016666666666666666,0.5777777777777777],[-0.01875,0.5851851851851851],[-0.019791666666666666,0.5907407407407408],[-0.020833333333333332,0.5925925925925926],[-0.020833333333333332,0.5925925925925926],[-0.020833333333333332,0.5925925925925926],[-0.020833333333333332,0.5925925925925926],[-0.020833333333333332,0.5925925925925926],[-0.020833333333333332,0.5925925925925926],[-0.020833333333333332,0.5925925925925926],[-0.020833333333333332,0.5925925925925926],[-0.020833333333333332,0.5925925925925926],[-0.020833333333333332,0.5925925925925926],[-0.020833333333333332,0.5925925925925926],[-0.020833333333333332,0.5925925925925926],[-0.020833333333333332,0.5925925925925926],[-0.020833333333333332,0.5925925925925926],[-0.020833333333333332,0.5925925925925926],[-0.020833333333333332,0.5925925925925926],[-0.020833333333333332,0.5925925925925926],[-0.020833333333333332,0.5925925925925926],[-0.020833333333333332,0.5925925925925926],[-0.020833333333333332,0.5925925925925926],[-0.020833333333333332,0.5925925925925926],[-0.020833333333333332,0.5925925925925926],[-0.020833333333333332,0.5925925925925926],[-0.020833333333333332,0.5925925925925926],[-0.020833333333333332,0.5925925925925926],[-0.020833333333333332,0.5925925925925926],[-0.020833333333333332,0.5925925925925926],[-0.020833333333333332,0.5925925925925926],[-0.020833333333333332,0.5925925925925926],[-0.020833333333333332,0.5925925925925926],[-0.020833333333333332,0.5925925925925926],[-0.020833333333333332,0.5925925925925926],[-0.020833333333333332,0.5907407407407408],[-0.021875,0.5777777777777777],[-0.021875,0.5685185185185185],[-0.023958333333333335,0.55],[-0.023958333333333335,0.5277777777777778],[-0.023958333333333335,0.524074074074074],[-0.023958333333333335,0.524074074074074],[-0.023958333333333335,0.524074074074074],[-0.023958333333333335,0.524074074074074],[-0.023958333333333335,0.524074074074074],[-0.023958333333333335,0.524074074074074],[-0.023958333333333335,0.524074074074074],[-0.023958333333333335,0.524074074074074],[-0.023958333333333335,0.524074074074074],[-0.023958333333333335,0.524074074074074],[-0.023958333333333335,0.524074074074074],[-0.023958333333333335,0.524074074074074],[-0.023958333333333335,0.524074074074074],[-0.023958333333333335,0.524074074074074],[-0.023958333333333335,0.524074074074074],[-0.023958333333333335,0.524074074074074],[-0.023958333333333335,0.524074074074074],[-0.023958333333333335,0.524074074074074],[-0.023958333333333335,0.524074074074074],[-0.023958333333333335,0.524074074074074],[-0.023958333333333335,0.524074074074074],[-0.023958333333333335,0.524074074074074],[-0.023958333333333335,0.524074074074074],[-0.023958333333333335,0.524074074074074],[-0.023958333333333335,0.524074074074074],[-0.023958333333333335,0.524074074074074],[-0.023958333333333335,0.524074074074074],[-0.023958333333333335,0.524074074074074],[-0.023958333333333335,0.524074074074074],[-0.023958333333333335,0.524074074074074],[-0.023958333333333335,0.524074074074074]]","[[0.07083333333333333,0.45092592592592595],[0.07083333333333333,0.45092592592592595],[0.06520833333333335,0.4624074074074075],[0.06520833333333335,0.4624074074074075],[0.05947916666666669,0.46296296296296297],[0.04114583333333333,0.44759259259259265],[0.035416666666666666,0.4411111111111112],[0.034791666666666644,0.42314814814814816],[0.04874999999999995,0.41944444444444445],[0.05354166666666664,0.42407407407407405],[0.03885416666666662,0.41444444444444434],[0.058541666666666714,0.40851851851851856],[0.03187500000000002,0.3848148148148147],[0.04125000000000002,0.3635185185185184],[0.07854166666666676,0.3625925925925925],[0.12416666666666672,0.3675925925925926],[0.1273958333333333,0.36740740740740735],[0.15479166666666658,0.3653703703703703],[0.1866666666666667,0.35648148148148145],[0.21104166666666657,0.34685185185185174],[0.19718749999999996,0.3622222222222223],[0.17510416666666656,0.3675925925925926],[0.16281249999999994,0.38074074074074077],[0.1287499999999999,0.3998148148148148],[0.04510416666666662,0.3824074074074074],[0.04510416666666662,0.3824074074074074],[-0.03854166666666667,0.36500000000000005],[-0.05625,0.33277777777777784],[-0.11833333333333336,0.31870370370370377],[-0.16593749999999996,0.3074074074074074],[-0.20020833333333338,0.29870370370370364],[-0.19437500000000002,0.2735185185185186],[-0.19145833333333329,0.2683333333333333],[-0.16822916666666668,0.25833333333333336],[-0.20989583333333334,0.24537037037037038],[-0.2078125,0.26907407407407397],[-0.17000000000000004,0.26648148148148143],[-0.14072916666666668,0.2418518518518519],[-0.10375000000000002,0.262037037037037],[-0.10677083333333333,0.2803703703703703],[-0.10208333333333333,0.3088888888888888],[-0.09239583333333339,0.33481481481481473],[-0.08822916666666672,0.3381481481481482],[-0.07947916666666661,0.32685185185185184],[-0.07947916666666661,0.32685185185185184],[-0.005416666666666714,0.33425925925925926],[0.05510416666666664,0.33648148148148155],[0.0484375,0.3609259259259259],[0.04614583333333329,0.40037037037037043],[0.04614583333333329,0.40037037037037043],[0.03354166666666671,0.35537037037037034],[0.03999999999999997,0.32092592592592584],[0.05531250000000002,0.32111111111111107],[0.027499999999999976,0.24388888888888896],[0.013125000000000024,0.20500000000000007],[0.013125000000000024,0.20500000000000007],[-0.0171875,0.16222222222222227],[-0.04114583333333333,0.1259259259259259],[-0.07177083333333331,0.08222222222222218],[-0.07093750000000003,0.04259259259259259],[-0.0765625,0.00722222222222218],[-0.08062499999999997,0.007407407407407408],[-0.08979166666666671,-0.005555555555555556],[-0.1092708333333333,-0.04351851851851852],[-0.12312500000000005,0.007037037037036953],[-0.159375,0.032037037037036954],[-0.14718749999999994,0.04277777777777782],[-0.14718749999999994,0.04277777777777782],[-0.14677083333333332,0.049074074074074076],[-0.14166666666666666,0.06277777777777774],[-0.1720833333333334,0.07185185185185176],[-0.20666666666666664,0.07759259259259255],[-0.22250000000000003,0.07537037037037045],[-0.24229166666666668,0.09537037037037037],[-0.2655208333333333,0.07592592592592592],[-0.2655208333333333,0.07592592592592592],[-0.2642708333333334,0.049629629629629544],[-0.25114583333333335,0.0007407407407406986],[-0.26458333333333334,0.009444444444444486],[-0.25968749999999996,0.013518518518518435],[-0.24739583333333334,0.017407407407407365],[-0.24739583333333334,0.017407407407407365],[-0.2015625,0.009814814814814731],[-0.2015625,0.009814814814814731],[-0.17062499999999994,0.01185185185185181],[-0.17062499999999994,0.01185185185185181],[-0.17000000000000004,0.0011111111111111532],[-0.17000000000000004,0.0011111111111111532],[-0.1382291666666667,-0.028888888888888933],[-0.12468750000000005,-0.04296296296296305],[-0.12468750000000005,-0.04296296296296305],[-0.0890625,-0.053148148148148125],[-0.027291666666666714,-0.024814814814814772],[-0.027291666666666714,-0.024814814814814772],[0.02833333333333338,-0.03037037037037033],[0.02833333333333338,-0.03037037037037033],[0.06270833333333338,-0.07166666666666664],[0.06270833333333338,-0.07166666666666664],[0.11218750000000005,-0.11740740740740736],[0.11218750000000005,-0.11740740740740736],[0.10822916666666677,-0.15907407407407403],[0.10822916666666677,-0.15907407407407403],[0.14593749999999991,-0.15629629629629627],[0.14593749999999991,-0.15629629629629627],[0.20166666666666658,-0.12851851851851848],[0.23083333333333325,-0.1227777777777778],[0.27197916666666655,-0.11129629629629634],[0.2808333333333332,-0.1051851851851852],[0.29375,-0.09240740740740737],[0.29375,-0.09240740740740737],[0.30708333333333326,-0.09166666666666666],[0.32833333333333337,-0.06833333333333329],[0.33447916666666655,-0.04296296296296305],[0.36208333333333326,0.0016666666666666245],[0.34385416666666657,0.018518518518518517],[0.34385416666666657,0.018518518518518517],[0.3654166666666666,0.00592592592592601],[0.3946875000000001,0.0198148148148149],[0.4161458333333333,0.02370370370370362],[0.47322916666666665,0.03148148148148148],[0.4861458333333334,0.007407407407407408],[0.4942708333333333,0.004444444444444402],[0.49937500000000007,0.018888888888888972],[0.49937500000000007,0.018888888888888972],[0.490625,0.03148148148148148],[0.490625,0.03148148148148148],[0.490625,0.06537037037037029],[0.5273958333333333,0.07148148148148152],[0.5190625,0.10944444444444448],[0.5297916666666665,0.14351851851851852],[0.5145833333333333,0.18555555555555564],[0.48197916666666674,0.22351851851851862],[0.4646874999999999,0.27314814814814814],[0.4743750000000001,0.32333333333333336],[0.4790625000000001,0.34574074074074085],[0.4818749999999999,0.3668518518518519],[0.5076041666666666,0.3798148148148149],[0.46843750000000006,0.3972222222222222],[0.47208333333333335,0.40259259259259256],[0.4192708333333333,0.38055555555555554],[0.39781250000000007,0.3566666666666667],[0.3763541666666666,0.33277777777777784],[0.3922916666666666,0.33555555555555566],[0.3810416666666666,0.3448148148148149],[0.3614583333333333,0.34962962962962957],[0.34375,0.3557407407407408],[0.3325000000000001,0.3416666666666667],[0.36843750000000003,0.32462962962962955],[0.3601041666666667,0.32629629629629636],[0.3601041666666667,0.32629629629629636],[0.38916666666666655,0.3592592592592593],[0.4147916666666667,0.35],[0.42385416666666675,0.34981481481481475],[0.39114583333333336,0.3224074074074075],[0.38614583333333335,0.32333333333333336],[0.41385416666666663,0.330925925925926],[0.4102083333333333,0.3235185185185186],[0.4023958333333333,0.31592592592592594],[0.3923958333333334,0.31129629629629635],[0.4174999999999999,0.29981481481481476],[0.4388541666666666,0.2992592592592593],[0.48072916666666665,0.3698148148148149],[0.5245833333333333,0.405925925925926],[0.5896874999999999,0.4196296296296297],[0.5896874999999999,0.4196296296296297],[0.6331249999999999,0.40185185185185185],[0.6208333333333333,0.4027777777777778],[0.6398958333333333,0.41870370370370374],[0.6744791666666666,0.42481481481481476],[0.6973958333333333,0.427962962962963],[0.7014583333333334,0.4257407407407407],[0.7092708333333334,0.4125925925925925],[0.7099999999999999,0.38203703703703695],[0.7253124999999999,0.3768518518518518],[0.725,0.3761111111111112],[0.7188541666666666,0.3714814814814815],[0.7469791666666665,0.3537037037037037],[0.779375,0.3531481481481482],[0.8008333333333333,0.35351851851851845],[0.8361458333333334,0.3538888888888889],[0.8615624999999999,0.3522222222222223],[0.8869791666666667,0.35055555555555545],[0.8932291666666666,0.34203703703703714],[0.8994791666666667,0.33351851851851855],[0.9066666666666667,0.34333333333333327],[0.9232291666666667,0.3314814814814815],[0.9448958333333333,0.32222222222222224],[0.9448958333333333,0.32222222222222224],[0.946875,0.2972222222222222],[0.9494791666666667,0.27833333333333327],[0.9599999999999999,0.244074074074074],[0.9565625,0.21203703703703702],[0.9807291666666667,0.18648148148148155],[0.9807291666666667,0.18648148148148155],[1.0079166666666666,0.16648148148148145],[1.0079166666666666,0.15555555555555556],[1.0084374999999999,0.12851851851851848],[1.0084374999999999,0.12851851851851848],[0.9633333333333333,0.1287037037037037],[0.9633333333333333,0.1287037037037037],[0.9455208333333334,0.11796296296296305],[0.9276041666666667,0.09592592592592585],[0.9054166666666668,0.0868518518518518],[0.8820833333333333,0.10407407407407415],[0.8478125000000001,0.11055555555555564],[0.7964583333333333,0.11129629629629634],[0.7719791666666665,0.13796296296296295],[0.7695833333333333,0.15685185185185194],[0.7548958333333334,0.1725925925925927],[0.7908333333333334,0.19592592592592584],[0.7688541666666666,0.23277777777777786],[0.7688541666666666,0.23277777777777786],[0.7670833333333335,0.2875925925925925],[0.7670833333333335,0.2875925925925925],[0.7633333333333333,0.3072222222222222],[0.7633333333333333,0.3072222222222222],[0.7623958333333334,0.31074074074074065],[0.7623958333333334,0.31074074074074065],[0.7775000000000001,0.33537037037037043],[0.7775000000000001,0.33537037037037043],[0.7533333333333334,0.34388888888888897],[0.7533333333333334,0.34388888888888897],[0.7201041666666667,0.3007407407407407],[0.7201041666666667,0.3007407407407407],[0.6873958333333334,0.2627777777777777],[0.6873958333333334,0.2627777777777777],[0.6460416666666667,0.25574074074074077],[0.6460416666666667,0.25574074074074077],[0.6089583333333333,0.23259259259259263],[0.6089583333333333,0.23259259259259263],[0.5806250000000001,0.244074074074074],[0.5806250000000001,0.244074074074074],[0.5419791666666666,0.24462962962962967],[0.5223958333333333,0.2490740740740741],[0.5223958333333333,0.2490740740740741],[0.5057291666666667,0.26722222222222214],[0.5057291666666667,0.26722222222222214],[0.49239583333333337,0.28722222222222227],[0.5002083333333334,0.30907407407407406],[0.5054166666666667,0.3392592592592593],[0.5094791666666666,0.3698148148148149],[0.5273958333333333,0.3883333333333334],[0.5318749999999999,0.4046296296296296],[0.5385416666666667,0.39444444444444443],[0.5507291666666667,0.40018518518518525],[0.5448958333333332,0.4270370370370371],[0.5365624999999999,0.40851851851851856],[0.5277083333333332,0.3764814814814814],[0.5094791666666666,0.37333333333333335],[0.49156250000000007,0.4148148148148148],[0.47802083333333345,0.41462962962962957],[0.4814583333333334,0.405925925925926],[0.4853125000000001,0.4103703703703704],[0.4926041666666668,0.40981481481481474],[0.5,0.3961111111111111],[0.5073958333333333,0.3824074074074074],[0.5033333333333334,0.3962962962962963],[0.5209374999999999,0.42777777777777776],[0.5629166666666667,0.4364814814814816],[0.5629166666666667,0.4364814814814816],[0.5768749999999999,0.40314814814814826],[0.5970833333333334,0.4016666666666666],[0.5637500000000001,0.4107407407407407],[0.5520833333333334,0.402962962962963],[0.5620833333333333,0.36814814814814806],[0.5620833333333333,0.36814814814814806],[0.5692708333333333,0.3301851851851851],[0.5692708333333333,0.3301851851851851],[0.5532291666666665,0.2655555555555555],[0.5532291666666665,0.2655555555555555],[0.5214583333333332,0.2140740740740741],[0.46812500000000007,0.14333333333333328],[0.4147916666666667,0.09074074074074075],[0.39385416666666656,0.057037037037036956],[0.3341666666666666,-0.018888888888888972],[0.31104166666666655,-0.11148148148148146],[0.2771874999999999,-0.20240740740740742],[0.2265625,-0.25574074074074077],[0.1787499999999999,-0.3059259259259259],[0.1502083333333334,-0.32518518518518524],[0.13135416666666658,-0.3661111111111111],[0.1099999999999999,-0.4096296296296296],[0.06364583333333336,-0.47074074074074074],[0.01895833333333338,-0.5366666666666667],[0.008124999999999953,-0.5574074074074075],[0.0171875,-0.5164814814814814],[0.01270833333333338,-0.49537037037037035],[0.019583333333333286,-0.4905555555555555],[0.0016666666666666904,-0.4624074074074074],[-0.0010416666666666667,-0.4705555555555556],[0.010104166666666714,-0.42685185185185187],[0.020833333333333332,-0.39240740740740737],[0.05520833333333333,-0.33537037037037043],[0.08093750000000005,-0.285],[0.08791666666666677,-0.24203703703703702],[0.05770833333333331,-0.24148148148148144],[0.01885416666666669,-0.2531481481481481],[-0.01229166666666662,-0.2596296296296296],[-0.021249999999999977,-0.28777777777777774],[-0.05593750000000005,-0.27314814814814814],[-0.09666666666666662,-0.2887037037037037],[-0.1345833333333334,-0.29074074074074074],[-0.16135416666666663,-0.3037037037037037],[-0.18072916666666666,-0.33537037037037043],[-0.19197916666666662,-0.34870370370370374],[-0.18093750000000006,-0.3624074074074074],[-0.16343749999999999,-0.3492592592592593],[-0.14395833333333338,-0.3381481481481482],[-0.11947916666666672,-0.3225925925925926],[-0.08052083333333329,-0.3177777777777778],[-0.04833333333333331,-0.3225925925925926],[-0.016666666666666666,-0.32999999999999996],[-0.004999999999999952,-0.3435185185185185],[0.0002083333333333807,-0.33111111111111113],[0.003854166666666714,-0.3661111111111111],[0.002499999999999976,-0.4053703703703703],[-0.016770833333333356,-0.4227777777777778],[-0.04572916666666664,-0.4433333333333333],[-0.0625,-0.4557407407407408],[-0.07604166666666666,-0.45685185185185184],[-0.06802083333333328,-0.47444444444444445],[-0.05947916666666669,-0.48944444444444446],[-0.07218749999999995,-0.4988888888888888],[-0.09739583333333333,-0.5198148148148148],[-0.10750000000000005,-0.4951851851851851],[-0.11760416666666665,-0.4705555555555556],[-0.10083333333333329,-0.4448148148148148],[-0.08510416666666672,-0.4227777777777778],[-0.051041666666666666,-0.41444444444444445],[-0.07104166666666671,-0.43796296296296294],[-0.1063541666666667,-0.4396296296296296],[-0.1063541666666667,-0.4396296296296296],[-0.13770833333333338,-0.4368518518518518],[-0.14500000000000005,-0.4383333333333333],[-0.13510416666666672,-0.43870370370370365],[-0.1140625,-0.4383333333333333],[-0.09604166666666672,-0.4309259259259259],[-0.09791666666666667,-0.4322222222222222],[-0.17552083333333332,-0.4812962962962963],[-0.27374999999999994,-0.5151851851851852],[-0.28968750000000004,-0.5098148148148148],[-0.336875,-0.5425925925925926],[-0.37531249999999994,-0.5631481481481482],[-0.37531249999999994,-0.5631481481481482],[-0.41833333333333333,-0.6],[-0.50125,-0.6216666666666667],[-0.50125,-0.6216666666666667],[-0.5672916666666666,-0.6483333333333334],[-0.6290625,-0.6859259259259259]]","[[0.07083333333333333,0.45092592592592595,0.00019999999926767487],[0.07083333333333333,0.45092592592592595,0.04000000000000625],[0.06520833333333335,0.4624074074074075,0.05629999999888469],[0.06520833333333335,0.4624074074074075,0.07309999999962713],[0.05947916666666669,0.46296296296296297,0.08969999999925449],[0.04114583333333333,0.44759259259259265,0.11050000000000182],[0.035416666666666666,0.4411111111111112,0.12540000000038276],[0.034791666666666644,0.42314814814814816,0.14269999999926597],[0.04874999999999995,0.41944444444444445,0.15640000000037446],[0.05354166666666664,0.42407407407407405,0.17300000000000182],[0.03885416666666662,0.41444444444444434,0.189699999999263],[0.058541666666666714,0.40851851851851856,0.20640000000038583],[0.03187500000000002,0.3848148148148147,0.22309999999963281],[0.04125000000000002,0.3635185185185184,0.24200000000000443],[0.07854166666666676,0.3625925925925925,0.256400000000383],[0.12416666666666672,0.3675925925925926,0.27300000000001035],[0.1273958333333333,0.36740740740740735,0.28979999999889117],[0.15479166666666658,0.3653703703703703,0.3064999999999998],[0.1866666666666667,0.35648148148148145,0.3230000000000075],[0.21104166666666657,0.34685185185185174,0.3421999999992664],[0.19718749999999996,0.3622222222222223,0.35629999999888184],[0.17510416666666656,0.3675925925925926,0.37300000000000466],[0.16281249999999994,0.38074074074074077,0.38969999999926586],[0.1287499999999999,0.3998148148148148,0.40640000000037446],[0.04510416666666662,0.3824074074074074,0.4230000000000018],[0.04510416666666662,0.3824074074074074,0.439699999999263],[-0.03854166666666667,0.36500000000000005,0.45650000000000546],[-0.05625,0.33277777777777784,0.4754000000003771],[-0.11833333333333336,0.31870370370370377,0.4900999999996287],[-0.16593749999999996,0.3074074074074074,0.506400000000383],[-0.20020833333333338,0.29870370370370364,0.5230000000000103],[-0.19437500000000002,0.2735185185185186,0.5426999999992574],[-0.19145833333333329,0.2683333333333333,0.5562999999988847],[-0.16822916666666668,0.25833333333333336,0.5730000000000075],[-0.20989583333333334,0.24537037037037038,0.5896999999992545],[-0.2078125,0.26907407407407397,0.6062999999988818],[-0.17000000000000004,0.26648148148148143,0.6230999999996385],[-0.14072916666666668,0.2418518518518519,0.6435999999996369],[-0.10375000000000002,0.262037037037037,0.6569000000003768],[-0.10677083333333333,0.2803703703703703,0.6731999999992553],[-0.10208333333333333,0.3088888888888888,0.6900000000000119],[-0.09239583333333339,0.33481481481481473,0.7095999999996394],[-0.08822916666666672,0.3381481481481482,0.7239000000003841],[-0.07947916666666661,0.32685185185185184,0.7475000000000023],[-0.07947916666666661,0.32685185185185184,0.7566999999992561],[-0.005416666666666714,0.33425925925925926,0.7754000000003742],[0.05510416666666664,0.33648148148148155,0.7899000000003724],[0.0484375,0.3609259259259259,0.8065999999996336],[0.04614583333333329,0.40037037037037043,0.823199999999261],[0.04614583333333329,0.40037037037037043,0.8421999999992664],[0.03354166666666671,0.35537037037037034,0.8565000000000111],[0.03999999999999997,0.32092592592592584,0.8745000000000118],[0.05531250000000002,0.32111111111111107,0.8931999999992684],[0.027499999999999976,0.24388888888888896,0.9081999999992547],[0.013125000000000024,0.20500000000000007,0.9232999999988891],[0.013125000000000024,0.20500000000000007,0.9399000000003781],[-0.0171875,0.16222222222222227,0.9595000000000056],[-0.04114583333333333,0.1259259259259259,0.9746999999992596],[-0.07177083333333331,0.08222222222222218,0.991500000000002],[-0.07093750000000003,0.04259259259259259,1.0099000000003855],[-0.0765625,0.00722222222222218,1.0245999999996371],[-0.08062499999999997,0.007407407407407408,1.0430000000000064],[-0.08979166666666671,-0.005555555555555556,1.0620999999996315],[-0.1092708333333333,-0.04351851851851852,1.0757999999988925],[-0.12312500000000005,0.007037037037036953,1.0900999999996372],[-0.159375,0.032037037037036954,1.1111999999992577],[-0.14718749999999994,0.04277777777777782,1.1282999999988874],[-0.14718749999999994,0.04277777777777782,1.139900000000381],[-0.14677083333333332,0.049074074074074076,1.1567999999988956],[-0.14166666666666666,0.06277777777777774,1.1777999999988822],[-0.1720833333333334,0.07185185185185176,1.1930999999996317],[-0.20666666666666664,0.07759259259259255,1.2086999999992685],[-0.22250000000000003,0.07537037037037045,1.2231999999992667],[-0.24229166666666668,0.09537037037037037,1.2444000000003825],[-0.2655208333333333,0.07592592592592592,1.2590000000000003],[-0.2655208333333333,0.07592592592592592,1.27309999999963],[-0.2642708333333334,0.049629629629629544,1.2900000000000063],[-0.25114583333333335,0.0007407407407406986,1.3092999999988848],[-0.26458333333333334,0.009444444444444486,1.3230999999996271],[-0.25968749999999996,0.013518518518518435,1.3421999999992664],[-0.24739583333333334,0.017407407407407365,1.3564000000003773],[-0.24739583333333334,0.017407407407407365,1.3730999999996385],[-0.2015625,0.009814814814814731,1.3897999999988855],[-0.2015625,0.009814814814814731,1.4111999999992548],[-0.17062499999999994,0.01185185185185181,1.4231999999992553],[-0.17062499999999994,0.01185185185185181,1.440000000000012],[-0.17000000000000004,0.0011111111111111532,1.4656999999992593],[-0.17000000000000004,0.0011111111111111532,1.4731999999992667],[-0.1382291666666667,-0.028888888888888933,1.4899000000003753],[-0.12468750000000005,-0.04296296296296305,1.5116999999992657],[-0.12468750000000005,-0.04296296296296305,1.5232999999988834],[-0.0890625,-0.053148148148148125,1.5400000000000063],[-0.027291666666666714,-0.024814814814814772,1.565000000000012],[-0.027291666666666714,-0.024814814814814772,1.5732999999988948],[0.02833333333333338,-0.03037037037037033,1.5897999999988883],[0.02833333333333338,-0.03037037037037033,1.6065000000000111],[0.06270833333333338,-0.07166666666666664,1.6230000000000047],[0.06270833333333338,-0.07166666666666664,1.6396999999992659],[0.11218750000000005,-0.11740740740740736,1.659900000000377],[0.11218750000000005,-0.11740740740740736,1.6730999999996357],[0.10822916666666677,-0.15907407407407403,1.690000000000012],[0.10822916666666677,-0.15907407407407403,1.711500000000001],[0.14593749999999991,-0.15629629629629627,1.7231999999992667],[0.14593749999999991,-0.15629629629629627,1.740699999999265],[0.20166666666666658,-0.12851851851851848,1.7596999999992562],[0.23083333333333325,-0.1227777777777778,1.7757999999988954],[0.27197916666666655,-0.11129629629629634,1.7900000000000063],[0.2808333333333332,-0.1051851851851852,1.8065999999996336],[0.29375,-0.09240740740740737,1.827099999999632],[0.29375,-0.09240740740740737,1.8399000000003838],[0.30708333333333326,-0.09166666666666666,1.8565000000000111],[0.32833333333333337,-0.06833333333333329,1.877400000000378],[0.33447916666666655,-0.04296296296296305,1.893500000000003],[0.36208333333333326,0.0016666666666666245,1.9097999999988957],[0.34385416666666657,0.018518518518518517,1.928799999998887],[0.34385416666666657,0.018518518518518517,1.939900000000378],[0.3654166666666666,0.00592592592592601,1.9565999999996393],[0.3946875000000001,0.0198148148148149,1.9731999999992667],[0.4161458333333333,0.02370370370370362,1.9920999999996383],[0.47322916666666665,0.03148148148148148,2.0065000000000026],[0.4861458333333334,0.007407407407407408,2.023199999999264],[0.4942708333333333,0.004444444444444402,2.0429000000003725],[0.49937500000000007,0.018888888888888972,2.0620999999996315],[0.49937500000000007,0.018888888888888972,2.0811999999992565],[0.490625,0.03148148148148148,2.0975999999996304],[0.490625,0.03148148148148148,2.106500000000011],[0.490625,0.06537037037037029,2.123199999999258],[0.5273958333333333,0.07148148148148152,2.1436999999992565],[0.5190625,0.10944444444444448,2.1591999999992595],[0.5297916666666665,0.14351851851851852,2.1731999999992553],[0.5145833333333333,0.18555555555555564,2.1897999999988826],[0.48197916666666674,0.22351851851851862,2.2065000000000055],[0.4646874999999999,0.27314814814814814,2.226099999999633],[0.4743750000000001,0.32333333333333336,2.2429000000003754],[0.4790625000000001,0.34574074074074085,2.2569000000003854],[0.4818749999999999,0.3668518518518519,2.27309999999963],[0.5076041666666666,0.3798148148148149,2.2896999999992573],[0.46843750000000006,0.3972222222222222,2.308599999999629],[0.47208333333333335,0.40259259259259256,2.323199999999261],[0.4192708333333333,0.38055555555555554,2.3417999999988837],[0.39781250000000007,0.3566666666666667,2.3595000000000113],[0.3763541666666666,0.33277777777777784,2.3730000000000047],[0.3922916666666666,0.33555555555555566,2.391699999999261],[0.3810416666666666,0.3448148148148149,2.4064000000003745],[0.3614583333333333,0.34962962962962957,2.423000000000002],[0.34375,0.3557407407407408,2.4425000000000097],[0.3325000000000001,0.3416666666666667,2.4562999999988904],[0.36843750000000003,0.32462962962962955,2.4729000000003794],[0.3601041666666667,0.32629629629629636,2.48969999999926],[0.3601041666666667,0.32629629629629636,2.506400000000383],[0.38916666666666655,0.3592592592592593,2.5230000000000103],[0.4147916666666667,0.35,2.5424000000003844],[0.42385416666666675,0.34981481481481475,2.5562999999988847],[0.39114583333333336,0.3224074074074075,2.5730000000000075],[0.38614583333333335,0.32333333333333336,2.592000000000013],[0.41385416666666663,0.330925925925926,2.606299999998882],[0.4102083333333333,0.3235185185185186,2.6237999999988944],[0.4023958333333333,0.31592592592592594,2.639599999999632],[0.3923958333333334,0.31129629629629635,2.6585000000000036],[0.4174999999999999,0.29981481481481476,2.6736999999992577],[0.4388541666666666,0.2992592592592593,2.689900000000378],[0.48072916666666665,0.3698148148148149,2.706400000000386],[0.5245833333333333,0.405925925925926,2.725500000000011],[0.5896874999999999,0.4196296296296297,2.747],[0.5896874999999999,0.4196296296296297,2.756400000000383],[0.6331249999999999,0.40185185185185185,2.7750999999996395],[0.6208333333333333,0.4027777777777778,2.7895999999996377],[0.6398958333333333,0.41870370370370374,2.80640000000038],[0.6744791666666666,0.42481481481481476,2.823199999999261],[0.6973958333333333,0.427962962962963,2.843299999998891],[0.7014583333333334,0.4257407407407407,2.8581999999992576],[0.7092708333333334,0.4125925925925925,2.873199999999258],[0.7099999999999999,0.38203703703703695,2.889599999999632],[0.7253124999999999,0.3768518518518518,2.906299999998893],[0.725,0.3761111111111112,2.923000000000002],[0.7188541666666666,0.3714814814814815,2.9415999999996387],[0.7469791666666665,0.3537037037037037,2.956400000000386],[0.779375,0.3531481481481482,2.973000000000013],[0.8008333333333333,0.35351851851851845,2.98969999999926],[0.8361458333333334,0.3538888888888889,3.0062999999988875],[0.8615624999999999,0.3522222222222223,3.0230000000000103],[0.8869791666666667,0.35055555555555545,3.04309999999964],[0.8932291666666666,0.34203703703703714,3.0562999999988847],[0.8994791666666667,0.33351851851851855,3.0730000000000075],[0.9066666666666667,0.34333333333333327,3.0896999999992545],[0.9232291666666667,0.3314814814814815,3.1066999999992646],[0.9448958333333333,0.32222222222222224,3.1230999999996385],[0.9448958333333333,0.32222222222222224,3.139599999999632],[0.946875,0.2972222222222222,3.156299999998893],[0.9494791666666667,0.27833333333333327,3.173000000000002],[0.9599999999999999,0.244074074074074,3.189599999999629],[0.9565625,0.21203703703703702,3.2062999999988904],[0.9807291666666667,0.18648148148148155,3.223000000000013],[0.9807291666666667,0.18648148148148155,3.23969999999926],[1.0079166666666666,0.16648148148148145,3.2562999999988875],[1.0079166666666666,0.15555555555555556,3.27309999999963],[1.0084374999999999,0.12851851851851848,3.2920000000000016],[1.0084374999999999,0.12851851851851848,3.3062999999988847],[0.9633333333333333,0.1287037037037037,3.3230000000000075],[0.9633333333333333,0.1287037037037037,3.3396999999992545],[0.9455208333333334,0.11796296296296305,3.3564000000003773],[0.9276041666666667,0.09592592592592585,3.3730000000000047],[0.9054166666666668,0.0868518518518518,3.389599999999632],[0.8820833333333333,0.10407407407407415,3.4064000000003745],[0.8478125000000001,0.11055555555555564,3.423000000000002],[0.7964583333333333,0.11129629629629634,3.443699999999268],[0.7719791666666665,0.13796296296296295,3.4565000000000055],[0.7695833333333333,0.15685185185185194,3.473099999999633],[0.7548958333333334,0.1725925925925927,3.490000000000009],[0.7908333333333334,0.19592592592592584,3.509400000000383],[0.7688541666666666,0.23277777777777786,3.5232999999988834],[0.7688541666666666,0.23277777777777786,3.539799999998891],[0.7670833333333335,0.2875925925925925,3.5564999999999998],[0.7670833333333335,0.2875925925925925,3.576299999998895],[0.7633333333333333,0.3072222222222222,3.589900000000384],[0.7633333333333333,0.3072222222222222,3.606500000000011],[0.7623958333333334,0.31074074074074065,3.6230000000000047],[0.7623958333333334,0.31074074074074065,3.639599999999632],[0.7775000000000001,0.33537037037037043,3.656299999998893],[0.7775000000000001,0.33537037037037043,3.673000000000002],[0.7533333333333334,0.34388888888888897,3.689699999999263],[0.7533333333333334,0.34388888888888897,3.7062999999988904],[0.7201041666666667,0.3007407407407407,3.723000000000013],[0.7201041666666667,0.3007407407407407,3.7395999999996405],[0.6873958333333334,0.2627777777777777,3.7569000000003854],[0.6873958333333334,0.2627777777777777,3.7730000000000103],[0.6460416666666667,0.25574074074074077,3.789799999998891],[0.6460416666666667,0.25574074074074077,3.8062999999988847],[0.6089583333333333,0.23259259259259263,3.8230000000000075],[0.6089583333333333,0.23259259259259263,3.8396999999992545],[0.5806250000000001,0.244074074074074,3.8614000000003728],[0.5806250000000001,0.244074074074074,3.8730999999996385],[0.5419791666666666,0.24462962962962967,3.8897999999988855],[0.5223958333333333,0.2490740740740741,3.9110000000000014],[0.5223958333333333,0.2490740740740741,3.9230999999996357],[0.5057291666666667,0.26722222222222214,3.9397999999988826],[0.5057291666666667,0.26722222222222214,3.956400000000386],[0.49239583333333337,0.28722222222222227,3.9761999999992668],[0.5002083333333334,0.30907407407407406,3.990299999998882],[0.5054166666666667,0.3392592592592593,4.006500000000003],[0.5094791666666666,0.3698148148148149,4.0229000000003765],[0.5273958333333333,0.3883333333333334,4.043000000000006],[0.5318749999999999,0.4046296296296296,4.057799999998892],[0.5385416666666667,0.39444444444444443,4.075199999999256],[0.5507291666666667,0.40018518518518525,4.089599999999635],[0.5448958333333332,0.4270370370370371,4.106500000000011],[0.5365624999999999,0.40851851851851856,4.122900000000385],[0.5277083333333332,0.3764814814814814,4.14209999999963],[0.5094791666666666,0.37333333333333335,4.156299999998893],[0.49156250000000007,0.4148148148148148,4.173000000000002],[0.47802083333333345,0.41462962962962957,4.189900000000378],[0.4814583333333334,0.405925925925926,4.20629999999889],[0.4853125000000001,0.4103703703703704,4.223000000000013],[0.4926041666666668,0.40981481481481474,4.243199999999263],[0.5,0.3961111111111111,4.2565999999996365],[0.5073958333333333,0.3824074074074074,4.275500000000008],[0.5033333333333334,0.3962962962962963,4.29009999999964],[0.5209374999999999,0.42777777777777776,4.307699999999258],[0.5629166666666667,0.4364814814814816,4.327900000000383],[0.5629166666666667,0.4364814814814816,4.339900000000384],[0.5768749999999999,0.40314814814814826,4.356500000000011],[0.5970833333333334,0.4016666666666666,4.373199999999258],[0.5637500000000001,0.4107407407407407,4.396000000000001],[0.5520833333333334,0.402962962962963,4.40909999999964],[0.5620833333333333,0.36814814814814806,4.423000000000002],[0.5620833333333333,0.36814814814814806,4.439799999998883],[0.5692708333333333,0.3301851851851851,4.460099999999628],[0.5692708333333333,0.3301851851851851,4.473099999999633],[0.5532291666666665,0.2655555555555555,4.489900000000375],[0.5532291666666665,0.2655555555555555,4.508699999999266],[0.5214583333333332,0.2140740740740741,4.52309999999963],[0.46812500000000007,0.14333333333333328,4.542500000000004],[0.4147916666666667,0.09074074074074075,4.556299999998885],[0.39385416666666656,0.057037037037036956,4.57529999999889],[0.3341666666666666,-0.018888888888888972,4.5896999999992545],[0.31104166666666655,-0.11148148148148146,4.606500000000011],[0.2771874999999999,-0.20240740740740742,4.627199999999263],[0.2265625,-0.25574074074074077,4.643900000000386],[0.1787499999999999,-0.3059259259259259,4.659000000000006],[0.1502083333333334,-0.32518518518518524,4.676500000000004],[0.13135416666666658,-0.3661111111111111,4.689799999998883],[0.1099999999999999,-0.4096296296296296,4.708000000000013],[0.06364583333333336,-0.47074074074074074,4.723000000000013],[0.01895833333333338,-0.5366666666666667,4.741900000000385],[0.008124999999999953,-0.5574074074074075,4.758500000000012],[0.0171875,-0.5164814814814814,4.7762999999988835],[0.01270833333333338,-0.49537037037037035,4.790000000000006],[0.019583333333333286,-0.4905555555555555,4.806299999998885],[0.0016666666666666904,-0.4624074074074074,4.8230000000000075],[-0.0010416666666666667,-0.4705555555555556,4.840799999998893],[0.010104166666666714,-0.42685185185185187,4.856400000000377],[0.020833333333333332,-0.39240740740740737,4.873000000000005],[0.05520833333333333,-0.33537037037037043,4.889599999999632],[0.08093750000000005,-0.285,4.908500000000004],[0.08791666666666677,-0.24203703703703702,4.923000000000002],[0.05770833333333331,-0.24148148148148144,4.942000000000007],[0.01885416666666669,-0.2531481481481481,4.959699999999259],[-0.01229166666666662,-0.2596296296296296,4.9750000000000085],[-0.021249999999999977,-0.28777777777777774,4.9895999999996405],[-0.05593750000000005,-0.27314814814814814,5.0062999999988875],[-0.09666666666666662,-0.2887037037037037,5.0229000000003765],[-0.1345833333333334,-0.29074074074074074,5.042199999999255],[-0.16135416666666663,-0.3037037037037037,5.061599999999629],[-0.18072916666666666,-0.33537037037037043,5.076400000000376],[-0.19197916666666662,-0.34870370370370374,5.090900000000374],[-0.18093750000000006,-0.3624074074074074,5.106599999999631],[-0.16343749999999999,-0.3492592592592593,5.123000000000005],[-0.14395833333333338,-0.3381481481481482,5.14200000000001],[-0.11947916666666672,-0.3225925925925926,5.1564000000003745],[-0.08052083333333329,-0.3177777777777778,5.172900000000382],[-0.04833333333333331,-0.3225925925925926,5.189599999999629],[-0.016666666666666666,-0.32999999999999996,5.20629999999889],[-0.004999999999999952,-0.3435185185185185,5.222900000000379],[0.0002083333333333807,-0.33111111111111113,5.244299999998887],[0.003854166666666714,-0.3661111111111111,5.258799999998885],[0.002499999999999976,-0.4053703703703703,5.273500000000013],[-0.016770833333333356,-0.4227777777777778,5.289900000000372],[-0.04572916666666664,-0.4433333333333333,5.309699999999268],[-0.0625,-0.4557407407407408,5.325699999999259],[-0.07604166666666666,-0.45685185185185184,5.343299999998891],[-0.06802083333333328,-0.47444444444444445,5.356699999999265],[-0.05947916666666669,-0.48944444444444446,5.373000000000005],[-0.07218749999999995,-0.4988888888888888,5.389599999999632],[-0.09739583333333333,-0.5198148148148148,5.406299999998893],[-0.10750000000000005,-0.4951851851851851,5.423000000000002],[-0.11760416666666665,-0.4705555555555556,5.442199999999261],[-0.10083333333333329,-0.4448148148148148,5.45629999999889],[-0.08510416666666672,-0.4227777777777778,5.472900000000379],[-0.051041666666666666,-0.41444444444444445,5.48969999999926],[-0.07104166666666671,-0.43796296296296294,5.509],[-0.1063541666666667,-0.4396296296296296,5.52300000000001],[-0.1063541666666667,-0.4396296296296296,5.539699999999257],[-0.13770833333333338,-0.4368518518518518,5.556299999998885],[-0.14500000000000005,-0.4383333333333333,5.5730000000000075],[-0.13510416666666672,-0.43870370370370365,5.592299999998886],[-0.1140625,-0.4383333333333333,5.606299999998882],[-0.09604166666666672,-0.4309259259259259,5.622900000000385],[-0.09791666666666667,-0.4322222222222222,5.642799999998886],[-0.17552083333333332,-0.4812962962962963,5.656500000000008],[-0.27374999999999994,-0.5151851851851852,5.673000000000002],[-0.28968750000000004,-0.5098148148148148,5.689599999999629],[-0.336875,-0.5425925925925926,5.70629999999889],[-0.37531249999999994,-0.5631481481481482,5.722900000000379],[-0.37531249999999994,-0.5631481481481482,5.73969999999926],[-0.41833333333333333,-0.6,5.75679999999889],[-0.50125,-0.6216666666666667,5.777799999998891],[-0.50125,-0.6216666666666667,5.789599999999638],[-0.5672916666666666,-0.6483333333333334,5.806299999998885],[-0.6290625,-0.6859259259259259,5.828699999999259]]","[0.00019999999926767487,0.04000000000000625,0.05629999999888469,0.07309999999962713,0.08969999999925449,0.11050000000000182,0.12540000000038276,0.14269999999926597,0.15640000000037446,0.17300000000000182,0.189699999999263,0.20640000000038583,0.22309999999963281,0.24200000000000443,0.256400000000383,0.27300000000001035,0.28979999999889117,0.3064999999999998,0.3230000000000075,0.3421999999992664,0.35629999999888184,0.37300000000000466,0.38969999999926586,0.40640000000037446,0.4230000000000018,0.439699999999263,0.45650000000000546,0.4754000000003771,0.4900999999996287,0.506400000000383,0.5230000000000103,0.5426999999992574,0.5562999999988847,0.5730000000000075,0.5896999999992545,0.6062999999988818,0.6230999999996385,0.6435999999996369,0.6569000000003768,0.6731999999992553,0.6900000000000119,0.7095999999996394,0.7239000000003841,0.7475000000000023,0.7566999999992561,0.7754000000003742,0.7899000000003724,0.8065999999996336,0.823199999999261,0.8421999999992664,0.8565000000000111,0.8745000000000118,0.8931999999992684,0.9081999999992547,0.9232999999988891,0.9399000000003781,0.9595000000000056,0.9746999999992596,0.991500000000002,1.0099000000003855,1.0245999999996371,1.0430000000000064,1.0620999999996315,1.0757999999988925,1.0900999999996372,1.1111999999992577,1.1282999999988874,1.139900000000381,1.1567999999988956,1.1777999999988822,1.1930999999996317,1.2086999999992685,1.2231999999992667,1.2444000000003825,1.2590000000000003,1.27309999999963,1.2900000000000063,1.3092999999988848,1.3230999999996271,1.3421999999992664,1.3564000000003773,1.3730999999996385,1.3897999999988855,1.4111999999992548,1.4231999999992553,1.440000000000012,1.4656999999992593,1.4731999999992667,1.4899000000003753,1.5116999999992657,1.5232999999988834,1.5400000000000063,1.565000000000012,1.5732999999988948,1.5897999999988883,1.6065000000000111,1.6230000000000047,1.6396999999992659,1.659900000000377,1.6730999999996357,1.690000000000012,1.711500000000001,1.7231999999992667,1.740699999999265,1.7596999999992562,1.7757999999988954,1.7900000000000063,1.8065999999996336,1.827099999999632,1.8399000000003838,1.8565000000000111,1.877400000000378,1.893500000000003,1.9097999999988957,1.928799999998887,1.939900000000378,1.9565999999996393,1.9731999999992667,1.9920999999996383,2.0065000000000026,2.023199999999264,2.0429000000003725,2.0620999999996315,2.0811999999992565,2.0975999999996304,2.106500000000011,2.123199999999258,2.1436999999992565,2.1591999999992595,2.1731999999992553,2.1897999999988826,2.2065000000000055,2.226099999999633,2.2429000000003754,2.2569000000003854,2.27309999999963,2.2896999999992573,2.308599999999629,2.323199999999261,2.3417999999988837,2.3595000000000113,2.3730000000000047,2.391699999999261,2.4064000000003745,2.423000000000002,2.4425000000000097,2.4562999999988904,2.4729000000003794,2.48969999999926,2.506400000000383,2.5230000000000103,2.5424000000003844,2.5562999999988847,2.5730000000000075,2.592000000000013,2.606299999998882,2.6237999999988944,2.639599999999632,2.6585000000000036,2.6736999999992577,2.689900000000378,2.706400000000386,2.725500000000011,2.747,2.756400000000383,2.7750999999996395,2.7895999999996377,2.80640000000038,2.823199999999261,2.843299999998891,2.8581999999992576,2.873199999999258,2.889599999999632,2.906299999998893,2.923000000000002,2.9415999999996387,2.956400000000386,2.973000000000013,2.98969999999926,3.0062999999988875,3.0230000000000103,3.04309999999964,3.0562999999988847,3.0730000000000075,3.0896999999992545,3.1066999999992646,3.1230999999996385,3.139599999999632,3.156299999998893,3.173000000000002,3.189599999999629,3.2062999999988904,3.223000000000013,3.23969999999926,3.2562999999988875,3.27309999999963,3.2920000000000016,3.3062999999988847,3.3230000000000075,3.3396999999992545,3.3564000000003773,3.3730000000000047,3.389599999999632,3.4064000000003745,3.423000000000002,3.443699999999268,3.4565000000000055,3.473099999999633,3.490000000000009,3.509400000000383,3.5232999999988834,3.539799999998891,3.5564999999999998,3.576299999998895,3.589900000000384,3.606500000000011,3.6230000000000047,3.639599999999632,3.656299999998893,3.673000000000002,3.689699999999263,3.7062999999988904,3.723000000000013,3.7395999999996405,3.7569000000003854,3.7730000000000103,3.789799999998891,3.8062999999988847,3.8230000000000075,3.8396999999992545,3.8614000000003728,3.8730999999996385,3.8897999999988855,3.9110000000000014,3.9230999999996357,3.9397999999988826,3.956400000000386,3.9761999999992668,3.990299999998882,4.006500000000003,4.0229000000003765,4.043000000000006,4.057799999998892,4.075199999999256,4.089599999999635,4.106500000000011,4.122900000000385,4.14209999999963,4.156299999998893,4.173000000000002,4.189900000000378,4.20629999999889,4.223000000000013,4.243199999999263,4.2565999999996365,4.275500000000008,4.29009999999964,4.307699999999258,4.327900000000383,4.339900000000384,4.356500000000011,4.373199999999258,4.396000000000001,4.40909999999964,4.423000000000002,4.439799999998883,4.460099999999628,4.473099999999633,4.489900000000375,4.508699999999266,4.52309999999963,4.542500000000004,4.556299999998885,4.57529999999889,4.5896999999992545,4.606500000000011,4.627199999999263,4.643900000000386,4.659000000000006,4.676500000000004,4.689799999998883,4.708000000000013,4.723000000000013,4.741900000000385,4.758500000000012,4.7762999999988835,4.790000000000006,4.806299999998885,4.8230000000000075,4.840799999998893,4.856400000000377,4.873000000000005,4.889599999999632,4.908500000000004,4.923000000000002,4.942000000000007,4.959699999999259,4.9750000000000085,4.9895999999996405,5.0062999999988875,5.0229000000003765,5.042199999999255,5.061599999999629,5.076400000000376,5.090900000000374,5.106599999999631,5.123000000000005,5.14200000000001,5.1564000000003745,5.172900000000382,5.189599999999629,5.20629999999889,5.222900000000379,5.244299999998887,5.258799999998885,5.273500000000013,5.289900000000372,5.309699999999268,5.325699999999259,5.343299999998891,5.356699999999265,5.373000000000005,5.389599999999632,5.406299999998893,5.423000000000002,5.442199999999261,5.45629999999889,5.472900000000379,5.48969999999926,5.509,5.52300000000001,5.539699999999257,5.556299999998885,5.5730000000000075,5.592299999998886,5.606299999998882,5.622900000000385,5.642799999998886,5.656500000000008,5.673000000000002,5.689599999999629,5.70629999999889,5.722900000000379,5.73969999999926,5.75679999999889,5.777799999998891,5.789599999999638,5.806299999998885,5.828699999999259]","[1733123921275,1733123921307,1733123921323,1733123921340,1733123921357,1733123921378,1733123921392,1733123921410,1733123921423,1733123921440,1733123921457,1733123921473,1733123921490,1733123921509,1733123921523,1733123921540,1733123921557,1733123921573,1733123921590,1733123921609,1733123921623,1733123921640,1733123921657,1733123921673,1733123921690,1733123921707,1733123921724,1733123921742,1733123921757,1733123921773,1733123921790,1733123921810,1733123921823,1733123921840,1733123921857,1733123921873,1733123921890,1733123921911,1733123921924,1733123921940,1733123921957,1733123921977,1733123921991,1733123922015,1733123922024,1733123922042,1733123922057,1733123922074,1733123922090,1733123922109,1733123922124,1733123922142,1733123922160,1733123922175,1733123922190,1733123922207,1733123922227,1733123922242,1733123922259,1733123922277,1733123922292,1733123922310,1733123922329,1733123922343,1733123922357,1733123922378,1733123922395,1733123922407,1733123922424,1733123922445,1733123922460,1733123922476,1733123922490,1733123922511,1733123922526,1733123922540,1733123922557,1733123922576,1733123922590,1733123922609,1733123922623,1733123922640,1733123922657,1733123922678,1733123922690,1733123922707,1733123922733,1733123922740,1733123922757,1733123922779,1733123922790,1733123922807,1733123922832,1733123922840,1733123922857,1733123922873,1733123922890,1733123922907,1733123922927,1733123922940,1733123922957,1733123922979,1733123922990,1733123923008,1733123923027,1733123923043,1733123923057,1733123923074,1733123923094,1733123923107,1733123923124,1733123923144,1733123923161,1733123923177,1733123923196,1733123923207,1733123923224,1733123923240,1733123923259,1733123923274,1733123923290,1733123923310,1733123923329,1733123923348,1733123923365,1733123923374,1733123923390,1733123923411,1733123923426,1733123923440,1733123923457,1733123923474,1733123923493,1733123923510,1733123923524,1733123923540,1733123923557,1733123923576,1733123923590,1733123923609,1733123923626,1733123923640,1733123923659,1733123923673,1733123923690,1733123923710,1733123923723,1733123923740,1733123923757,1733123923773,1733123923790,1733123923809,1733123923823,1733123923840,1733123923859,1733123923873,1733123923891,1733123923907,1733123923925,1733123923941,1733123923957,1733123923973,1733123923993,1733123924014,1733123924023,1733123924042,1733123924057,1733123924073,1733123924090,1733123924110,1733123924125,1733123924140,1733123924157,1733123924173,1733123924190,1733123924209,1733123924223,1733123924240,1733123924257,1733123924273,1733123924290,1733123924310,1733123924323,1733123924340,1733123924357,1733123924374,1733123924390,1733123924407,1733123924423,1733123924440,1733123924457,1733123924473,1733123924490,1733123924507,1733123924523,1733123924540,1733123924559,1733123924573,1733123924590,1733123924607,1733123924623,1733123924640,1733123924657,1733123924673,1733123924690,1733123924711,1733123924724,1733123924740,1733123924757,1733123924776,1733123924790,1733123924807,1733123924823,1733123924843,1733123924857,1733123924874,1733123924890,1733123924907,1733123924923,1733123924940,1733123924957,1733123924973,1733123924990,1733123925007,1733123925024,1733123925040,1733123925057,1733123925073,1733123925090,1733123925107,1733123925128,1733123925140,1733123925157,1733123925178,1733123925190,1733123925207,1733123925224,1733123925243,1733123925257,1733123925273,1733123925290,1733123925310,1733123925325,1733123925342,1733123925357,1733123925374,1733123925390,1733123925409,1733123925423,1733123925440,1733123925457,1733123925473,1733123925490,1733123925510,1733123925524,1733123925543,1733123925557,1733123925575,1733123925595,1733123925607,1733123925623,1733123925640,1733123925663,1733123925676,1733123925690,1733123925707,1733123925727,1733123925740,1733123925757,1733123925776,1733123925790,1733123925810,1733123925823,1733123925842,1733123925857,1733123925873,1733123925894,1733123925911,1733123925926,1733123925944,1733123925957,1733123925975,1733123925990,1733123926009,1733123926026,1733123926043,1733123926057,1733123926073,1733123926090,1733123926108,1733123926123,1733123926140,1733123926157,1733123926176,1733123926190,1733123926209,1733123926227,1733123926242,1733123926257,1733123926273,1733123926290,1733123926309,1733123926329,1733123926343,1733123926358,1733123926374,1733123926390,1733123926409,1733123926423,1733123926440,1733123926457,1733123926473,1733123926490,1733123926511,1733123926526,1733123926541,1733123926557,1733123926577,1733123926593,1733123926610,1733123926624,1733123926640,1733123926657,1733123926673,1733123926690,1733123926709,1733123926723,1733123926740,1733123926757,1733123926776,1733123926790,1733123926807,1733123926823,1733123926840,1733123926859,1733123926873,1733123926890,1733123926910,1733123926923,1733123926940,1733123926957,1733123926973,1733123926990,1733123927007,1733123927024,1733123927045,1733123927057,1733123927073,1733123927096]","[[1028,783.5],[1028,783.5],[1022.6,789.7],[1022.6,789.7],[1017.1,790],[999.5,781.7],[994,778.2],[993.4,768.5],[1006.8,766.5],[1011.4,769],[997.3,763.8],[1016.2,760.6],[990.6,747.8],[999.6,736.3],[1035.4,735.8],[1079.2,738.5],[1082.3,738.4],[1108.6,737.3],[1139.2,732.5],[1162.6,727.3],[1149.3,735.6],[1128.1,738.5],[1116.3,745.6],[1083.6,755.9],[1003.3,746.5],[1003.3,746.5],[923,737.1],[906,719.7],[846.4,712.1],[800.7,706],[767.8,701.3],[773.4,687.7],[776.2,684.9],[798.5,679.5],[758.5,672.5],[760.5,685.3],[796.8,683.9],[824.9,670.6],[860.4,681.5],[857.5,691.4],[862,706.8],[871.3,720.8],[875.3,722.6],[883.7,716.5],[883.7,716.5],[954.8,720.5],[1012.9,721.7],[1006.5,734.9],[1004.3,756.2],[1004.3,756.2],[992.2,731.9],[998.4,713.3],[1013.1,713.4],[986.4,671.7],[972.6,650.7],[972.6,650.7],[943.5,627.6],[920.5,608],[891.1,584.4],[891.9,563],[886.5,543.9],[882.6,544],[873.8,537],[855.1,516.5],[841.8,543.8],[807,557.3],[818.7,563.1],[818.7,563.1],[819.1,566.5],[824,573.9],[794.8,578.8],[761.6,581.9],[746.4,580.7],[727.4,591.5],[705.1,581],[705.1,581],[706.3,566.8],[718.9,540.4],[706,545.1],[710.7,547.3],[722.5,549.4],[722.5,549.4],[766.5,545.3],[766.5,545.3],[796.2,546.4],[796.2,546.4],[796.8,540.6],[796.8,540.6],[827.3,524.4],[840.3,516.8],[840.3,516.8],[874.5,511.3],[933.8,526.6],[933.8,526.6],[987.2,523.6],[987.2,523.6],[1020.2,501.3],[1020.2,501.3],[1067.7,476.6],[1067.7,476.6],[1063.9,454.1],[1063.9,454.1],[1100.1,455.6],[1100.1,455.6],[1153.6,470.6],[1181.6,473.7],[1221.1,479.9],[1229.6,483.2],[1242,490.1],[1242,490.1],[1254.8,490.5],[1275.2,503.1],[1281.1,516.8],[1307.6,540.9],[1290.1,550],[1290.1,550],[1310.8,543.2],[1338.9,550.7],[1359.5,552.8],[1414.3,557],[1426.7,544],[1434.5,542.4],[1439.4,550.2],[1439.4,550.2],[1431,557],[1431,557],[1431,575.3],[1466.3,578.6],[1458.3,599.1],[1468.6,617.5],[1454,640.2],[1422.7,660.7],[1406.1,687.5],[1415.4,714.6],[1419.9,726.7],[1422.6,738.1],[1447.3,745.1],[1409.7,754.5],[1413.2,757.4],[1362.5,745.5],[1341.9,732.6],[1321.3,719.7],[1336.6,721.2],[1325.8,726.2],[1307,728.8],[1290,732.1],[1279.2,724.5],[1313.7,715.3],[1305.7,716.2],[1305.7,716.2],[1333.6,734],[1358.2,729],[1366.9,728.9],[1335.5,714.1],[1330.7,714.6],[1357.3,718.7],[1353.8,714.7],[1346.3,710.6],[1336.7,708.1],[1360.8,701.9],[1381.3,701.6],[1421.5,739.7],[1463.6,759.2],[1526.1,766.6],[1526.1,766.6],[1567.8,757],[1556,757.5],[1574.3,766.1],[1607.5,769.4],[1629.5,771.1],[1633.4,769.9],[1640.9,762.8],[1641.6,746.3],[1656.3,743.5],[1656,743.1],[1650.1,740.6],[1677.1,731],[1708.2,730.7],[1728.8,730.9],[1762.7,731.1],[1787.1,730.2],[1811.5,729.3],[1817.5,724.7],[1823.5,720.1],[1830.4,725.4],[1846.3,719],[1867.1,714],[1867.1,714],[1869,700.5],[1871.5,690.3],[1881.6,671.8],[1878.3,654.5],[1901.5,640.7],[1901.5,640.7],[1927.6,629.9],[1927.6,624],[1928.1,609.4],[1928.1,609.4],[1884.8,609.5],[1884.8,609.5],[1867.7,603.7],[1850.5,591.8],[1829.2,586.9],[1806.8,596.2],[1773.9,599.7],[1724.6,600.1],[1701.1,614.5],[1698.8,624.7],[1684.7,633.2],[1719.2,645.8],[1698.1,665.7],[1698.1,665.7],[1696.4,695.3],[1696.4,695.3],[1692.8,705.9],[1692.8,705.9],[1691.9,707.8],[1691.9,707.8],[1706.4,721.1],[1706.4,721.1],[1683.2,725.7],[1683.2,725.7],[1651.3,702.4],[1651.3,702.4],[1619.9,681.9],[1619.9,681.9],[1580.2,678.1],[1580.2,678.1],[1544.6,665.6],[1544.6,665.6],[1517.4,671.8],[1517.4,671.8],[1480.3,672.1],[1461.5,674.5],[1461.5,674.5],[1445.5,684.3],[1445.5,684.3],[1432.7,695.1],[1440.2,706.9],[1445.2,723.2],[1449.1,739.7],[1466.3,749.7],[1470.6,758.5],[1477,753],[1488.7,756.1],[1483.1,770.6],[1475.1,760.6],[1466.6,743.3],[1449.1,741.6],[1431.9,764],[1418.9,763.9],[1422.2,759.2],[1425.9,761.6],[1432.9,761.3],[1440,753.9],[1447.1,746.5],[1443.2,754],[1460.1,771],[1500.4,775.7],[1500.4,775.7],[1513.8,757.7],[1533.2,756.9],[1501.2,761.8],[1490,757.6],[1499.6,738.8],[1499.6,738.8],[1506.5,718.3],[1506.5,718.3],[1491.1,683.4],[1491.1,683.4],[1460.6,655.6],[1409.4,617.4],[1358.2,589],[1338.1,570.8],[1280.8,529.8],[1258.6,479.8],[1226.1,430.7],[1177.5,401.9],[1131.6,374.8],[1104.2,364.4],[1086.1,342.3],[1065.6,318.8],[1021.1,285.8],[978.2,250.2],[967.8,239],[976.5,261.1],[972.2,272.5],[978.8,275.1],[961.6,290.3],[959,285.9],[969.7,309.5],[980,328.1],[1013,358.9],[1037.7,386.1],[1044.4,409.3],[1015.4,409.6],[978.1,403.3],[948.2,399.8],[939.6,384.6],[906.3,392.5],[867.2,384.1],[830.8,383],[805.1,376],[786.5,358.9],[775.7,351.7],[786.3,344.3],[803.1,351.4],[821.8,357.4],[845.3,365.8],[882.7,368.4],[913.6,365.8],[944,361.8],[955.2,354.5],[960.2,361.2],[963.7,342.3],[962.4,321.1],[943.9,311.7],[916.1,300.6],[900,293.9],[887,293.3],[894.7,283.8],[902.9,275.7],[890.7,270.6],[866.5,259.3],[856.8,272.6],[847.1,285.9],[863.2,299.8],[878.3,311.7],[911,316.2],[891.8,303.5],[857.9,302.6],[857.9,302.6],[827.8,304.1],[820.8,303.3],[830.3,303.1],[850.5,303.3],[867.8,307.3],[866,306.6],[791.5,280.1],[697.2,261.8],[681.9,264.7],[636.6,247],[599.7,235.9],[599.7,235.9],[558.4,216],[478.8,204.3],[478.8,204.3],[415.4,189.9],[356.1,169.6]]","[0,0.5333]","[0.5333,0.5333]","[-0.5333,-0.5333]","[-0.5333,0]","[0,-0.5333]","[0.5333,-0.5333]","[0,0]","[0.5333,0]",0,0,0,0,1,3,Monitor,11,9,9,1
