inst1_resp.keys,inst1_resp.rt,calibrationMouse.x,calibrationMouse.y,calibrationMouse.leftButton,calibrationMouse.midButton,calibrationMouse.rightButton,calibrationClick.x,calibrationClick.y,calibrationClick.leftButton,calibrationClick.midButton,calibrationClick.rightButton,calibrationClick.clicked_name,trialsc.thisRepN,trialsc.thisTrialN,trialsc.thisN,trialsc.thisIndex,trialsc.ran,calibration_x,calibration_y,participant,session,date,expName,psychopyVersion,OS,frameRate,ScreenRes_pixels,Camera_pixels,mouse_2.x,mouse_2.y,mouse_2.leftButton,mouse_2.midButton,mouse_2.rightButton,mouse_2.time,mouse_2.clicked_name,mouse.x,mouse.y,mouse.leftButton,mouse.midButton,mouse.rightButton,mouse.time,mouse.clicked_name,Choice,Trial,TrialDuration,MOUSE_GAZE,ET_GAZE,ET_GAZE_x_T,time,unixTime,ET_GAZE_NF,Loc_Option1_label,Loc_Option2_label,Loc_Cost_label,Loc_Qual_label,Loc_Option1_cost,Loc_Option2_cost,Loc_Option1_quality,Loc_Option2_quality,trials.thisRepN,trials.thisTrialN,trials.thisN,trials.thisIndex,trials.ran,Block,Device,cost1,qual1,cost2,qual2
space,1.6812,0.052083333,-0.164814815,1,0,0,-0.670833333,0.009259259,1,0,0,calibration_square,0,0,0,2,1,-0.67,0,33,001,2024-11-28_12h41.33.192,Attention_exp_legacy,2023.1.0,Win32,59.88023952,,,,,,,,,,,,,,,,,,,,,,,,,,,,,,,,,,,,,,,,,,,,
,,,,,,,0.334375,-0.677777778,1,0,0,calibration_square,0,1,1,14,1,0.33,-0.67,33,001,2024-11-28_12h41.33.192,Attention_exp_legacy,2023.1.0,Win32,59.88023952,,,,,,,,,,,,,,,,,,,,,,,,,,,,,,,,,,,,,,,,,,,,
,,,,,,,0.330208333,-0.335185185,1,0,0,calibration_square,0,2,2,15,1,0.33,-0.33,33,001,2024-11-28_12h41.33.192,Attention_exp_legacy,2023.1.0,Win32,59.88023952,,,,,,,,,,,,,,,,,,,,,,,,,,,,,,,,,,,,,,,,,,,,
,,,,,,,-0.333333333,0.674074074,1,0,0,calibration_square,0,3,3,8,1,-0.33,0.67,33,001,2024-11-28_12h41.33.192,Attention_exp_legacy,2023.1.0,Win32,59.88023952,,,,,,,,,,,,,,,,,,,,,,,,,,,,,,,,,,,,,,,,,,,,
,,,,,,,-0.326041667,0.327777778,1,0,0,calibration_square,0,4,4,7,1,-0.33,0.33,33,001,2024-11-28_12h41.33.192,Attention_exp_legacy,2023.1.0,Win32,59.88023952,,,,,,,,,,,,,,,,,,,,,,,,,,,,,,,,,,,,,,,,,,,,
,,,,,,,-0.333333333,-0.67037037,1,0,0,calibration_square,0,5,5,4,1,-0.33,-0.67,33,001,2024-11-28_12h41.33.192,Attention_exp_legacy,2023.1.0,Win32,59.88023952,,,,,,,,,,,,,,,,,,,,,,,,,,,,,,,,,,,,,,,,,,,,
,,,,,,,-0.009375,0.007407407,1,0,0,calibration_square,0,6,6,11,1,0,0,33,001,2024-11-28_12h41.33.192,Attention_exp_legacy,2023.1.0,Win32,59.88023952,,,,,,,,,,,,,,,,,,,,,,,,,,,,,,,,,,,,,,,,,,,,
,,,,,,,-0.005208333,-0.668518519,1,0,0,calibration_square,0,7,7,9,1,0,-0.67,33,001,2024-11-28_12h41.33.192,Attention_exp_legacy,2023.1.0,Win32,59.88023952,,,,,,,,,,,,,,,,,,,,,,,,,,,,,,,,,,,,,,,,,,,,
,,,,,,,0.666666667,-0.674074074,1,0,0,calibration_square,0,8,8,20,1,0.67,-0.67,33,001,2024-11-28_12h41.33.192,Attention_exp_legacy,2023.1.0,Win32,59.88023952,,,,,,,,,,,,,,,,,,,,,,,,,,,,,,,,,,,,,,,,,,,,
,,,,,,,-0.00625,0.340740741,1,0,0,,0,9,9,12,1,0,0.33,33,001,2024-11-28_12h41.33.192,Attention_exp_legacy,2023.1.0,Win32,59.88023952,,,,,,,,,,,,,,,,,,,,,,,,,,,,,,,,,,,,,,,,,,,,
,,,,,,,0.329166667,0.005555556,1,0,0,calibration_square,0,10,10,16,1,0.33,0,33,001,2024-11-28_12h41.33.192,Attention_exp_legacy,2023.1.0,Win32,59.88023952,,,,,,,,,,,,,,,,,,,,,,,,,,,,,,,,,,,,,,,,,,,,
,,,,,,,0.002083333,-0.318518519,1,0,0,,0,11,11,10,1,0,-0.33,33,001,2024-11-28_12h41.33.192,Attention_exp_legacy,2023.1.0,Win32,59.88023952,,,,,,,,,,,,,,,,,,,,,,,,,,,,,,,,,,,,,,,,,,,,
,,,,,,,-0.672916667,0.324074074,1,0,0,calibration_square,0,12,12,3,1,-0.67,0.33,33,001,2024-11-28_12h41.33.192,Attention_exp_legacy,2023.1.0,Win32,59.88023952,,,,,,,,,,,,,,,,,,,,,,,,,,,,,,,,,,,,,,,,,,,,
,,,,,,,0.325,0.668518519,1,0,0,calibration_square,0,13,13,18,1,0.33,0.67,33,001,2024-11-28_12h41.33.192,Attention_exp_legacy,2023.1.0,Win32,59.88023952,,,,,,,,,,,,,,,,,,,,,,,,,,,,,,,,,,,,,,,,,,,,
,,,,,,,-0.665625,-0.325925926,1,0,0,calibration_square,0,14,14,1,1,-0.67,-0.33,33,001,2024-11-28_12h41.33.192,Attention_exp_legacy,2023.1.0,Win32,59.88023952,,,,,,,,,,,,,,,,,,,,,,,,,,,,,,,,,,,,,,,,,,,,
,,,,,,,-0.328125,-0.331481481,1,0,0,calibration_square,0,15,15,5,1,-0.33,-0.33,33,001,2024-11-28_12h41.33.192,Attention_exp_legacy,2023.1.0,Win32,59.88023952,,,,,,,,,,,,,,,,,,,,,,,,,,,,,,,,,,,,,,,,,,,,
,,,,,,,0.004166667,0.677777778,1,0,0,calibration_square,0,16,16,13,1,0,0.67,33,001,2024-11-28_12h41.33.192,Attention_exp_legacy,2023.1.0,Win32,59.88023952,,,,,,,,,,,,,,,,,,,,,,,,,,,,,,,,,,,,,,,,,,,,
,,,,,,,0.3375,0.337037037,1,0,0,calibration_square,0,17,17,17,1,0.33,0.33,33,001,2024-11-28_12h41.33.192,Attention_exp_legacy,2023.1.0,Win32,59.88023952,,,,,,,,,,,,,,,,,,,,,,,,,,,,,,,,,,,,,,,,,,,,
,,,,,,,0.665625,0.657407407,1,0,0,,0,18,18,19,1,0.67,0.67,33,001,2024-11-28_12h41.33.192,Attention_exp_legacy,2023.1.0,Win32,59.88023952,,,,,,,,,,,,,,,,,,,,,,,,,,,,,,,,,,,,,,,,,,,,
,,,,,,,-0.713541667,-0.65,1,0,0,,0,19,19,0,1,-0.67,-0.67,33,001,2024-11-28_12h41.33.192,Attention_exp_legacy,2023.1.0,Win32,59.88023952,,,,,,,,,,,,,,,,,,,,,,,,,,,,,,,,,,,,,,,,,,,,
,,,,,,,-0.33125,-0.001851852,1,0,0,calibration_square,0,20,20,6,1,-0.33,0,33,001,2024-11-28_12h41.33.192,Attention_exp_legacy,2023.1.0,Win32,59.88023952,,,,,,,,,,,,,,,,,,,,,,,,,,,,,,,,,,,,,,,,,,,,
,,,,,,,,,,,,,,,,,,,,33,001,2024-11-28_12h41.33.192,Attention_exp_legacy,2023.1.0,Win32,59.88023952,"[1920,1080]","[640,480]",[0.0375],[-0.4777777777777778],[1],[0],[0],[1.3489000000059619],"[""StartButton""]",[0.36666666666666664],[0.31296296296296294],[1],[0],[0],[2.402799999982122],"[""Option2_label""]",Option2_label,1,3.4125,"[[0.1375,0.18888888888888888],[0.1375,0.18888888888888888],[0.1375,0.18888888888888888],[0.1375,0.18888888888888888],[0.1375,0.18888888888888888],[0.1375,0.18888888888888888],[0.1375,0.18888888888888888],[0.1375,0.18888888888888888],[0.1375,0.18888888888888888],[0.1375,0.18888888888888888],[0.1375,0.18888888888888888],[0.1375,0.18888888888888888],[0.1375,0.18888888888888888],[0.1375,0.18888888888888888],[0.1375,0.18888888888888888],[0.1375,0.18888888888888888],[0.1375,0.18888888888888888],[0.1375,0.18888888888888888],[0.1375,0.18888888888888888],[0.1375,0.18888888888888888],[0.1375,0.18888888888888888],[0.1375,0.18888888888888888],[0.1375,0.18888888888888888],[0.1375,0.18888888888888888],[0.1375,0.18888888888888888],[0.1375,0.18888888888888888],[0.1375,0.18888888888888888],[0.1375,0.18888888888888888],[0.13541666666666666,0.1962962962962963],[0.121875,0.23703703703703705],[0.10520833333333333,0.2833333333333333],[0.09270833333333334,0.31296296296296294],[0.084375,0.3351851851851852],[0.07395833333333333,0.3574074074074074],[0.06041666666666667,0.387037037037037],[0.05520833333333333,0.39444444444444443],[0.053125,0.39814814814814814],[0.053125,0.39814814814814814],[0.052083333333333336,0.39814814814814814],[0.052083333333333336,0.39814814814814814],[0.052083333333333336,0.39814814814814814],[0.052083333333333336,0.39814814814814814],[0.04895833333333333,0.39814814814814814],[0.04791666666666667,0.3888888888888889],[0.04479166666666667,0.38333333333333336],[0.041666666666666664,0.3574074074074074],[0.035416666666666666,0.3055555555555556],[0.029166666666666667,0.2537037037037037],[0.016666666666666666,0.17222222222222222],[0.003125,0.08703703703703704],[-0.017708333333333333,-0.016666666666666666],[-0.040625,-0.10555555555555556],[-0.06458333333333334,-0.17592592592592593],[-0.08125,-0.22592592592592592],[-0.09166666666666666,-0.2574074074074074],[-0.09895833333333333,-0.2814814814814815],[-0.1,-0.29259259259259257],[-0.10104166666666667,-0.29814814814814816],[-0.10104166666666667,-0.30185185185185187],[-0.10104166666666667,-0.3037037037037037],[-0.10104166666666667,-0.3037037037037037],[-0.10104166666666667,-0.3055555555555556],[-0.10104166666666667,-0.3055555555555556],[-0.10104166666666667,-0.3055555555555556],[-0.10104166666666667,-0.3055555555555556],[-0.10104166666666667,-0.3055555555555556],[-0.10104166666666667,-0.3055555555555556],[-0.10104166666666667,-0.3055555555555556],[-0.10104166666666667,-0.3055555555555556],[-0.10104166666666667,-0.3055555555555556],[-0.08541666666666667,-0.31296296296296294],[-0.059375,-0.31666666666666665],[-0.025,-0.31666666666666665],[0.029166666666666667,-0.31666666666666665],[0.10833333333333334,-0.31666666666666665],[0.17291666666666666,-0.31666666666666665],[0.21979166666666666,-0.31666666666666665],[0.253125,-0.31666666666666665],[0.290625,-0.31666666666666665],[0.3229166666666667,-0.31666666666666665],[0.3458333333333333,-0.31666666666666665],[0.36354166666666665,-0.31296296296296294],[0.3729166666666667,-0.30925925925925923],[0.37604166666666666,-0.3074074074074074],[0.3770833333333333,-0.3055555555555556],[0.3770833333333333,-0.3055555555555556],[0.3770833333333333,-0.3055555555555556],[0.3770833333333333,-0.3055555555555556],[0.3770833333333333,-0.29259259259259257],[0.3770833333333333,-0.2388888888888889],[0.3770833333333333,-0.20555555555555555],[0.3770833333333333,-0.12777777777777777],[0.3770833333333333,-0.03333333333333333],[0.3729166666666667,0.07407407407407407],[0.3697916666666667,0.12962962962962962],[0.36770833333333336,0.17777777777777778],[0.36666666666666664,0.21851851851851853],[0.36666666666666664,0.25555555555555554],[0.36666666666666664,0.2796296296296296],[0.36666666666666664,0.29074074074074074],[0.36666666666666664,0.3],[0.36666666666666664,0.3037037037037037],[0.36666666666666664,0.3074074074074074],[0.36666666666666664,0.3074074074074074],[0.36666666666666664,0.3074074074074074],[0.36666666666666664,0.3074074074074074],[0.36666666666666664,0.3074074074074074],[0.36666666666666664,0.3074074074074074],[0.36666666666666664,0.3074074074074074],[0.36666666666666664,0.3074074074074074],[0.36666666666666664,0.3074074074074074],[0.36666666666666664,0.30925925925925923],[0.36666666666666664,0.31296296296296294],[0.36666666666666664,0.31296296296296294],[0.36666666666666664,0.31296296296296294],[0.36666666666666664,0.31296296296296294],[0.36666666666666664,0.31296296296296294],[0.36666666666666664,0.31296296296296294],[0.36666666666666664,0.31296296296296294],[0.36666666666666664,0.31296296296296294],[0.36666666666666664,0.31296296296296294],[0.36666666666666664,0.31296296296296294],[0.36666666666666664,0.31296296296296294],[0.36666666666666664,0.31296296296296294],[0.36666666666666664,0.31296296296296294],[0.36666666666666664,0.31296296296296294],[0.36666666666666664,0.31296296296296294],[0.36666666666666664,0.31296296296296294],[0.36666666666666664,0.31296296296296294],[0.36666666666666664,0.31296296296296294],[0.36666666666666664,0.31296296296296294],[0.36666666666666664,0.31296296296296294],[0.36666666666666664,0.31296296296296294],[0.36666666666666664,0.31296296296296294],[0.36666666666666664,0.31296296296296294],[0.36666666666666664,0.31296296296296294],[0.36666666666666664,0.31296296296296294],[0.36666666666666664,0.31296296296296294],[0.36666666666666664,0.31296296296296294],[0.36666666666666664,0.31296296296296294],[0.36666666666666664,0.31296296296296294],[0.36666666666666664,0.31296296296296294],[0.36666666666666664,0.31296296296296294],[0.36666666666666664,0.31296296296296294],[0.36666666666666664,0.31296296296296294],[0.36666666666666664,0.31296296296296294],[0.36666666666666664,0.31296296296296294],[0.36666666666666664,0.31296296296296294],[0.36666666666666664,0.31296296296296294],[0.36666666666666664,0.31296296296296294],[0.36666666666666664,0.31296296296296294],[0.36666666666666664,0.31296296296296294],[0.36666666666666664,0.31296296296296294],[0.36666666666666664,0.31296296296296294],[0.36666666666666664,0.31296296296296294],[0.36666666666666664,0.31296296296296294],[0.36666666666666664,0.31296296296296294],[0.36666666666666664,0.31296296296296294],[0.36666666666666664,0.31296296296296294],[0.36666666666666664,0.31296296296296294],[0.36666666666666664,0.31296296296296294],[0.36666666666666664,0.31296296296296294],[0.36666666666666664,0.31296296296296294],[0.36666666666666664,0.31296296296296294],[0.36666666666666664,0.31296296296296294],[0.36666666666666664,0.31296296296296294],[0.36666666666666664,0.31296296296296294],[0.36666666666666664,0.31296296296296294],[0.36666666666666664,0.31296296296296294],[0.36666666666666664,0.31296296296296294],[0.36666666666666664,0.31296296296296294],[0.36666666666666664,0.31296296296296294],[0.36666666666666664,0.31296296296296294],[0.36666666666666664,0.31296296296296294],[0.36666666666666664,0.31296296296296294],[0.36666666666666664,0.31296296296296294],[0.36666666666666664,0.31296296296296294],[0.36666666666666664,0.31296296296296294],[0.36666666666666664,0.31296296296296294],[0.36666666666666664,0.31296296296296294],[0.36666666666666664,0.31296296296296294],[0.36666666666666664,0.31296296296296294],[0.36666666666666664,0.31296296296296294],[0.36666666666666664,0.31296296296296294],[0.36666666666666664,0.31296296296296294],[0.36666666666666664,0.31296296296296294],[0.36666666666666664,0.31296296296296294],[0.36666666666666664,0.31296296296296294],[0.36666666666666664,0.31296296296296294],[0.36666666666666664,0.31296296296296294],[0.36666666666666664,0.31296296296296294],[0.36666666666666664,0.31296296296296294],[0.36666666666666664,0.31296296296296294],[0.36666666666666664,0.31296296296296294],[0.36666666666666664,0.31296296296296294],[0.36666666666666664,0.31296296296296294],[0.36666666666666664,0.31296296296296294],[0.36666666666666664,0.31296296296296294],[0.36666666666666664,0.31296296296296294],[0.36666666666666664,0.31296296296296294],[0.36666666666666664,0.31296296296296294],[0.36666666666666664,0.31296296296296294],[0.36666666666666664,0.31296296296296294],[0.36666666666666664,0.31296296296296294],[0.36666666666666664,0.31296296296296294]]","[[-0.2407291666666667,-0.122037037037037],[-0.2407291666666667,-0.122037037037037],[-0.2547916666666667,-0.11314814814814819],[-0.2547916666666667,-0.11314814814814819],[-0.25593750000000004,-0.10796296296296298],[-0.25593750000000004,-0.10796296296296298],[-0.2397916666666667,-0.11425925925925924],[-0.2682291666666667,-0.10314814814814813],[-0.2582291666666666,-0.12814814814814812],[-0.2752083333333334,-0.16814814814814816],[-0.2752083333333334,-0.16814814814814816],[-0.29177083333333337,-0.1698148148148148],[-0.26927083333333335,-0.19037037037037038],[-0.23885416666666662,-0.20703703703703705],[-0.225,-0.21648148148148144],[-0.20604166666666662,-0.2155555555555555],[-0.19156249999999997,-0.22518518518518524],[-0.1922916666666667,-0.2324074074074074],[-0.2022916666666667,-0.22240740740740744],[-0.21739583333333337,-0.19166666666666668],[-0.1716666666666666,-0.21703703703703703],[-0.13125,-0.24222222222222226],[-0.15375000000000003,-0.23148148148148148],[-0.1580208333333334,-0.22166666666666665],[-0.17531249999999995,-0.227962962962963],[-0.19260416666666663,-0.23425925925925925],[-0.17604166666666668,-0.2668518518518519],[-0.17604166666666668,-0.2668518518518519],[-0.14312499999999997,-0.29018518518518516],[-0.14312499999999997,-0.29018518518518516],[-0.08885416666666662,-0.3074074074074074],[-0.0811458333333333,-0.32166666666666666],[-0.1046875,-0.2942592592592592],[-0.12999999999999995,-0.2651851851851852],[-0.12947916666666662,-0.26296296296296295],[-0.12947916666666662,-0.26296296296296295],[-0.13406250000000006,-0.2698148148148148],[-0.08999999999999998,-0.30037037037037034],[-0.07458333333333336,-0.2764814814814815],[-0.08093750000000005,-0.24814814814814815],[-0.10104166666666667,-0.21388888888888888],[-0.12302083333333336,-0.205],[-0.12468750000000005,-0.16574074074074074],[-0.1202083333333333,-0.1714814814814815],[-0.1202083333333333,-0.1714814814814815],[-0.11145833333333334,-0.14962962962962964],[-0.09354166666666662,-0.13240740740740742],[-0.09010416666666667,-0.12259259259259257],[-0.1016666666666667,-0.08333333333333333],[-0.09125000000000003,-0.0940740740740741],[-0.0953125,-0.0668518518518519],[-0.09916666666666671,-0.0485185185185186],[-0.11770833333333333,0.022222222222222223],[-0.10791666666666669,-0.006111111111111027],[-0.11572916666666669,0.0025925925925925505],[-0.11572916666666669,0.0025925925925925505],[-0.12604166666666666,-0.01796296296296305],[-0.12895833333333329,-0.03185185185185194],[-0.13052083333333328,-0.02833333333333325],[-0.16343749999999999,-0.002962962962963005],[-0.16343749999999999,-0.002962962962963005],[-0.19479166666666667,0.025],[-0.17395833333333333,0.06462962962962959],[-0.153125,0.10425925925925918],[-0.11010416666666671,0.06648148148148143],[-0.07572916666666671,0.1037037037037037],[-0.09249999999999996,0.18925925925925935],[-0.1092708333333333,0.2748148148148148],[-0.11593749999999996,0.32759259259259255],[-0.13843749999999996,0.4372222222222223],[-0.10385416666666672,0.48629629629629634],[-0.078125,0.5050000000000001],[-0.08677083333333328,0.46944444444444444],[-0.09541666666666669,0.4338888888888888],[-0.10322916666666669,0.41203703703703703],[-0.10843750000000002,0.4214814814814815],[-0.07427083333333329,0.3472222222222222],[-0.04010416666666667,0.2729629629629629],[-0.04010416666666667,0.2729629629629629],[-0.015625,0.23851851851851844],[-0.02833333333333338,0.1579629629629629],[-0.07083333333333333,0.11925925925925922],[-0.06958333333333329,0.10962962962962972],[-0.04135416666666671,0.11870370370370374],[-0.019791666666666666,0.1331481481481481],[-0.010104166666666714,0.15555555555555556],[-0.010104166666666714,0.15555555555555556],[-0.009791666666666643,0.1544444444444444],[0.05343749999999995,0.16500000000000004],[0.0921875,0.19796296296296292],[0.12635416666666663,0.19962962962962955],[0.17760416666666667,0.2168518518518519],[0.23489583333333333,0.20833333333333334],[0.26104166666666656,0.20092592592592592],[0.29562499999999997,0.19425925925925921],[0.29562499999999997,0.19425925925925921],[0.32750000000000007,0.19074074074074074],[0.30979166666666674,0.18944444444444436],[0.33093750000000005,0.12462962962962955],[0.3009375000000001,0.08351851851851856],[0.27218749999999997,0.06425925925925935],[0.27218749999999997,0.06425925925925935],[0.23104166666666662,0.06722222222222214],[0.2476041666666667,0.03370370370370379],[0.2555208333333333,0.007407407407407408],[0.2647916666666667,-0.0257407407407407],[0.23510416666666673,-0.010370370370370412],[0.19760416666666672,-0.021851851851851768],[0.20302083333333343,-0.0301851851851851],[0.17635416666666662,0.01722222222222214],[0.12708333333333333,0.07518518518518523],[0.12750000000000009,0.069074074074074],[0.11583333333333339,0.08444444444444449],[0.08239583333333324,0.10999999999999996],[0.04697916666666669,0.1948148148148149],[0.06052083333333336,0.22629629629629638],[-0.05281250000000005,0.22537037037037044],[-0.14895833333333333,0.24277777777777781],[-0.19104166666666664,0.20999999999999996],[-0.22885416666666672,0.20185185185185187],[-0.22885416666666672,0.20185185185185187],[-0.21604166666666663,0.19703703703703698],[-0.26593749999999994,0.1866666666666666],[-0.30375,0.15481481481481485],[-0.2525,0.10166666666666663],[-0.2525,0.10166666666666663],[-0.20270833333333335,0.01185185185185181],[-0.2467708333333333,0.03481481481481473],[-0.14010416666666667,-0.012962962962962963],[-0.01895833333333338,-0.048333333333333374],[0.04812500000000005,-0.03351851851851856],[0.10677083333333333,-0.046296296296296294],[0.10677083333333333,-0.046296296296296294],[0.13739583333333344,-0.07296296296296292],[0.22229166666666675,-0.08574074074074076],[0.3037499999999999,-0.10037037037037035],[0.29958333333333326,-0.04759259259259268],[0.30145833333333344,0.0011111111111111532],[0.3529166666666666,-0.003888888888888931],[0.3859375,0.04407407407407399],[0.35177083333333337,0.10092592592592593],[0.31760416666666674,0.15777777777777785],[0.31697916666666665,0.1881481481481482],[0.3163541666666667,0.21851851851851853],[0.3163541666666667,0.21851851851851853],[0.3086458333333333,0.24537037037037038],[0.3086458333333333,0.24537037037037038],[0.2609375,0.2868518518518518],[0.22885416666666672,0.23499999999999996],[0.18822916666666673,0.20999999999999996],[0.17572916666666671,0.14814814814814814],[0.15552083333333327,0.054074074074074156],[0.18802083333333333,-0.06129629629629634],[0.25125000000000003,-0.17407407407407408],[0.2851041666666667,-0.2574074074074074],[0.31697916666666665,-0.3190740740740741],[0.33791666666666675,-0.36574074074074076],[0.4032291666666666,-0.4274074074074074],[0.45343749999999994,-0.45740740740740743],[0.5121875,-0.5142592592592592],[0.5176041666666668,-0.4824074074074074],[0.5307291666666667,-0.4183333333333333],[0.5389583333333334,-0.39462962962962966],[0.5164583333333332,-0.37351851851851847],[0.48156249999999995,-0.32981481481481484],[0.44864583333333335,-0.30777777777777776],[0.4436458333333334,-0.305],[0.43770833333333337,-0.3],[0.40614583333333343,-0.2777777777777778],[0.3745833333333332,-0.25555555555555554],[0.33010416666666675,-0.2788888888888889],[0.28791666666666677,-0.2977777777777778],[0.24927083333333327,-0.26129629629629636],[0.26114583333333335,-0.2757407407407407],[0.26114583333333335,-0.2757407407407407],[0.28541666666666665,-0.3127777777777777],[0.3220833333333334,-0.3501851851851852],[0.3242708333333333,-0.367037037037037],[0.3033333333333334,-0.3718518518518519],[0.32093749999999993,-0.3737037037037037],[0.3385416666666667,-0.3755555555555556],[0.38958333333333334,-0.3894444444444445],[0.3884375000000001,-0.37166666666666665],[0.37520833333333337,-0.33777777777777773],[0.30479166666666657,-0.29129629629629633],[0.2359375,-0.22999999999999998],[0.13447916666666657,-0.14425925925925923],[0.04479166666666667,-0.06851851851851852],[-0.004791666666666691,-0.05814814814814811],[-0.07124999999999998,-0.05240740740740743],[-0.07124999999999998,-0.05240740740740743],[-0.1280208333333333,-0.03351851851851856],[-0.2015625,-0.007962962962962878],[-0.22520833333333337,-0.018518518518518517],[-0.22520833333333337,-0.018518518518518517],[-0.21031249999999999,-0.08462962962962961],[-0.2703125,-0.06222222222222226],[-0.33187500000000003,-0.05462962962962963],[-0.3453125,-0.05481481481481486],[-0.3159374999999999,-0.08703703703703704],[-0.2875,-0.07833333333333335],[-0.26927083333333335,-0.029814814814814856],[-0.2607291666666666,0.005555555555555556],[-0.319375,0.07388888888888885],[-0.31791666666666674,0.13944444444444437]]","[[-0.2407291666666667,-0.122037037037037,0.0002999999821184929],[-0.2407291666666667,-0.122037037037037,0.03990000000595728],[-0.2547916666666667,-0.11314814814814819,0.05299999999999727],[-0.2547916666666667,-0.11314814814814819,0.07329999998211889],[-0.25593750000000004,-0.10796296296296298,0.09240000000595927],[-0.25593750000000004,-0.10796296296296298,0.10059999999403857],[-0.2397916666666667,-0.11425925925925924,0.1107999999821132],[-0.2682291666666667,-0.10314814814814813,0.12740000000595586],[-0.2582291666666666,-0.12814814814814812,0.14429999998211684],[-0.2752083333333334,-0.16814814814814816,0.16059999999404084],[-0.2752083333333334,-0.16814814814814816,0.17740000000596012],[-0.29177083333333337,-0.1698148148148148,0.19409999999403738],[-0.26927083333333335,-0.19037037037037038,0.21490000000596154],[-0.23885416666666662,-0.20703703703703705,0.22819999998807816],[-0.225,-0.21648148148148144,0.24409999999403453],[-0.20604166666666662,-0.2155555555555555,0.260699999988077],[-0.19156249999999997,-0.22518518518518524,0.2772999999821195],[-0.1922916666666667,-0.2324074074074074,0.29399999999999693],[-0.2022916666666667,-0.22240740740740744,0.31099999999999994],[-0.21739583333333337,-0.19166666666666668,0.3272999999821167],[-0.1716666666666666,-0.21703703703703703,0.34409999999403595],[-0.13125,-0.24222222222222226,0.36069999998807845],[-0.15375000000000003,-0.23148148148148148,0.37740000000595586],[-0.1580208333333334,-0.22166666666666665,0.39429999998211684],[-0.17531249999999995,-0.227962962962963,0.4106999999880756],[-0.19260416666666663,-0.23425925925925925,0.4291999999880787],[-0.17604166666666668,-0.2668518518518519,0.44629999998211645],[-0.17604166666666668,-0.2668518518518519,0.46069999998807987],[-0.14312499999999997,-0.29018518518518516,0.4799999999999969],[-0.14312499999999997,-0.29018518518518516,0.49409999999403453],[-0.08885416666666662,-0.3074074074074074,0.5109000000059609],[-0.0811458333333333,-0.32166666666666666,0.5274999999999963],[-0.1046875,-0.2942592592592592,0.5474000000059576],[-0.12999999999999995,-0.2651851851851852,0.5610999999940347],[-0.12947916666666662,-0.26296296296296295,0.5775999999940353],[-0.12947916666666662,-0.26296296296296295,0.5966999999880755],[-0.13406250000000006,-0.2698148148148148,0.6109000000059552],[-0.08999999999999998,-0.30037037037037034,0.6274000000059559],[-0.07458333333333336,-0.2764814814814815,0.6470999999940403],[-0.08093750000000005,-0.24814814814814815,0.6637999999821176],[-0.10104166666666667,-0.21388888888888888,0.6772999999821181],[-0.12302083333333336,-0.205,0.6940999999940374],[-0.12468750000000005,-0.16574074074074074,0.7154000000059568],[-0.1202083333333333,-0.1714814814814815,0.7304999999999993],[-0.1202083333333333,-0.1714814814814815,0.7441999999880764],[-0.11145833333333334,-0.14962962962962964,0.7609000000059609],[-0.09354166666666662,-0.13240740740740742,0.7792999999821149],[-0.09010416666666667,-0.12259259259259257,0.7979999999999947],[-0.1016666666666667,-0.08333333333333333,0.8121999999880742],[-0.09125000000000003,-0.0940740740740741,0.8305999999940354],[-0.0953125,-0.0668518518518519,0.8457999999821197],[-0.09916666666666671,-0.0485185185185186,0.8609000000059552],[-0.11770833333333333,0.022222222222222223,0.8806999999880745],[-0.10791666666666669,-0.006111111111111027,0.895699999988075],[-0.11572916666666669,0.0025925925925925505,0.9107999999821175],[-0.11572916666666669,0.0025925925925925505,0.9274000000059601],[-0.12604166666666666,-0.01796296296296305,0.9491999999880747],[-0.12895833333333329,-0.03185185185185194,0.9647999999821195],[-0.13052083333333328,-0.02833333333333325,0.9789999999999992],[-0.16343749999999999,-0.002962962962963005,0.9940999999940345],[-0.16343749999999999,-0.002962962962963005,1.010799999982119],[-0.19479166666666667,0.025,1.0294000000059569],[-0.17395833333333333,0.06462962962962959,1.04790000000596],[-0.153125,0.10425925925925918,1.0625],[-0.11010416666666671,0.06648148148148143,1.0772999999821167],[-0.07572916666666671,0.1037037037037037,1.0965999999940408],[-0.09249999999999996,0.18925925925925935,1.1119999999999948],[-0.1092708333333333,0.2748148148148148,1.1272999999821138],[-0.11593749999999996,0.32759259259259255,1.1442999999821168],[-0.13843749999999996,0.4372222222222223,1.1606999999880756],[-0.10385416666666672,0.48629629629629634,1.1809999999999974],[-0.078125,0.5050000000000001,1.1965000000000003],[-0.08677083333333328,0.46944444444444444,1.2149000000059615],[-0.09541666666666669,0.4338888888888888,1.2291999999880758],[-0.10322916666666669,0.41203703703703703,1.246799999982116],[-0.10843750000000002,0.4214814814814815,1.2626999999880795],[-0.07427083333333329,0.3472222222222222,1.2774999999999963],[-0.04010416666666667,0.2729629629629629,1.2972999999821155],[-0.04010416666666667,0.2729629629629629,1.310799999982116],[-0.015625,0.23851851851851844,1.3276999999880772],[-0.02833333333333338,0.1579629629629629,1.344099999994036],[-0.07083333333333333,0.11925925925925922,1.3630999999940343],[-0.06958333333333329,0.10962962962962972,1.3816999999880792],[-0.04135416666666671,0.11870370370370374,1.3962999999821193],[-0.019791666666666666,0.1331481481481481,1.4107999999821175],[-0.010104166666666714,0.15555555555555556,1.4274000000059601],[-0.010104166666666714,0.15555555555555556,1.4439999999999955],[-0.009791666666666643,0.1544444444444444,1.4606999999880799],[0.05343749999999995,0.16500000000000004,1.482999999999997],[0.0921875,0.19796296296296292,1.4979999999999976],[0.12635416666666663,0.19962962962962955,1.512299999982119],[0.17760416666666667,0.2168518518518519,1.5274999999999963],[0.23489583333333333,0.20833333333333334,1.5474999999999994],[0.26104166666666656,0.20092592592592592,1.562299999982116],[0.29562499999999997,0.19425925925925921,1.5780999999940377],[0.29562499999999997,0.19425925925925921,1.594099999994036],[0.32750000000000007,0.19074074074074074,1.615699999988074],[0.30979166666666674,0.18944444444444436,1.6316999999880792],[0.33093750000000005,0.12462962962962955,1.6466999999880798],[0.3009375000000001,0.08351851851851856,1.6655999999940363],[0.27218749999999997,0.06425925925925935,1.6802999999821182],[0.27218749999999997,0.06425925925925935,1.6941999999880792],[0.23104166666666662,0.06722222222222214,1.7109000000059567],[0.2476041666666667,0.03370370370370379,1.729900000005955],[0.2555208333333333,0.007407407407407408,1.7444000000059603],[0.2647916666666667,-0.0257407407407407,1.7610999999940375],[0.23510416666666673,-0.010370370370370412,1.7786999999880777],[0.19760416666666672,-0.021851851851851768,1.7965999999940365],[0.20302083333333343,-0.0301851851851851,1.8119000000059557],[0.17635416666666662,0.01722222222222214,1.8274000000059587],[0.12708333333333333,0.07518518518518523,1.847199999988078],[0.12750000000000009,0.069074074074074,1.8667999999821134],[0.11583333333333339,0.08444444444444449,1.8814999999999955],[0.08239583333333324,0.10999999999999996,1.8970999999940403],[0.04697916666666669,0.1948148148148149,1.912099999994041],[0.06052083333333336,0.22629629629629638,1.9285999999940344],[-0.05281250000000005,0.22537037037037044,1.944400000005956],[-0.14895833333333333,0.24277777777777781,1.9606999999880799],[-0.19104166666666664,0.20999999999999996,1.979099999994034],[-0.22885416666666672,0.20185185185185187,1.994499999999995],[-0.22885416666666672,0.20185185185185187,2.010699999988077],[-0.21604166666666663,0.19703703703703698,2.0274000000059615],[-0.26593749999999994,0.1866666666666666,2.044099999994039],[-0.30375,0.15481481481481485,2.0626999999880766],[-0.2525,0.10166666666666663,2.0772999999821167],[-0.2525,0.10166666666666663,2.094000000000001],[-0.20270833333333335,0.01185185185185181,2.110799999982113],[-0.2467708333333333,0.03481481481481473,2.127299999982114],[-0.14010416666666667,-0.012962962962962963,2.145900000005959],[-0.01895833333333338,-0.048333333333333374,2.16129999998212],[0.04812500000000005,-0.03351851851851856,2.1794999999999973],[0.10677083333333333,-0.046296296296296294,2.1954999999999956],[0.10677083333333333,-0.046296296296296294,2.2109000000059567],[0.13739583333333344,-0.07296296296296292,2.2274000000059573],[0.22229166666666675,-0.08574074074074076,2.2440999999940345],[0.3037499999999999,-0.10037037037037035,2.26309999999404],[0.29958333333333326,-0.04759259259259268,2.277799999982115],[0.30145833333333344,0.0011111111111111532,2.2941999999880736],[0.3529166666666666,-0.003888888888888931,2.3129999999999953],[0.3859375,0.04407407407407399,2.3306999999880773],[0.35177083333333337,0.10092592592592593,2.3461999999880803],[0.31760416666666674,0.15777777777777785,2.3606999999880784],[0.31697916666666665,0.1881481481481482,2.377299999982114],[0.3163541666666667,0.21851851851851853,2.3951999999880798],[0.3163541666666667,0.21851851851851853,2.4106999999880756],[0.3086458333333333,0.24537037037037038,2.427499999999995],[0.3086458333333333,0.24537037037037038,2.4440999999940374],[0.2609375,0.2868518518518518,2.4607999999821146],[0.22885416666666672,0.23499999999999996,2.4816999999880736],[0.18822916666666673,0.20999999999999996,2.4979999999999976],[0.17572916666666671,0.14814814814814814,2.513999999999996],[0.15552083333333327,0.054074074074074156,2.5296999999880754],[0.18802083333333333,-0.06129629629629634,2.5489000000059576],[0.25125000000000003,-0.17407407407407408,2.564099999994035],[0.2851041666666667,-0.2574074074074074,2.57859999999404],[0.31697916666666665,-0.3190740740740741,2.596599999994041],[0.33791666666666675,-0.36574074074074076,2.6129999999999995],[0.4032291666666666,-0.4274074074074074,2.631799999982114],[0.45343749999999994,-0.45740740740740743,2.6467999999821146],[0.5121875,-0.5142592592592592,2.663599999994041],[0.5176041666666668,-0.4824074074074074,2.677499999999995],[0.5307291666666667,-0.4183333333333333,2.6939999999999955],[0.5389583333333334,-0.39462962962962966,2.7147999999821195],[0.5164583333333332,-0.37351851851851847,2.729999999999997],[0.48156249999999995,-0.32981481481481484,2.7439999999999998],[0.44864583333333335,-0.30777777777777776,2.7620000000000005],[0.4436458333333334,-0.305,2.778500000000001],[0.43770833333333337,-0.3,2.798499999999997],[0.40614583333333343,-0.2777777777777778,2.8135999999940395],[0.3745833333333332,-0.25555555555555554,2.828699999988075],[0.33010416666666675,-0.2788888888888889,2.8451999999880755],[0.28791666666666677,-0.2977777777777778,2.863499999999995],[0.24927083333333327,-0.26129629629629636,2.8820999999940398],[0.26114583333333335,-0.2757407407407407,2.897500000000001],[0.26114583333333335,-0.2757407407407407,2.9106999999880756],[0.28541666666666665,-0.3127777777777777,2.92740000000596],[0.3220833333333334,-0.3501851851851852,2.9439000000059607],[0.3242708333333333,-0.367037037037037,2.96519999998808],[0.3033333333333334,-0.3718518518518519,2.9795999999940364],[0.32093749999999993,-0.3737037037037037,2.994499999999995],[0.3385416666666667,-0.3755555555555556,3.0144000000059563],[0.38958333333333334,-0.3894444444444445,3.030099999994036],[0.3884375000000001,-0.37166666666666665,3.0481999999880784],[0.37520833333333337,-0.33777777777777773,3.0634999999999977],[0.30479166666666657,-0.29129629629629633,3.079299999982119],[0.2359375,-0.22999999999999998,3.0960999999940384],[0.13447916666666657,-0.14425925925925923,3.1114000000059576],[0.04479166666666667,-0.06851851851851852,3.127400000005956],[-0.004791666666666691,-0.05814814814814811,3.1445000000000007],[-0.07124999999999998,-0.05240740740740743,3.160599999994041],[-0.07124999999999998,-0.05240740740740743,3.17740000000596],[-0.1280208333333333,-0.03351851851851856,3.1939999999999955],[-0.2015625,-0.007962962962962878,3.21519999998808],[-0.22520833333333337,-0.018518518518518517,3.2304000000059574],[-0.22520833333333337,-0.018518518518518517,3.243900000005958],[-0.21031249999999999,-0.08462962962962961,3.260699999988077],[-0.2703125,-0.06222222222222226,3.2772999999821195],[-0.33187500000000003,-0.05462962962962963,3.2966999999880784],[-0.3453125,-0.05481481481481486,3.3120999999940395],[-0.3159374999999999,-0.08703703703703704,3.3274000000059587],[-0.2875,-0.07833333333333335,3.3460999999940384],[-0.26927083333333335,-0.029814814814814856,3.361099999994039],[-0.2607291666666666,0.005555555555555556,3.377400000005956],[-0.319375,0.07388888888888885,3.3952999999821145],[-0.31791666666666674,0.13944444444444437,3.4125000000000014]]","[0.0002999999821184929,0.03990000000595728,0.05299999999999727,0.07329999998211889,0.09240000000595927,0.10059999999403857,0.1107999999821132,0.12740000000595586,0.14429999998211684,0.16059999999404084,0.17740000000596012,0.19409999999403738,0.21490000000596154,0.22819999998807816,0.24409999999403453,0.260699999988077,0.2772999999821195,0.29399999999999693,0.31099999999999994,0.3272999999821167,0.34409999999403595,0.36069999998807845,0.37740000000595586,0.39429999998211684,0.4106999999880756,0.4291999999880787,0.44629999998211645,0.46069999998807987,0.4799999999999969,0.49409999999403453,0.5109000000059609,0.5274999999999963,0.5474000000059576,0.5610999999940347,0.5775999999940353,0.5966999999880755,0.6109000000059552,0.6274000000059559,0.6470999999940403,0.6637999999821176,0.6772999999821181,0.6940999999940374,0.7154000000059568,0.7304999999999993,0.7441999999880764,0.7609000000059609,0.7792999999821149,0.7979999999999947,0.8121999999880742,0.8305999999940354,0.8457999999821197,0.8609000000059552,0.8806999999880745,0.895699999988075,0.9107999999821175,0.9274000000059601,0.9491999999880747,0.9647999999821195,0.9789999999999992,0.9940999999940345,1.010799999982119,1.0294000000059569,1.04790000000596,1.0625,1.0772999999821167,1.0965999999940408,1.1119999999999948,1.1272999999821138,1.1442999999821168,1.1606999999880756,1.1809999999999974,1.1965000000000003,1.2149000000059615,1.2291999999880758,1.246799999982116,1.2626999999880795,1.2774999999999963,1.2972999999821155,1.310799999982116,1.3276999999880772,1.344099999994036,1.3630999999940343,1.3816999999880792,1.3962999999821193,1.4107999999821175,1.4274000000059601,1.4439999999999955,1.4606999999880799,1.482999999999997,1.4979999999999976,1.512299999982119,1.5274999999999963,1.5474999999999994,1.562299999982116,1.5780999999940377,1.594099999994036,1.615699999988074,1.6316999999880792,1.6466999999880798,1.6655999999940363,1.6802999999821182,1.6941999999880792,1.7109000000059567,1.729900000005955,1.7444000000059603,1.7610999999940375,1.7786999999880777,1.7965999999940365,1.8119000000059557,1.8274000000059587,1.847199999988078,1.8667999999821134,1.8814999999999955,1.8970999999940403,1.912099999994041,1.9285999999940344,1.944400000005956,1.9606999999880799,1.979099999994034,1.994499999999995,2.010699999988077,2.0274000000059615,2.044099999994039,2.0626999999880766,2.0772999999821167,2.094000000000001,2.110799999982113,2.127299999982114,2.145900000005959,2.16129999998212,2.1794999999999973,2.1954999999999956,2.2109000000059567,2.2274000000059573,2.2440999999940345,2.26309999999404,2.277799999982115,2.2941999999880736,2.3129999999999953,2.3306999999880773,2.3461999999880803,2.3606999999880784,2.377299999982114,2.3951999999880798,2.4106999999880756,2.427499999999995,2.4440999999940374,2.4607999999821146,2.4816999999880736,2.4979999999999976,2.513999999999996,2.5296999999880754,2.5489000000059576,2.564099999994035,2.57859999999404,2.596599999994041,2.6129999999999995,2.631799999982114,2.6467999999821146,2.663599999994041,2.677499999999995,2.6939999999999955,2.7147999999821195,2.729999999999997,2.7439999999999998,2.7620000000000005,2.778500000000001,2.798499999999997,2.8135999999940395,2.828699999988075,2.8451999999880755,2.863499999999995,2.8820999999940398,2.897500000000001,2.9106999999880756,2.92740000000596,2.9439000000059607,2.96519999998808,2.9795999999940364,2.994499999999995,3.0144000000059563,3.030099999994036,3.0481999999880784,3.0634999999999977,3.079299999982119,3.0960999999940384,3.1114000000059576,3.127400000005956,3.1445000000000007,3.160599999994041,3.17740000000596,3.1939999999999955,3.21519999998808,3.2304000000059574,3.243900000005958,3.260699999988077,3.2772999999821195,3.2966999999880784,3.3120999999940395,3.3274000000059587,3.3460999999940384,3.361099999994039,3.377400000005956,3.3952999999821145,3.4125000000000014]","[1732768934575,1732768934607,1732768934620,1732768934640,1732768934659,1732768934667,1732768934678,1732768934694,1732768934711,1732768934727,1732768934744,1732768934761,1732768934782,1732768934795,1732768934811,1732768934827,1732768934844,1732768934861,1732768934878,1732768934894,1732768934911,1732768934927,1732768934944,1732768934961,1732768934977,1732768934996,1732768935013,1732768935027,1732768935047,1732768935061,1732768935078,1732768935094,1732768935114,1732768935128,1732768935144,1732768935163,1732768935178,1732768935194,1732768935214,1732768935231,1732768935244,1732768935261,1732768935282,1732768935297,1732768935311,1732768935328,1732768935346,1732768935365,1732768935379,1732768935397,1732768935413,1732768935428,1732768935447,1732768935462,1732768935478,1732768935494,1732768935516,1732768935532,1732768935546,1732768935561,1732768935577,1732768935596,1732768935615,1732768935629,1732768935644,1732768935663,1732768935679,1732768935694,1732768935711,1732768935727,1732768935748,1732768935763,1732768935782,1732768935796,1732768935814,1732768935829,1732768935844,1732768935864,1732768935878,1732768935894,1732768935911,1732768935930,1732768935948,1732768935963,1732768935978,1732768935994,1732768936011,1732768936028,1732768936050,1732768936065,1732768936079,1732768936094,1732768936114,1732768936129,1732768936145,1732768936161,1732768936182,1732768936198,1732768936213,1732768936232,1732768936247,1732768936261,1732768936278,1732768936297,1732768936311,1732768936328,1732768936345,1732768936363,1732768936379,1732768936394,1732768936414,1732768936434,1732768936448,1732768936464,1732768936479,1732768936495,1732768936511,1732768936527,1732768936546,1732768936561,1732768936577,1732768936594,1732768936611,1732768936629,1732768936644,1732768936661,1732768936678,1732768936694,1732768936713,1732768936728,1732768936746,1732768936762,1732768936778,1732768936794,1732768936811,1732768936830,1732768936845,1732768936861,1732768936880,1732768936897,1732768936913,1732768936927,1732768936944,1732768936962,1732768936978,1732768936994,1732768937011,1732768937028,1732768937048,1732768937065,1732768937081,1732768937096,1732768937116,1732768937131,1732768937145,1732768937163,1732768937180,1732768937199,1732768937214,1732768937230,1732768937244,1732768937261,1732768937282,1732768937297,1732768937311,1732768937329,1732768937345,1732768937365,1732768937380,1732768937395,1732768937412,1732768937430,1732768937449,1732768937464,1732768937477,1732768937494,1732768937511,1732768937532,1732768937546,1732768937561,1732768937581,1732768937597,1732768937615,1732768937630,1732768937646,1732768937663,1732768937678,1732768937694,1732768937711,1732768937727,1732768937744,1732768937761,1732768937782,1732768937797,1732768937811,1732768937827,1732768937844,1732768937863,1732768937879,1732768937894,1732768937913,1732768937928,1732768937944,1732768937962,1732768937979]","[[728.9,474.1],[728.9,474.1],[715.4,478.9],[715.4,478.9],[714.3,481.7],[714.3,481.7],[729.8,478.3],[702.5,484.3],[712.1,470.8],[695.8,449.2],[695.8,449.2],[679.9,448.3],[701.5,437.2],[730.7,428.2],[744,423.1],[762.2,423.6],[776.1,418.4],[775.4,414.5],[765.8,419.9],[751.3,436.5],[795.2,422.8],[834,409.2],[812.4,415],[808.3,420.3],[791.7,416.9],[775.1,413.5],[791,395.9],[791,395.9],[822.6,383.3],[822.6,383.3],[874.7,374],[882.1,366.3],[859.5,381.1],[835.2,396.8],[835.7,398],[835.7,398],[831.3,394.3],[873.6,377.8],[888.4,390.7],[882.3,406],[863,424.5],[841.9,429.3],[840.3,450.5],[844.6,447.4],[844.6,447.4],[853,459.2],[870.2,468.5],[873.5,473.8],[862.4,495],[872.4,489.2],[868.5,503.9],[864.8,513.8],[847,552],[856.4,536.7],[848.9,541.4],[848.9,541.4],[839,530.3],[836.2,522.8],[834.7,524.7],[803.1,538.4],[803.1,538.4],[773,553.5],[793,574.9],[813,596.3],[854.3,575.9],[887.3,596],[871.2,642.2],[855.1,688.4],[848.7,716.9],[827.1,776.1],[860.3,802.6],[885,812.7],[876.7,793.5],[868.4,774.3],[860.9,762.5],[855.9,767.6],[888.7,727.5],[921.5,687.4],[921.5,687.4],[945,668.8],[932.8,625.3],[892,604.4],[893.2,599.2],[920.3,604.1],[941,611.9],[950.3,624],[950.3,624],[950.6,623.4],[1011.3,629.1],[1048.5,646.9],[1081.3,647.8],[1130.5,657.1],[1185.5,652.5],[1210.6,648.5],[1243.8,644.9],[1243.8,644.9],[1274.4,643],[1257.4,642.3],[1277.7,607.3],[1248.9,585.1],[1221.3,574.7],[1221.3,574.7],[1181.8,576.3],[1197.7,558.2],[1205.3,544],[1214.2,526.1],[1185.7,534.4],[1149.7,528.2],[1154.9,523.7],[1129.3,549.3],[1082,580.6],[1082.4,577.3],[1071.2,585.6],[1039.1,599.4],[1005.1,645.2],[1018.1,662.2],[909.3,661.7],[817,671.1],[776.6,653.4],[740.3,649],[740.3,649],[752.6,646.4],[704.7,640.8],[668.4,623.6],[717.6,594.9],[717.6,594.9],[765.4,546.4],[723.1,558.8],[825.5,533],[941.8,513.9],[1006.2,521.9],[1062.5,515],[1062.5,515],[1091.9,500.6],[1173.4,493.7],[1251.6,485.8],[1247.6,514.3],[1249.4,540.6],[1298.8,537.9],[1330.5,563.8],[1297.7,594.5],[1264.9,625.2],[1264.3,641.6],[1263.7,658],[1263.7,658],[1256.3,672.5],[1256.3,672.5],[1210.5,694.9],[1179.7,666.9],[1140.7,653.4],[1128.7,620],[1109.3,569.2],[1140.5,506.9],[1201.2,446],[1233.7,401],[1264.3,367.7],[1284.4,342.5],[1347.1,309.2],[1395.3,293],[1451.7,262.3],[1456.9,279.5],[1469.5,314.1],[1477.4,326.9],[1455.8,338.3],[1422.3,361.9],[1390.7,373.8],[1385.9,375.3],[1380.2,378],[1349.9,390],[1319.6,402],[1276.9,389.4],[1236.4,379.2],[1199.3,398.9],[1210.7,391.1],[1210.7,391.1],[1234,371.1],[1269.2,350.9],[1271.3,341.8],[1251.2,339.2],[1268.1,338.2],[1285,337.2],[1334,329.7],[1332.9,339.3],[1320.2,357.6],[1252.6,382.7],[1186.5,415.8],[1089.1,462.1],[1003,503],[955.4,508.6],[891.6,511.7],[891.6,511.7],[837.1,521.9],[766.5,535.7],[743.8,530],[743.8,530],[758.1,494.3],[700.5,506.4],[641.4,510.5],[628.5,510.4],[656.7,493],[684,497.7],[701.5,523.9],[709.7,543],[653.4,579.9],[654.8,615.3]]","[0,0.37864299999999995]","[0.37864299999999995,0.37864299999999995]","[-0.37864299999999995,-0.37864299999999995]","[-0.37864299999999995,0]","[0,-0.37864299999999995]","[0.37864299999999995,-0.37864299999999995]","[0,0]","[0.37864299999999995,0]",0,0,0,0,1,2,Laptop,7,1,11,9
,,,,,,,,,,,,,,,,,,,,33,001,2024-11-28_12h41.33.192,Attention_exp_legacy,2023.1.0,Win32,59.88023952,,,,,,,,,,[-0.00625],[0.3685185185185185],[1],[0],[0],[1.9158000000119202],"[""Option1_label""]",Option1_label,2,2.9182,"[[0.36770833333333336,0.3074074074074074],[0.36770833333333336,0.3074074074074074],[0.36770833333333336,0.3055555555555556],[0.36770833333333336,0.3055555555555556],[0.36770833333333336,0.3037037037037037],[0.36666666666666664,0.29814814814814816],[0.365625,0.29444444444444445],[0.3614583333333333,0.28888888888888886],[0.35833333333333334,0.2814814814814815],[0.35208333333333336,0.27037037037037037],[0.346875,0.26296296296296295],[0.340625,0.2518518518518518],[0.334375,0.24444444444444444],[0.3260416666666667,0.23333333333333334],[0.31145833333333334,0.21666666666666667],[0.29270833333333335,0.1962962962962963],[0.2708333333333333,0.17592592592592593],[0.24166666666666667,0.14814814814814814],[0.23229166666666667,0.1388888888888889],[0.21666666666666667,0.11851851851851852],[0.18958333333333333,0.08518518518518518],[0.16979166666666667,0.06111111111111111],[0.14375,0.02962962962962963],[0.11145833333333334,-0.001851851851851852],[0.06145833333333333,-0.053703703703703705],[0.005208333333333333,-0.11296296296296296],[-0.041666666666666664,-0.16111111111111112],[-0.07916666666666666,-0.20555555555555555],[-0.109375,-0.2388888888888889],[-0.13229166666666667,-0.26481481481481484],[-0.15833333333333333,-0.29444444444444445],[-0.1625,-0.3],[-0.18229166666666666,-0.31851851851851853],[-0.19583333333333333,-0.3277777777777778],[-0.209375,-0.3351851851851852],[-0.22291666666666668,-0.3425925925925926],[-0.23333333333333334,-0.34444444444444444],[-0.23645833333333333,-0.35],[-0.24166666666666667,-0.35],[-0.24479166666666666,-0.35185185185185186],[-0.24791666666666667,-0.3537037037037037],[-0.24791666666666667,-0.3537037037037037],[-0.25,-0.3537037037037037],[-0.25,-0.3537037037037037],[-0.25,-0.3537037037037037],[-0.25,-0.3537037037037037],[-0.25,-0.3537037037037037],[-0.25,-0.3537037037037037],[-0.24583333333333332,-0.3537037037037037],[-0.23229166666666667,-0.3537037037037037],[-0.209375,-0.34629629629629627],[-0.18229166666666666,-0.3388888888888889],[-0.1375,-0.3296296296296296],[-0.103125,-0.32222222222222224],[-0.06145833333333333,-0.3148148148148148],[-0.03958333333333333,-0.30925925925925923],[0.028125,-0.30925925925925923],[0.121875,-0.30925925925925923],[0.178125,-0.30925925925925923],[0.22708333333333333,-0.30925925925925923],[0.26666666666666666,-0.30925925925925923],[0.29583333333333334,-0.30925925925925923],[0.32083333333333336,-0.30925925925925923],[0.33958333333333335,-0.3074074074074074],[0.35104166666666664,-0.3055555555555556],[0.36354166666666665,-0.30185185185185187],[0.371875,-0.3],[0.37604166666666666,-0.3],[0.378125,-0.3],[0.37916666666666665,-0.3],[0.37916666666666665,-0.3],[0.37916666666666665,-0.3],[0.37916666666666665,-0.3],[0.37916666666666665,-0.3],[0.37916666666666665,-0.3],[0.37916666666666665,-0.3],[0.37916666666666665,-0.3],[0.37916666666666665,-0.3],[0.37916666666666665,-0.3],[0.37916666666666665,-0.3],[0.37916666666666665,-0.3],[0.37916666666666665,-0.3],[0.37916666666666665,-0.3],[0.37916666666666665,-0.3],[0.37916666666666665,-0.3],[0.37916666666666665,-0.3],[0.37916666666666665,-0.3],[0.3802083333333333,-0.29814814814814816],[0.3802083333333333,-0.2962962962962963],[0.371875,-0.28888888888888886],[0.334375,-0.2518518518518518],[0.30625,-0.22407407407407406],[0.22083333333333333,-0.1388888888888889],[0.07708333333333334,0.03148148148148148],[0.023958333333333335,0.10925925925925926],[-0.003125,0.15925925925925927],[-0.009375,0.18333333333333332],[-0.0125,0.21481481481481482],[-0.0125,0.22777777777777777],[-0.0125,0.25],[-0.0125,0.2740740740740741],[-0.0125,0.3055555555555556],[-0.014583333333333334,0.3148148148148148],[-0.014583333333333334,0.32407407407407407],[-0.014583333333333334,0.3333333333333333],[-0.014583333333333334,0.3351851851851852],[-0.014583333333333334,0.337037037037037],[-0.013541666666666667,0.3388888888888889],[-0.013541666666666667,0.34074074074074073],[-0.011458333333333333,0.34814814814814815],[-0.008333333333333333,0.35555555555555557],[-0.008333333333333333,0.362962962962963],[-0.00625,0.3685185185185185],[-0.00625,0.3685185185185185],[-0.00625,0.3685185185185185],[-0.00625,0.3685185185185185],[-0.00625,0.3685185185185185],[-0.00625,0.3685185185185185],[-0.00625,0.3685185185185185],[-0.00625,0.3685185185185185],[-0.00625,0.3685185185185185],[-0.00625,0.3685185185185185],[-0.00625,0.3685185185185185],[-0.00625,0.3685185185185185],[-0.00625,0.3685185185185185],[-0.00625,0.3685185185185185],[-0.00625,0.3685185185185185],[-0.00625,0.3685185185185185],[-0.00625,0.3685185185185185],[-0.00625,0.3685185185185185],[-0.00625,0.3685185185185185],[-0.00625,0.3685185185185185],[-0.00625,0.3685185185185185],[-0.00625,0.3685185185185185],[-0.00625,0.3685185185185185],[-0.00625,0.3685185185185185],[-0.00625,0.3685185185185185],[-0.00625,0.3685185185185185],[-0.00625,0.3685185185185185],[-0.00625,0.3685185185185185],[-0.00625,0.3685185185185185],[-0.00625,0.3685185185185185],[-0.00625,0.3685185185185185],[-0.00625,0.3685185185185185],[-0.00625,0.3685185185185185],[-0.00625,0.3685185185185185],[-0.00625,0.3685185185185185],[-0.00625,0.3685185185185185],[-0.00625,0.3685185185185185],[-0.00625,0.3685185185185185],[-0.00625,0.3685185185185185],[-0.00625,0.3685185185185185],[-0.00625,0.3685185185185185],[-0.00625,0.3685185185185185],[-0.00625,0.3685185185185185],[-0.00625,0.3685185185185185],[-0.00625,0.3685185185185185],[-0.00625,0.3685185185185185],[-0.00625,0.3685185185185185],[-0.00625,0.3685185185185185],[-0.00625,0.3685185185185185],[-0.00625,0.3685185185185185],[-0.00625,0.3685185185185185],[-0.00625,0.3685185185185185],[-0.00625,0.3685185185185185],[-0.00625,0.3685185185185185],[-0.00625,0.3685185185185185],[-0.00625,0.3685185185185185],[-0.00625,0.3685185185185185],[-0.00625,0.3685185185185185],[-0.00625,0.3685185185185185],[-0.00625,0.3685185185185185],[-0.00625,0.3685185185185185],[-0.00625,0.3685185185185185],[-0.00625,0.3685185185185185],[-0.00625,0.3685185185185185]]","[[0.05947916666666669,0.16277777777777774],[0.019479166666666714,0.1618518518518518],[0.019479166666666714,0.1618518518518518],[0.004479166666666619,0.17796296296296302],[0.005520833333333286,0.16796296296296304],[0.03083333333333336,0.125],[0.03083333333333336,0.125],[0.028125,0.11537037037037029],[0.04833333333333331,0.05018518518518523],[0.07218749999999995,0.013518518518518435],[0.06468750000000002,0.03481481481481473],[0.028437499999999952,0.010370370370370412],[0.022083333333333382,0.06648148148148143],[0.07395833333333333,-0.0020370370370370794],[0.12114583333333329,-0.06944444444444445],[0.12114583333333329,-0.06944444444444445],[0.14718749999999994,-0.08129629629629626],[0.15614583333333343,-0.1190740740740741],[0.1912499999999999,-0.1881481481481482],[0.1609375,-0.11777777777777781],[0.1306250000000001,-0.04740740740740745],[0.13145833333333337,-0.07666666666666662],[0.13229166666666667,-0.10592592592592591],[0.15875000000000009,-0.1235185185185185],[0.14562499999999995,-0.08962962962962959],[0.13989583333333327,-0.016111111111111194],[0.128125,0.02444444444444453],[0.11552083333333343,0.05722222222222218],[0.11552083333333343,0.05722222222222218],[0.08041666666666672,0.14888888888888885],[0.09354166666666662,0.15222222222222231],[0.0896874999999999,0.10685185185185193],[0.09135416666666671,0.12722222222222232],[0.09302083333333329,0.14759259259259266],[0.07864583333333333,0.19796296296296292],[0.04656250000000005,0.23129629629629625],[0.007083333333333286,0.225],[-0.016562499999999977,0.23148148148148148],[-0.05135416666666662,0.29981481481481476],[-0.07322916666666662,0.3274074074074073],[-0.07322916666666662,0.3274074074074073],[-0.06520833333333335,0.26425925925925936],[-0.06677083333333336,0.2920370370370371],[-0.04031250000000005,0.33833333333333343],[-0.04031250000000005,0.33833333333333343],[-0.034791666666666644,0.342962962962963],[-0.034895833333333334,0.2800000000000001],[-0.04645833333333336,0.2566666666666667],[-0.04489583333333336,0.2205555555555556],[-0.084375,0.19592592592592584],[-0.08697916666666666,0.14962962962962956],[-0.10833333333333334,0.12111111111111107],[-0.15958333333333338,0.18333333333333332],[-0.1967708333333333,0.2192592592592592],[-0.2797916666666667,0.2],[-0.34187500000000004,0.22240740740740744],[-0.36593749999999997,0.2837037037037038],[-0.3307291666666667,0.3042592592592592],[-0.26968749999999997,0.32314814814814813],[-0.18343750000000003,0.3177777777777778],[-0.1530208333333333,0.3485185185185186],[-0.1530208333333333,0.3485185185185186],[-0.1125,0.3640740740740741],[-0.1125,0.3640740740740741],[-0.008333333333333333,0.2972222222222222],[-0.008333333333333333,0.2972222222222222],[0.06958333333333329,0.25999999999999995],[0.15854166666666672,0.2153703703703703],[0.24749999999999991,0.17074074074074083],[0.2747916666666666,0.15777777777777785],[0.2803124999999999,0.16629629629629622],[0.27541666666666675,0.14833333333333337],[0.2705208333333334,0.13037037037037033],[0.28885416666666663,0.14092592592592595],[0.28885416666666663,0.14092592592592595],[0.32541666666666674,0.1307407407407408],[0.2897916666666667,0.19388888888888897],[0.27197916666666655,0.2294444444444444],[0.27197916666666655,0.2294444444444444],[0.2681250000000001,0.29314814814814805],[0.24114583333333334,0.3472222222222222],[0.23385416666666667,0.3566666666666667],[0.2205208333333334,0.35999999999999993],[0.17864583333333334,0.40425925925925915],[0.13677083333333329,0.4485185185185186],[0.11062500000000004,0.44074074074074077],[0.08447916666666658,0.4329629629629629],[0.06697916666666662,0.4227777777777777],[0.06697916666666662,0.4227777777777777],[0.09333333333333324,0.4022222222222223],[0.08854166666666667,0.3998148148148148],[0.10197916666666676,0.3977777777777777],[0.10197916666666676,0.3977777777777777],[0.13156249999999994,0.3714814814814815],[0.1571875000000001,0.37462962962962953],[0.16927083333333334,0.33185185185185195],[0.1681250000000001,0.29907407407407405],[0.1603125000000001,0.30055555555555546],[0.1603125000000001,0.30055555555555546],[0.1,0.2681481481481481],[0.03958333333333333,0.24722222222222223],[0.015312500000000047,0.24148148148148144],[0.015312500000000047,0.24148148148148144],[-0.02322916666666662,0.14314814814814805],[-0.08812500000000002,0.06314814814814819],[-0.16916666666666663,0.007407407407407408],[-0.16916666666666663,0.007407407407407408],[-0.18562500000000004,-0.07999999999999997],[-0.18854166666666666,-0.12148148148148152],[-0.18541666666666667,-0.182962962962963],[-0.19375,-0.252962962962963],[-0.1727083333333333,-0.2161111111111111],[-0.1516666666666667,-0.17925925925925928],[-0.1516666666666667,-0.17925925925925928],[-0.1736458333333334,-0.2522222222222222],[-0.16343749999999999,-0.23018518518518521],[-0.1219791666666667,-0.21722222222222223],[-0.07895833333333328,-0.22666666666666663],[-0.07895833333333328,-0.22666666666666663],[-0.05697916666666671,-0.25018518518518523],[-0.0858333333333333,-0.2559259259259259],[-0.0858333333333333,-0.2559259259259259],[-0.10302083333333331,-0.20925925925925926],[-0.13354166666666673,-0.20907407407407402],[-0.14958333333333335,-0.2627777777777777],[-0.18239583333333337,-0.277962962962963],[-0.19166666666666668,-0.2462962962962963],[-0.20031249999999995,-0.2433333333333333],[-0.246875,-0.18981481481481483],[-0.29500000000000004,-0.11388888888888889],[-0.319375,-0.0764814814814815],[-0.33947916666666667,0.01314814814814819],[-0.3640625,0.060370370370370414],[-0.3132291666666667,-0.006111111111111027],[-0.3419791666666666,0.018333333333333292],[-0.32447916666666665,0.028703703703703703],[-0.34656250000000005,0.07925925925925917],[-0.3273958333333333,0.07666666666666662],[-0.27374999999999994,0.01055555555555564],[-0.27218749999999997,-0.01592592592592597],[-0.27218749999999997,-0.01592592592592597],[-0.2959375,-0.02166666666666675],[-0.30927083333333333,-0.009814814814814731],[-0.30927083333333333,-0.009814814814814731],[-0.27718750000000003,-0.04722222222222222],[-0.32083333333333336,0.049629629629629544],[-0.27625000000000005,0.036481481481481566],[-0.2543750000000001,-0.04888888888888885],[-0.23427083333333332,-0.1346296296296296],[-0.23427083333333332,-0.1346296296296296],[-0.24479166666666666,-0.11796296296296294],[-0.24989583333333332,-0.12166666666666665],[-0.23156249999999995,-0.16500000000000004],[-0.2452083333333333,-0.16814814814814816],[-0.2452083333333333,-0.16814814814814816],[-0.22708333333333333,-0.20611111111111113],[-0.22520833333333337,-0.24648148148148152],[-0.20562499999999997,-0.322037037037037],[-0.19624999999999998,-0.3611111111111111],[-0.2203125,-0.26370370370370366],[-0.29104166666666664,-0.14425925925925923],[-0.32687499999999997,-0.09648148148148153],[-0.36749999999999994,-0.072037037037037],[-0.32749999999999996,-0.05740740740740741],[-0.29968750000000005,-0.05537037037037033],[-0.27854166666666663,-0.09907407407407408],[-0.3460416666666667,-0.018888888888888972],[-0.38937499999999997,0.08425925925925926],[-0.42250000000000004,0.15092592592592594],[-0.42250000000000004,0.15092592592592594],[-0.4189583333333334,0.10925925925925926],[-0.3607291666666666,0.044444444444444446],[-0.3061458333333333,-0.022592592592592678],[-0.28583333333333333,0.007592592592592635],[-0.3416666666666667,0.029814814814814856],[-0.3853125,0.06462962962962959]]","[[0.05947916666666669,0.16277777777777774,0.0003000000119186552],[0.019479166666666714,0.1618518518518518,0.02130000001191945],[0.019479166666666714,0.1618518518518518,0.0379999999999967],[0.004479166666666619,0.17796296296296302,0.049300000011918144],[0.005520833333333286,0.16796296296296304,0.06619999998807913],[0.03083333333333336,0.125,0.08730000001192195],[0.03083333333333336,0.125,0.0995999999940409],[0.028125,0.11537037037037029,0.11599999999999966],[0.04833333333333331,0.05018518518518523,0.13349999999999795],[0.07218749999999995,0.013518518518518435,0.15230000001191968],[0.06468750000000002,0.03481481481481473,0.1681999999880759],[0.028437499999999952,0.010370370370370412,0.18290000000595796],[0.022083333333333382,0.06648148148148143,0.20250000000000057],[0.07395833333333333,-0.0020370370370370794,0.21649999999999636],[0.12114583333333329,-0.06944444444444445,0.23280000001192036],[0.12114583333333329,-0.06944444444444445,0.24940000000595575],[0.14718749999999994,-0.08129629629629626,0.2679000000059588],[0.15614583333333343,-0.1190740740740741,0.2866999999880804],[0.1912499999999999,-0.1881481481481482,0.3009999999999948],[0.1609375,-0.11777777777777781,0.3159999999999954],[0.1306250000000001,-0.04740740740740745,0.33549999999999613],[0.13145833333333337,-0.07666666666666662,0.3523000000119225],[0.13229166666666667,-0.10592592592592591,0.3695999999940369],[0.15875000000000009,-0.1235185185185185,0.3859000000059609],[0.14562499999999995,-0.08962962962962959,0.4005999999940357],[0.13989583333333327,-0.016111111111111194,0.4159999999999968],[0.128125,0.02444444444444453,0.4328000000119161],[0.11552083333333343,0.05722222222222218,0.4538000000119169],[0.11552083333333343,0.05722222222222218,0.4661999999880777],[0.08041666666666672,0.14888888888888885,0.48280000001192036],[0.09354166666666662,0.15222222222222231,0.5020999999940372],[0.0896874999999999,0.10685185185185193,0.5159999999999982],[0.09135416666666671,0.12722222222222232,0.536199999988078],[0.09302083333333329,0.14759259259259266,0.550099999994039],[0.07864583333333333,0.19796296296296292,0.568599999994035],[0.04656250000000005,0.23129629629629625,0.5829000000059565],[0.007083333333333286,0.225,0.5994000000059572],[-0.016562499999999977,0.23148148148148148,0.6160999999940344],[-0.05135416666666662,0.29981481481481476,0.6350999999940399],[-0.07322916666666662,0.3274074074074073,0.6494999999999962],[-0.07322916666666662,0.3274074074074073,0.6659999999999968],[-0.06520833333333335,0.26425925925925936,0.6825999999940393],[-0.06677083333333336,0.2920370370370371,0.7044000000059611],[-0.04031250000000005,0.33833333333333343,0.7186999999880754],[-0.04031250000000005,0.33833333333333343,0.7325000000000017],[-0.034791666666666644,0.342962962962963,0.749199999988079],[-0.034895833333333334,0.2800000000000001,0.7686999999880797],[-0.04645833333333336,0.2566666666666667,0.7864000000059619],[-0.04489583333333336,0.2205555555555556,0.8019000000059577],[-0.084375,0.19592592592592584,0.8159999999999954],[-0.08697916666666666,0.14962962962962956,0.8334000000059589],[-0.10833333333333334,0.12111111111111107,0.8493000000119224],[-0.15958333333333338,0.18333333333333332,0.8704999999999998],[-0.1967708333333333,0.2192592592592592,0.8859000000059609],[-0.2797916666666667,0.2,0.9020999999940358],[-0.34187500000000004,0.22240740740740744,0.9159999999999968],[-0.36593749999999997,0.2837037037037038,0.934400000005958],[-0.3307291666666667,0.3042592592592592,0.9494000000059586],[-0.26968749999999997,0.32314814814814813,0.9674000000059593],[-0.18343750000000003,0.3177777777777778,0.9876999999880809],[-0.1530208333333333,0.3485185185185186,1.0028000000119164],[-0.1530208333333333,0.3485185185185186,1.01609999999404],[-0.1125,0.3640740740740741,1.0329000000059594],[-0.1125,0.3640740740740741,1.0520999999940344],[-0.008333333333333333,0.2972222222222222,1.0660999999940373],[-0.008333333333333333,0.2972222222222222,1.0829000000059565],[0.06958333333333329,0.25999999999999995,1.1013000000119177],[0.15854166666666672,0.2153703703703703,1.120400000005958],[0.24749999999999991,0.17074074074074083,1.1345999999940375],[0.2747916666666666,0.15777777777777785,1.1493000000119196],[0.2803124999999999,0.16629629629629622,1.165900000005962],[0.27541666666666675,0.14833333333333337,1.1825999999940393],[0.2705208333333334,0.13037037037037033,1.1991999999880747],[0.28885416666666663,0.14092592592592595,1.2194000000059617],[0.28885416666666663,0.14092592592592595,1.2325000000000017],[0.32541666666666674,0.1307407407407408,1.249199999988079],[0.2897916666666667,0.19388888888888897,1.2659000000059564],[0.27197916666666655,0.2294444444444444,1.2874000000059596],[0.27197916666666655,0.2294444444444444,1.2991999999880761],[0.2681250000000001,0.29314814814814805,1.3159000000059606],[0.24114583333333334,0.3472222222222222,1.3329999999999984],[0.23385416666666667,0.3566666666666667,1.3491999999880804],[0.2205208333333334,0.35999999999999993,1.3659000000059578],[0.17864583333333334,0.40425925925925915,1.384999999999998],[0.13677083333333329,0.4485185185185186,1.3993000000119196],[0.11062500000000004,0.44074074074074077,1.4200999999940365],[0.08447916666666658,0.4329629629629629,1.435199999988079],[0.06697916666666662,0.4227777777777777,1.4560999999940378],[0.06697916666666662,0.4227777777777777,1.466000000000001],[0.09333333333333324,0.4022222222222223,1.4829000000059622],[0.08854166666666667,0.3998148148148148,1.5014000000059582],[0.10197916666666676,0.3977777777777777,1.520900000005959],[0.10197916666666676,0.3977777777777777,1.5331999999880779],[0.13156249999999994,0.3714814814814815,1.54940000000596],[0.1571875000000001,0.37462962962962953,1.5689999999999955],[0.16927083333333334,0.33185185185185195,1.5854000000059614],[0.1681250000000001,0.29907407407407405,1.6019999999999968],[0.1603125000000001,0.30055555555555546,1.624300000011921],[0.1603125000000001,0.30055555555555546,1.634099999994035],[0.1,0.2681481481481481,1.6493000000119196],[0.03958333333333333,0.24722222222222223,1.6666999999880758],[0.015312500000000047,0.24148148148148144,1.6904000000059582],[0.015312500000000047,0.24148148148148144,1.6994000000059586],[-0.02322916666666662,0.14314814814814805,1.716000000000001],[-0.08812500000000002,0.06314814814814819,1.733699999988076],[-0.16916666666666663,0.007407407407407408,1.7535999999940373],[-0.16916666666666663,0.007407407407407408,1.7659999999999982],[-0.18562500000000004,-0.07999999999999997,1.7828000000119175],[-0.18854166666666666,-0.12148148148148152,1.8013000000119206],[-0.18541666666666667,-0.182962962962963,1.820099999994035],[-0.19375,-0.252962962962963,1.8353000000119195],[-0.1727083333333333,-0.2161111111111111,1.8494000000059572],[-0.1516666666666667,-0.17925925925925928,1.8711999999880788],[-0.1516666666666667,-0.17925925925925928,1.8825000000000003],[-0.1736458333333334,-0.2522222222222222,1.8993000000119196],[-0.16343749999999999,-0.23018518518518521,1.9179000000059574],[-0.1219791666666667,-0.21722222222222223,1.9338000000119209],[-0.07895833333333328,-0.22666666666666663,1.9540999999940354],[-0.07895833333333328,-0.22666666666666663,1.9659000000059592],[-0.05697916666666671,-0.25018518518518523,1.985999999999997],[-0.0858333333333333,-0.2559259259259259,2.0034999999999954],[-0.0858333333333333,-0.2559259259259259,2.0159999999999982],[-0.10302083333333331,-0.20925925925925926,2.0326999999880755],[-0.13354166666666673,-0.20907407407407402,2.052499999999995],[-0.14958333333333335,-0.2627777777777777,2.0698000000119166],[-0.18239583333333337,-0.277962962962963,2.0859000000059567],[-0.19166666666666668,-0.2462962962962963,2.1020999999940386],[-0.20031249999999995,-0.2433333333333333,2.1206999999880765],[-0.246875,-0.18981481481481483,2.1359999999999957],[-0.29500000000000004,-0.11388888888888889,2.1509000000059615],[-0.319375,-0.0764814814814815,2.168300000011918],[-0.33947916666666667,0.01314814814814819,2.1849000000059604],[-0.3640625,0.060370370370370414,2.203800000011917],[-0.3132291666666667,-0.006111111111111027,2.219900000005957],[-0.3419791666666666,0.018333333333333292,2.235999999999997],[-0.32447916666666665,0.028703703703703703,2.2519000000059606],[-0.34656250000000005,0.07925925925925917,2.2670999999940378],[-0.3273958333333333,0.07666666666666662,2.286900000005957],[-0.27374999999999994,0.01055555555555564,2.30240000000596],[-0.27218749999999997,-0.01592592592592597,2.317199999988077],[-0.27218749999999997,-0.01592592592592597,2.3324000000059613],[-0.2959375,-0.02166666666666675,2.3491999999880804],[-0.30927083333333333,-0.009814814814814731,2.365900000005958],[-0.30927083333333333,-0.009814814814814731,2.3825000000000003],[-0.27718750000000003,-0.04722222222222222,2.3991999999880775],[-0.32083333333333336,0.049629629629629544,2.41580000001192],[-0.27625000000000005,0.036481481481481566,2.4325999999940393],[-0.2543750000000001,-0.04888888888888885,2.4491999999880747],[-0.23427083333333332,-0.1346296296296296,2.46819999998808],[-0.23427083333333332,-0.1346296296296296,2.4825999999940365],[-0.24479166666666666,-0.11796296296296294,2.499199999988079],[-0.24989583333333332,-0.12166666666666665,2.5158000000119216],[-0.23156249999999995,-0.16500000000000004,2.5368000000119224],[-0.2452083333333333,-0.16814814814814816,2.551599999994039],[-0.2452083333333333,-0.16814814814814816,2.5658000000119188],[-0.22708333333333333,-0.20611111111111113,2.582599999994038],[-0.22520833333333337,-0.24648148148148152,2.5996999999880757],[-0.20562499999999997,-0.322037037037037,2.615900000005958],[-0.19624999999999998,-0.3611111111111111,2.6346999999880794],[-0.2203125,-0.26370370370370366,2.650500000000001],[-0.29104166666666664,-0.14425925925925923,2.6679999999999993],[-0.32687499999999997,-0.09648148148148153,2.6848000000119185],[-0.36749999999999994,-0.072037037037037,2.703800000011917],[-0.32749999999999996,-0.05740740740740741,2.71969999998808],[-0.29968750000000005,-0.05537037037037033,2.7365999999940414],[-0.27854166666666663,-0.09907407407407408,2.752199999988079],[-0.3460416666666667,-0.018888888888888972,2.7671999999880796],[-0.38937499999999997,0.08425925925925926,2.7871999999880757],[-0.42250000000000004,0.15092592592592594,2.8021999999880762],[-0.42250000000000004,0.15092592592592594,2.8158000000119188],[-0.4189583333333334,0.10925925925925926,2.832599999994038],[-0.3607291666666666,0.044444444444444446,2.8491999999880804],[-0.3061458333333333,-0.022592592592592678,2.8685999999940393],[-0.28583333333333333,0.007592592592592635,2.8854000000059585],[-0.3416666666666667,0.029814814814814856,2.900500000000001],[-0.3853125,0.06462962962962959,2.918199999988076]]","[0.0003000000119186552,0.02130000001191945,0.0379999999999967,0.049300000011918144,0.06619999998807913,0.08730000001192195,0.0995999999940409,0.11599999999999966,0.13349999999999795,0.15230000001191968,0.1681999999880759,0.18290000000595796,0.20250000000000057,0.21649999999999636,0.23280000001192036,0.24940000000595575,0.2679000000059588,0.2866999999880804,0.3009999999999948,0.3159999999999954,0.33549999999999613,0.3523000000119225,0.3695999999940369,0.3859000000059609,0.4005999999940357,0.4159999999999968,0.4328000000119161,0.4538000000119169,0.4661999999880777,0.48280000001192036,0.5020999999940372,0.5159999999999982,0.536199999988078,0.550099999994039,0.568599999994035,0.5829000000059565,0.5994000000059572,0.6160999999940344,0.6350999999940399,0.6494999999999962,0.6659999999999968,0.6825999999940393,0.7044000000059611,0.7186999999880754,0.7325000000000017,0.749199999988079,0.7686999999880797,0.7864000000059619,0.8019000000059577,0.8159999999999954,0.8334000000059589,0.8493000000119224,0.8704999999999998,0.8859000000059609,0.9020999999940358,0.9159999999999968,0.934400000005958,0.9494000000059586,0.9674000000059593,0.9876999999880809,1.0028000000119164,1.01609999999404,1.0329000000059594,1.0520999999940344,1.0660999999940373,1.0829000000059565,1.1013000000119177,1.120400000005958,1.1345999999940375,1.1493000000119196,1.165900000005962,1.1825999999940393,1.1991999999880747,1.2194000000059617,1.2325000000000017,1.249199999988079,1.2659000000059564,1.2874000000059596,1.2991999999880761,1.3159000000059606,1.3329999999999984,1.3491999999880804,1.3659000000059578,1.384999999999998,1.3993000000119196,1.4200999999940365,1.435199999988079,1.4560999999940378,1.466000000000001,1.4829000000059622,1.5014000000059582,1.520900000005959,1.5331999999880779,1.54940000000596,1.5689999999999955,1.5854000000059614,1.6019999999999968,1.624300000011921,1.634099999994035,1.6493000000119196,1.6666999999880758,1.6904000000059582,1.6994000000059586,1.716000000000001,1.733699999988076,1.7535999999940373,1.7659999999999982,1.7828000000119175,1.8013000000119206,1.820099999994035,1.8353000000119195,1.8494000000059572,1.8711999999880788,1.8825000000000003,1.8993000000119196,1.9179000000059574,1.9338000000119209,1.9540999999940354,1.9659000000059592,1.985999999999997,2.0034999999999954,2.0159999999999982,2.0326999999880755,2.052499999999995,2.0698000000119166,2.0859000000059567,2.1020999999940386,2.1206999999880765,2.1359999999999957,2.1509000000059615,2.168300000011918,2.1849000000059604,2.203800000011917,2.219900000005957,2.235999999999997,2.2519000000059606,2.2670999999940378,2.286900000005957,2.30240000000596,2.317199999988077,2.3324000000059613,2.3491999999880804,2.365900000005958,2.3825000000000003,2.3991999999880775,2.41580000001192,2.4325999999940393,2.4491999999880747,2.46819999998808,2.4825999999940365,2.499199999988079,2.5158000000119216,2.5368000000119224,2.551599999994039,2.5658000000119188,2.582599999994038,2.5996999999880757,2.615900000005958,2.6346999999880794,2.650500000000001,2.6679999999999993,2.6848000000119185,2.703800000011917,2.71969999998808,2.7365999999940414,2.752199999988079,2.7671999999880796,2.7871999999880757,2.8021999999880762,2.8158000000119188,2.832599999994038,2.8491999999880804,2.8685999999940393,2.8854000000059585,2.900500000000001,2.918199999988076]","[1732768938997,1732768939016,1732768939033,1732768939044,1732768939061,1732768939082,1732768939094,1732768939111,1732768939128,1732768939147,1732768939163,1732768939178,1732768939197,1732768939211,1732768939228,1732768939244,1732768939263,1732768939282,1732768939296,1732768939311,1732768939330,1732768939347,1732768939364,1732768939381,1732768939395,1732768939411,1732768939428,1732768939449,1732768939461,1732768939478,1732768939497,1732768939511,1732768939531,1732768939545,1732768939564,1732768939578,1732768939594,1732768939611,1732768939630,1732768939644,1732768939661,1732768939677,1732768939699,1732768939714,1732768939727,1732768939744,1732768939764,1732768939781,1732768939797,1732768939811,1732768939828,1732768939844,1732768939865,1732768939881,1732768939897,1732768939911,1732768939929,1732768939944,1732768939962,1732768939982,1732768939998,1732768940011,1732768940028,1732768940047,1732768940061,1732768940078,1732768940096,1732768940115,1732768940129,1732768940144,1732768940161,1732768940177,1732768940194,1732768940214,1732768940227,1732768940244,1732768940261,1732768940282,1732768940294,1732768940311,1732768940328,1732768940344,1732768940361,1732768940380,1732768940394,1732768940415,1732768940430,1732768940451,1732768940461,1732768940478,1732768940496,1732768940516,1732768940528,1732768940544,1732768940564,1732768940580,1732768940597,1732768940619,1732768940629,1732768940644,1732768940661,1732768940685,1732768940694,1732768940711,1732768940729,1732768940748,1732768940761,1732768940778,1732768940796,1732768940815,1732768940830,1732768940844,1732768940866,1732768940877,1732768940894,1732768940913,1732768940929,1732768940949,1732768940961,1732768940981,1732768940998,1732768941011,1732768941027,1732768941047,1732768941065,1732768941081,1732768941097,1732768941116,1732768941131,1732768941146,1732768941163,1732768941180,1732768941199,1732768941215,1732768941231,1732768941247,1732768941262,1732768941282,1732768941297,1732768941312,1732768941327,1732768941344,1732768941361,1732768941377,1732768941394,1732768941411,1732768941427,1732768941444,1732768941463,1732768941477,1732768941494,1732768941511,1732768941532,1732768941546,1732768941561,1732768941577,1732768941595,1732768941611,1732768941630,1732768941645,1732768941663,1732768941680,1732768941699,1732768941715,1732768941731,1732768941747,1732768941762,1732768941782,1732768941797,1732768941811,1732768941827,1732768941844,1732768941863,1732768941880,1732768941895,1732768941913]","[[1017.1,627.9],[978.7,627.4],[978.7,627.4],[964.3,636.1],[965.3,630.7],[989.6,607.5],[989.6,607.5],[987,602.3],[1006.4,567.1],[1029.3,547.3],[1022.1,558.8],[987.3,545.6],[981.2,575.9],[1031,538.9],[1076.3,502.5],[1076.3,502.5],[1101.3,496.1],[1109.9,475.7],[1143.6,438.4],[1114.5,476.4],[1085.4,514.4],[1086.2,498.6],[1087,482.8],[1112.4,473.3],[1099.8,491.6],[1094.3,531.3],[1083,553.2],[1070.9,570.9],[1070.9,570.9],[1037.2,620.4],[1049.8,622.2],[1046.1,597.7],[1047.7,608.7],[1049.3,619.7],[1035.5,646.9],[1004.7,664.9],[966.8,661.5],[944.1,665],[910.7,701.9],[889.7,716.8],[889.7,716.8],[897.4,682.7],[895.9,697.7],[921.3,722.7],[921.3,722.7],[926.6,725.2],[926.5,691.2],[915.4,678.6],[916.9,659.1],[879,645.8],[876.5,620.8],[856,605.4],[806.8,639],[771.1,658.4],[691.4,648],[631.8,660.1],[608.7,693.2],[642.5,704.3],[701.1,714.5],[783.9,711.6],[813.1,728.2],[813.1,728.2],[852,736.6],[852,736.6],[952,700.5],[952,700.5],[1026.8,680.4],[1112.2,656.3],[1197.6,632.2],[1223.8,625.2],[1229.1,629.8],[1224.4,620.1],[1219.7,610.4],[1237.3,616.1],[1237.3,616.1],[1272.4,610.6],[1238.2,644.7],[1221.1,663.9],[1221.1,663.9],[1217.4,698.3],[1191.5,727.5],[1184.5,732.6],[1171.7,734.4],[1131.5,758.3],[1091.3,782.2],[1066.2,778],[1041.1,773.8],[1024.3,768.3],[1024.3,768.3],[1049.6,757.2],[1045,755.9],[1057.9,754.8],[1057.9,754.8],[1086.3,740.6],[1110.9,742.3],[1122.5,719.2],[1121.4,701.5],[1113.9,702.3],[1113.9,702.3],[1056,684.8],[998,673.5],[974.7,670.4],[974.7,670.4],[937.7,617.3],[875.4,574.1],[797.6,544],[797.6,544],[781.8,496.8],[779,474.4],[782,441.2],[774,403.4],[794.2,423.3],[814.4,443.2],[814.4,443.2],[793.3,403.8],[803.1,415.7],[842.9,422.7],[884.2,417.6],[884.2,417.6],[905.3,404.9],[877.6,401.8],[877.6,401.8],[861.1,427],[831.8,427.1],[816.4,398.1],[784.9,389.9],[776,407],[767.7,408.6],[723,437.5],[676.8,478.5],[653.4,498.7],[634.1,547.1],[610.5,572.6],[659.3,536.7],[631.7,549.9],[648.5,555.5],[627.3,582.8],[645.7,581.4],[697.2,545.7],[698.7,531.4],[698.7,531.4],[675.9,528.3],[663.1,534.7],[663.1,534.7],[693.9,514.5],[652,566.8],[694.8,559.7],[715.8,513.6],[735.1,467.3],[735.1,467.3],[725,476.3],[720.1,474.3],[737.7,450.9],[724.6,449.2],[724.6,449.2],[742,428.7],[743.8,406.9],[762.6,366.1],[771.6,345],[748.5,397.6],[680.6,462.1],[646.2,487.9],[607.2,501.1],[645.6,509],[672.3,510.1],[692.6,486.5],[627.8,529.8],[586.2,585.5],[554.4,621.5],[554.4,621.5],[557.8,599],[613.7,564],[666.1,527.8],[685.6,544.1],[632,556.1],[590.1,574.9]]","[0,0.37864299999999995]","[0.37864299999999995,0.37864299999999995]","[-0.37864299999999995,-0.37864299999999995]","[-0.37864299999999995,0]","[0,-0.37864299999999995]","[0.37864299999999995,-0.37864299999999995]","[0,0]","[0.37864299999999995,0]",0,1,1,1,1,2,Laptop,13,7,11,1
