inst1_resp.keys,inst1_resp.rt,calibrationMouse.x,calibrationMouse.y,calibrationMouse.leftButton,calibrationMouse.midButton,calibrationMouse.rightButton,calibrationClick.x,calibrationClick.y,calibrationClick.leftButton,calibrationClick.midButton,calibrationClick.rightButton,calibrationClick.clicked_name,trialsc.thisRepN,trialsc.thisTrialN,trialsc.thisN,trialsc.thisIndex,trialsc.ran,calibration_x,calibration_y,participant,session,date,expName,psychopyVersion,OS,frameRate,ScreenRes_pixels,Camera_pixels,mouse_2.x,mouse_2.y,mouse_2.leftButton,mouse_2.midButton,mouse_2.rightButton,mouse_2.time,mouse_2.clicked_name,mouse.x,mouse.y,mouse.leftButton,mouse.midButton,mouse.rightButton,mouse.time,mouse.clicked_name,Choice,Trial,TrialDuration,MOUSE_GAZE,ET_GAZE,ET_GAZE_x_T,time,unixTime,ET_GAZE_NF,Loc_Option1_label,Loc_Option2_label,Loc_Cost_label,Loc_Qual_label,Loc_Option1_cost,Loc_Option2_cost,Loc_Option1_quality,Loc_Option2_quality,trials.thisRepN,trials.thisTrialN,trials.thisN,trials.thisIndex,trials.ran,Block,Device,cost1,qual1,cost2,qual2
space,2.4675,-0.391666667,0.172222222,1,0,0,0.00625,0.327777778,1,0,0,calibration_square,0,0,0,12,1,0,0.33,17,001,2024-12-02_15h22.34.892,Attention_exp_legacy,2023.1.0,Win32,59.88023952,,,,,,,,,,,,,,,,,,,,,,,,,,,,,,,,,,,,,,,,,,,,
,,,,,,,-0.313541667,0,1,0,0,,0,1,1,6,1,-0.33,0,17,001,2024-12-02_15h22.34.892,Attention_exp_legacy,2023.1.0,Win32,59.88023952,,,,,,,,,,,,,,,,,,,,,,,,,,,,,,,,,,,,,,,,,,,,
,,,,,,,-0.676041667,-0.003703704,1,0,0,calibration_square,0,2,2,2,1,-0.67,0,17,001,2024-12-02_15h22.34.892,Attention_exp_legacy,2023.1.0,Win32,59.88023952,,,,,,,,,,,,,,,,,,,,,,,,,,,,,,,,,,,,,,,,,,,,
,,,,,,,0,-0.327777778,1,0,0,calibration_square,0,3,3,10,1,0,-0.33,17,001,2024-12-02_15h22.34.892,Attention_exp_legacy,2023.1.0,Win32,59.88023952,,,,,,,,,,,,,,,,,,,,,,,,,,,,,,,,,,,,,,,,,,,,
,,,,,,,0,0.003703704,1,0,0,calibration_square,0,4,4,11,1,0,0,17,001,2024-12-02_15h22.34.892,Attention_exp_legacy,2023.1.0,Win32,59.88023952,,,,,,,,,,,,,,,,,,,,,,,,,,,,,,,,,,,,,,,,,,,,
,,,,,,,0.6625,0.659259259,1,0,0,,0,5,5,19,1,0.67,0.67,17,001,2024-12-02_15h22.34.892,Attention_exp_legacy,2023.1.0,Win32,59.88023952,,,,,,,,,,,,,,,,,,,,,,,,,,,,,,,,,,,,,,,,,,,,
,,,,,,,-0.332291667,0.311111111,1,0,0,,0,6,6,7,1,-0.33,0.33,17,001,2024-12-02_15h22.34.892,Attention_exp_legacy,2023.1.0,Win32,59.88023952,,,,,,,,,,,,,,,,,,,,,,,,,,,,,,,,,,,,,,,,,,,,
,,,,,,,-0.667708333,0.32962963,1,0,0,calibration_square,0,7,7,3,1,-0.67,0.33,17,001,2024-12-02_15h22.34.892,Attention_exp_legacy,2023.1.0,Win32,59.88023952,,,,,,,,,,,,,,,,,,,,,,,,,,,,,,,,,,,,,,,,,,,,
,,,,,,,-0.004166667,0.672222222,1,0,0,calibration_square,0,8,8,13,1,0,0.67,17,001,2024-12-02_15h22.34.892,Attention_exp_legacy,2023.1.0,Win32,59.88023952,,,,,,,,,,,,,,,,,,,,,,,,,,,,,,,,,,,,,,,,,,,,
,,,,,,,0.204166667,0.677777778,0,0,0,,0,9,9,18,1,0.33,0.67,17,001,2024-12-02_15h22.34.892,Attention_exp_legacy,2023.1.0,Win32,59.88023952,,,,,,,,,,,,,,,,,,,,,,,,,,,,,,,,,,,,,,,,,,,,
,,,,,,,-0.669791667,-0.698148148,1,0,0,,0,10,10,0,1,-0.67,-0.67,17,001,2024-12-02_15h22.34.892,Attention_exp_legacy,2023.1.0,Win32,59.88023952,,,,,,,,,,,,,,,,,,,,,,,,,,,,,,,,,,,,,,,,,,,,
,,,,,,,0.336458333,-0.335185185,1,0,0,calibration_square,0,11,11,15,1,0.33,-0.33,17,001,2024-12-02_15h22.34.892,Attention_exp_legacy,2023.1.0,Win32,59.88023952,,,,,,,,,,,,,,,,,,,,,,,,,,,,,,,,,,,,,,,,,,,,
,,,,,,,-0.316666667,0.67037037,1,0,0,,0,12,12,8,1,-0.33,0.67,17,001,2024-12-02_15h22.34.892,Attention_exp_legacy,2023.1.0,Win32,59.88023952,,,,,,,,,,,,,,,,,,,,,,,,,,,,,,,,,,,,,,,,,,,,
,,,,,,,-0.663541667,-0.340740741,1,0,0,,0,13,13,1,1,-0.67,-0.33,17,001,2024-12-02_15h22.34.892,Attention_exp_legacy,2023.1.0,Win32,59.88023952,,,,,,,,,,,,,,,,,,,,,,,,,,,,,,,,,,,,,,,,,,,,
,,,,,,,0.671875,-0.648148148,1,0,0,,0,14,14,20,1,0.67,-0.67,17,001,2024-12-02_15h22.34.892,Attention_exp_legacy,2023.1.0,Win32,59.88023952,,,,,,,,,,,,,,,,,,,,,,,,,,,,,,,,,,,,,,,,,,,,
,,,,,,,-0.316666667,-0.653703704,1,0,0,,0,15,15,4,1,-0.33,-0.67,17,001,2024-12-02_15h22.34.892,Attention_exp_legacy,2023.1.0,Win32,59.88023952,,,,,,,,,,,,,,,,,,,,,,,,,,,,,,,,,,,,,,,,,,,,
,,,,,,,0.325,0.011111111,1,0,0,,0,16,16,16,1,0.33,0,17,001,2024-12-02_15h22.34.892,Attention_exp_legacy,2023.1.0,Win32,59.88023952,,,,,,,,,,,,,,,,,,,,,,,,,,,,,,,,,,,,,,,,,,,,
,,,,,,,0.328125,-0.681481481,1,0,0,,0,17,17,14,1,0.33,-0.67,17,001,2024-12-02_15h22.34.892,Attention_exp_legacy,2023.1.0,Win32,59.88023952,,,,,,,,,,,,,,,,,,,,,,,,,,,,,,,,,,,,,,,,,,,,
,,,,,,,-0.002083333,-0.657407407,1,0,0,,0,18,18,9,1,0,-0.67,17,001,2024-12-02_15h22.34.892,Attention_exp_legacy,2023.1.0,Win32,59.88023952,,,,,,,,,,,,,,,,,,,,,,,,,,,,,,,,,,,,,,,,,,,,
,,,,,,,-0.329166667,-0.338888889,1,0,0,calibration_square,0,19,19,5,1,-0.33,-0.33,17,001,2024-12-02_15h22.34.892,Attention_exp_legacy,2023.1.0,Win32,59.88023952,,,,,,,,,,,,,,,,,,,,,,,,,,,,,,,,,,,,,,,,,,,,
,,,,,,,0.332291667,0.324074074,1,0,0,calibration_square,0,20,20,17,1,0.33,0.33,17,001,2024-12-02_15h22.34.892,Attention_exp_legacy,2023.1.0,Win32,59.88023952,,,,,,,,,,,,,,,,,,,,,,,,,,,,,,,,,,,,,,,,,,,,
,,,,,,,,,,,,,,,,,,,,17,001,2024-12-02_15h22.34.892,Attention_exp_legacy,2023.1.0,Win32,59.88023952,"[1920,1080]","[640,480]","[0.05625,0.042708333333333334]","[-0.43703703703703706,-0.4759259259259259]","[1,1]","[0,0]","[0,0]","[0.8830999999996294,1.8975000000000009]","[""StartButton""]",[0.16041666666666668],[0.14444444444444443],[1],[0],[0],[9.734799999998877],"[""Option2_label""]",Option2_label,1,10.7461,"[[-0.53125,0.562962962962963],[-0.53125,0.562962962962963],[-0.53125,0.562962962962963],[-0.53125,0.562962962962963],[-0.53125,0.562962962962963],[-0.53125,0.562962962962963],[-0.53125,0.562962962962963],[-0.53125,0.562962962962963],[-0.53125,0.562962962962963],[-0.53125,0.562962962962963],[-0.53125,0.562962962962963],[-0.53125,0.562962962962963],[-0.53125,0.562962962962963],[-0.53125,0.562962962962963],[-0.53125,0.562962962962963],[-0.53125,0.562962962962963],[-0.53125,0.562962962962963],[-0.53125,0.562962962962963],[-0.53125,0.562962962962963],[-0.53125,0.562962962962963],[-0.53125,0.562962962962963],[-0.53125,0.562962962962963],[-0.53125,0.562962962962963],[-0.53125,0.562962962962963],[-0.53125,0.562962962962963],[-0.53125,0.562962962962963],[-0.53125,0.562962962962963],[-0.53125,0.562962962962963],[-0.53125,0.562962962962963],[-0.53125,0.562962962962963],[-0.53125,0.562962962962963],[-0.53125,0.562962962962963],[-0.53125,0.562962962962963],[-0.53125,0.562962962962963],[-0.53125,0.562962962962963],[-0.53125,0.562962962962963],[-0.53125,0.562962962962963],[-0.53125,0.562962962962963],[-0.53125,0.562962962962963],[-0.53125,0.562962962962963],[-0.53125,0.562962962962963],[-0.53125,0.562962962962963],[-0.53125,0.562962962962963],[-0.53125,0.562962962962963],[-0.53125,0.562962962962963],[-0.53125,0.562962962962963],[-0.53125,0.562962962962963],[-0.53125,0.562962962962963],[-0.53125,0.562962962962963],[-0.53125,0.562962962962963],[-0.53125,0.562962962962963],[-0.53125,0.562962962962963],[-0.53125,0.562962962962963],[-0.53125,0.562962962962963],[-0.53125,0.562962962962963],[-0.53125,0.562962962962963],[-0.53125,0.562962962962963],[-0.53125,0.562962962962963],[-0.53125,0.562962962962963],[-0.53125,0.562962962962963],[-0.53125,0.562962962962963],[-0.53125,0.562962962962963],[-0.53125,0.562962962962963],[-0.53125,0.562962962962963],[-0.53125,0.562962962962963],[-0.53125,0.562962962962963],[-0.53125,0.562962962962963],[-0.53125,0.562962962962963],[-0.53125,0.562962962962963],[-0.53125,0.562962962962963],[-0.53125,0.562962962962963],[-0.53125,0.562962962962963],[-0.53125,0.562962962962963],[-0.53125,0.562962962962963],[-0.53125,0.562962962962963],[-0.53125,0.562962962962963],[-0.53125,0.562962962962963],[-0.53125,0.562962962962963],[-0.53125,0.562962962962963],[-0.53125,0.562962962962963],[-0.53125,0.562962962962963],[-0.53125,0.562962962962963],[-0.53125,0.562962962962963],[-0.53125,0.562962962962963],[-0.53125,0.562962962962963],[-0.53125,0.562962962962963],[-0.53125,0.562962962962963],[-0.53125,0.562962962962963],[-0.53125,0.562962962962963],[-0.53125,0.562962962962963],[-0.53125,0.562962962962963],[-0.53125,0.562962962962963],[-0.53125,0.562962962962963],[-0.53125,0.562962962962963],[-0.53125,0.562962962962963],[-0.53125,0.562962962962963],[-0.53125,0.562962962962963],[-0.53125,0.562962962962963],[-0.53125,0.562962962962963],[-0.53125,0.562962962962963],[-0.53125,0.562962962962963],[-0.53125,0.562962962962963],[-0.53125,0.562962962962963],[-0.528125,0.562962962962963],[-0.5114583333333333,0.5888888888888889],[-0.49270833333333336,0.6444444444444445],[-0.4791666666666667,0.6759259259259259],[-0.46041666666666664,0.7018518518518518],[-0.44479166666666664,0.7111111111111111],[-0.4270833333333333,0.725925925925926],[-0.4114583333333333,0.75],[-0.403125,0.7648148148148148],[-0.3927083333333333,0.7981481481481482],[-0.37916666666666665,0.8277777777777777],[-0.36770833333333336,0.8537037037037037],[-0.3541666666666667,0.8648148148148148],[-0.33541666666666664,0.8740740740740741],[-0.31145833333333334,0.8777777777777778],[-0.28854166666666664,0.8796296296296297],[-0.2635416666666667,0.8796296296296297],[-0.24479166666666666,0.8796296296296297],[-0.23020833333333332,0.8666666666666667],[-0.21354166666666666,0.8425925925925926],[-0.19166666666666668,0.8092592592592592],[-0.121875,0.7351851851851852],[-0.06458333333333334,0.6851851851851852],[-0.03854166666666667,0.6592592592592592],[-0.034375,0.6462962962962963],[-0.034375,0.6370370370370371],[-0.0375,0.6185185185185185],[-0.04479166666666667,0.5962962962962963],[-0.046875,0.5796296296296296],[-0.046875,0.5648148148148148],[-0.046875,0.5425925925925926],[-0.04895833333333333,0.5148148148148148],[-0.04895833333333333,0.4759259259259259],[-0.05,0.44814814814814813],[-0.051041666666666666,0.42592592592592593],[-0.051041666666666666,0.40555555555555556],[-0.051041666666666666,0.38333333333333336],[-0.051041666666666666,0.3611111111111111],[-0.051041666666666666,0.3296296296296296],[-0.051041666666666666,0.30185185185185187],[-0.051041666666666666,0.2722222222222222],[-0.051041666666666666,0.24259259259259258],[-0.052083333333333336,0.20555555555555555],[-0.06354166666666666,0.1425925925925926],[-0.06875,0.11481481481481481],[-0.07395833333333333,0.08148148148148149],[-0.08020833333333334,0.022222222222222223],[-0.084375,-0.037037037037037035],[-0.084375,-0.08703703703703704],[-0.084375,-0.11666666666666667],[-0.084375,-0.1425925925925926],[-0.08229166666666667,-0.16111111111111112],[-0.08125,-0.16666666666666666],[-0.08125,-0.1685185185185185],[-0.08125,-0.1685185185185185],[-0.08125,-0.1685185185185185],[-0.08020833333333334,-0.1685185185185185],[-0.07604166666666666,-0.1537037037037037],[-0.071875,-0.14629629629629629],[-0.065625,-0.13518518518518519],[-0.058333333333333334,-0.12962962962962962],[-0.051041666666666666,-0.12777777777777777],[-0.042708333333333334,-0.12222222222222222],[-0.034375,-0.11851851851851852],[-0.03333333333333333,-0.11851851851851852],[-0.029166666666666667,-0.11296296296296296],[-0.029166666666666667,-0.11296296296296296],[-0.027083333333333334,-0.1111111111111111],[-0.026041666666666668,-0.1111111111111111],[-0.025,-0.10925925925925926],[-0.023958333333333335,-0.10555555555555556],[-0.022916666666666665,-0.10185185185185185],[-0.021875,-0.1],[-0.01875,-0.09074074074074075],[-0.016666666666666666,-0.08148148148148149],[-0.0125,-0.07037037037037037],[-0.009375,-0.06111111111111111],[-0.008333333333333333,-0.05740740740740741],[-0.007291666666666667,-0.053703703703703705],[-0.007291666666666667,-0.05185185185185185],[-0.005208333333333333,-0.04814814814814815],[-0.005208333333333333,-0.04814814814814815],[-0.004166666666666667,-0.046296296296296294],[-0.004166666666666667,-0.044444444444444446],[-0.003125,-0.044444444444444446],[-0.003125,-0.044444444444444446],[-0.003125,-0.044444444444444446],[-0.003125,-0.044444444444444446],[-0.003125,-0.044444444444444446],[-0.003125,-0.044444444444444446],[-0.003125,-0.044444444444444446],[-0.003125,-0.044444444444444446],[-0.003125,-0.044444444444444446],[-0.003125,-0.044444444444444446],[-0.003125,-0.044444444444444446],[-0.003125,-0.044444444444444446],[-0.003125,-0.044444444444444446],[-0.003125,-0.044444444444444446],[-0.003125,-0.044444444444444446],[-0.003125,-0.044444444444444446],[-0.003125,-0.044444444444444446],[-0.003125,-0.044444444444444446],[-0.003125,-0.044444444444444446],[-0.003125,-0.04259259259259259],[-0.003125,-0.037037037037037035],[-0.003125,-0.03518518518518519],[-0.003125,-0.03333333333333333],[-0.003125,-0.03333333333333333],[-0.003125,-0.03333333333333333],[-0.003125,-0.03333333333333333],[-0.003125,-0.03333333333333333],[-0.003125,-0.03333333333333333],[-0.003125,-0.03333333333333333],[-0.003125,-0.03333333333333333],[-0.003125,-0.03333333333333333],[-0.003125,-0.03333333333333333],[-0.003125,-0.03333333333333333],[-0.003125,-0.03333333333333333],[-0.003125,-0.03333333333333333],[-0.003125,-0.03333333333333333],[-0.003125,-0.03333333333333333],[-0.003125,-0.03333333333333333],[-0.003125,-0.03333333333333333],[-0.003125,-0.03333333333333333],[-0.003125,-0.03333333333333333],[-0.003125,-0.03333333333333333],[-0.003125,-0.03333333333333333],[-0.003125,-0.03333333333333333],[-0.003125,-0.03333333333333333],[-0.003125,-0.03333333333333333],[-0.003125,-0.03333333333333333],[-0.003125,-0.03333333333333333],[-0.003125,-0.03333333333333333],[-0.003125,-0.03333333333333333],[-0.003125,-0.03333333333333333],[-0.003125,-0.03333333333333333],[-0.003125,-0.03333333333333333],[-0.003125,-0.03333333333333333],[-0.003125,-0.03333333333333333],[-0.003125,-0.03333333333333333],[-0.003125,-0.03333333333333333],[-0.003125,-0.03333333333333333],[-0.003125,-0.03333333333333333],[-0.003125,-0.03333333333333333],[-0.003125,-0.03333333333333333],[-0.003125,-0.03333333333333333],[-0.003125,-0.03333333333333333],[-0.003125,-0.03333333333333333],[-0.003125,-0.03333333333333333],[-0.003125,-0.03333333333333333],[-0.003125,-0.03333333333333333],[-0.003125,-0.03333333333333333],[-0.003125,-0.03333333333333333],[-0.003125,-0.03333333333333333],[-0.003125,-0.03333333333333333],[-0.003125,-0.03333333333333333],[-0.003125,-0.03333333333333333],[-0.003125,-0.03333333333333333],[-0.003125,-0.03333333333333333],[-0.003125,-0.03333333333333333],[-0.003125,-0.03333333333333333],[-0.003125,-0.03333333333333333],[-0.003125,-0.03333333333333333],[-0.003125,-0.03333333333333333],[-0.003125,-0.03333333333333333],[-0.003125,-0.03333333333333333],[-0.003125,-0.03333333333333333],[-0.003125,-0.03333333333333333],[-0.003125,-0.03333333333333333],[-0.003125,-0.03333333333333333],[-0.003125,-0.03333333333333333],[-0.003125,-0.03333333333333333],[-0.003125,-0.03333333333333333],[-0.003125,-0.03333333333333333],[-0.003125,-0.03333333333333333],[-0.003125,-0.03333333333333333],[-0.003125,-0.03333333333333333],[-0.003125,-0.03333333333333333],[-0.003125,-0.03333333333333333],[-0.003125,-0.03333333333333333],[-0.003125,-0.03333333333333333],[-0.003125,-0.03333333333333333],[-0.003125,-0.03333333333333333],[-0.003125,-0.03333333333333333],[-0.003125,-0.03333333333333333],[-0.003125,-0.03333333333333333],[-0.003125,-0.03333333333333333],[-0.003125,-0.03333333333333333],[-0.003125,-0.03333333333333333],[-0.003125,-0.03333333333333333],[-0.003125,-0.03333333333333333],[-0.003125,-0.03333333333333333],[-0.003125,-0.03333333333333333],[-0.003125,-0.03333333333333333],[-0.003125,-0.03333333333333333],[-0.003125,-0.03333333333333333],[-0.003125,-0.03333333333333333],[-0.003125,-0.03333333333333333],[-0.003125,-0.03333333333333333],[-0.003125,-0.03333333333333333],[-0.003125,-0.03333333333333333],[-0.003125,-0.03333333333333333],[-0.003125,-0.03333333333333333],[-0.003125,-0.03333333333333333],[-0.003125,-0.03333333333333333],[-0.003125,-0.03333333333333333],[-0.003125,-0.03333333333333333],[-0.003125,-0.03333333333333333],[-0.003125,-0.03333333333333333],[-0.003125,-0.03333333333333333],[-0.003125,-0.03333333333333333],[-0.003125,-0.03333333333333333],[-0.003125,-0.03333333333333333],[-0.003125,-0.03148148148148148],[-0.003125,-0.03148148148148148],[-0.003125,-0.03148148148148148],[-0.003125,-0.03148148148148148],[-0.003125,-0.02962962962962963],[-0.003125,-0.027777777777777776],[-0.003125,-0.027777777777777776],[-0.003125,-0.027777777777777776],[-0.003125,-0.027777777777777776],[-0.004166666666666667,-0.027777777777777776],[-0.004166666666666667,-0.027777777777777776],[-0.004166666666666667,-0.027777777777777776],[-0.004166666666666667,-0.027777777777777776],[-0.004166666666666667,-0.027777777777777776],[-0.004166666666666667,-0.027777777777777776],[-0.004166666666666667,-0.027777777777777776],[-0.005208333333333333,-0.025925925925925925],[-0.005208333333333333,-0.025925925925925925],[-0.005208333333333333,-0.025925925925925925],[-0.005208333333333333,-0.025925925925925925],[-0.005208333333333333,-0.025925925925925925],[-0.005208333333333333,-0.025925925925925925],[-0.005208333333333333,-0.025925925925925925],[-0.005208333333333333,-0.025925925925925925],[-0.005208333333333333,-0.025925925925925925],[-0.005208333333333333,-0.025925925925925925],[-0.00625,-0.025925925925925925],[-0.00625,-0.025925925925925925],[-0.008333333333333333,-0.024074074074074074],[-0.008333333333333333,-0.024074074074074074],[-0.008333333333333333,-0.024074074074074074],[-0.008333333333333333,-0.024074074074074074],[-0.009375,-0.022222222222222223],[-0.009375,-0.022222222222222223],[-0.009375,-0.022222222222222223],[-0.009375,-0.022222222222222223],[-0.009375,-0.022222222222222223],[-0.009375,-0.022222222222222223],[-0.009375,-0.022222222222222223],[-0.009375,-0.022222222222222223],[-0.009375,-0.022222222222222223],[-0.009375,-0.022222222222222223],[-0.009375,-0.022222222222222223],[-0.009375,-0.022222222222222223],[-0.009375,-0.022222222222222223],[-0.009375,-0.022222222222222223],[-0.009375,-0.022222222222222223],[-0.009375,-0.022222222222222223],[-0.009375,-0.022222222222222223],[-0.009375,-0.022222222222222223],[-0.009375,-0.022222222222222223],[-0.009375,-0.022222222222222223],[-0.009375,-0.022222222222222223],[-0.009375,-0.022222222222222223],[-0.009375,-0.022222222222222223],[-0.009375,-0.022222222222222223],[-0.009375,-0.022222222222222223],[-0.009375,-0.022222222222222223],[-0.009375,-0.022222222222222223],[-0.009375,-0.022222222222222223],[-0.009375,-0.022222222222222223],[-0.009375,-0.022222222222222223],[-0.009375,-0.022222222222222223],[-0.009375,-0.022222222222222223],[-0.009375,-0.022222222222222223],[-0.009375,-0.022222222222222223],[-0.009375,-0.022222222222222223],[-0.009375,-0.022222222222222223],[-0.009375,-0.022222222222222223],[-0.009375,-0.022222222222222223],[-0.009375,-0.022222222222222223],[-0.009375,-0.022222222222222223],[-0.009375,-0.022222222222222223],[-0.009375,-0.022222222222222223],[-0.009375,-0.022222222222222223],[-0.009375,-0.022222222222222223],[-0.009375,-0.022222222222222223],[-0.009375,-0.022222222222222223],[-0.009375,-0.022222222222222223],[-0.009375,-0.022222222222222223],[-0.009375,-0.022222222222222223],[-0.009375,-0.022222222222222223],[-0.009375,-0.022222222222222223],[-0.009375,-0.022222222222222223],[-0.009375,-0.022222222222222223],[-0.009375,-0.022222222222222223],[-0.009375,-0.022222222222222223],[-0.009375,-0.022222222222222223],[-0.009375,-0.022222222222222223],[-0.009375,-0.022222222222222223],[-0.009375,-0.022222222222222223],[-0.009375,-0.022222222222222223],[-0.009375,-0.022222222222222223],[-0.009375,-0.022222222222222223],[-0.009375,-0.022222222222222223],[-0.009375,-0.022222222222222223],[-0.009375,-0.022222222222222223],[-0.009375,-0.022222222222222223],[-0.009375,-0.022222222222222223],[-0.009375,-0.022222222222222223],[-0.009375,-0.022222222222222223],[-0.009375,-0.022222222222222223],[-0.009375,-0.022222222222222223],[-0.009375,-0.022222222222222223],[-0.009375,-0.022222222222222223],[-0.009375,-0.022222222222222223],[-0.009375,-0.022222222222222223],[-0.009375,-0.022222222222222223],[-0.009375,-0.022222222222222223],[-0.009375,-0.022222222222222223],[-0.009375,-0.022222222222222223],[-0.009375,-0.022222222222222223],[-0.009375,-0.022222222222222223],[-0.009375,-0.022222222222222223],[-0.009375,-0.022222222222222223],[-0.009375,-0.022222222222222223],[-0.009375,-0.022222222222222223],[-0.009375,-0.022222222222222223],[-0.009375,-0.022222222222222223],[-0.009375,-0.022222222222222223],[-0.009375,-0.022222222222222223],[-0.009375,-0.022222222222222223],[-0.009375,-0.022222222222222223],[-0.009375,-0.022222222222222223],[-0.009375,-0.022222222222222223],[-0.009375,-0.022222222222222223],[-0.009375,-0.022222222222222223],[-0.009375,-0.022222222222222223],[-0.009375,-0.022222222222222223],[-0.009375,-0.022222222222222223],[-0.009375,-0.022222222222222223],[-0.009375,-0.022222222222222223],[-0.009375,-0.022222222222222223],[-0.009375,-0.022222222222222223],[-0.009375,-0.022222222222222223],[-0.009375,-0.022222222222222223],[-0.009375,-0.022222222222222223],[-0.009375,-0.022222222222222223],[-0.009375,-0.022222222222222223],[-0.009375,-0.022222222222222223],[-0.009375,-0.022222222222222223],[-0.009375,-0.022222222222222223],[-0.009375,-0.022222222222222223],[-0.009375,-0.022222222222222223],[-0.009375,-0.022222222222222223],[-0.009375,-0.022222222222222223],[-0.009375,-0.022222222222222223],[-0.009375,-0.022222222222222223],[-0.009375,-0.022222222222222223],[-0.009375,-0.022222222222222223],[-0.009375,-0.022222222222222223],[-0.009375,-0.022222222222222223],[-0.009375,-0.022222222222222223],[-0.009375,-0.022222222222222223],[-0.009375,-0.022222222222222223],[-0.009375,-0.022222222222222223],[-0.009375,-0.022222222222222223],[-0.009375,-0.022222222222222223],[-0.009375,-0.022222222222222223],[-0.009375,-0.022222222222222223],[-0.009375,-0.022222222222222223],[-0.009375,-0.022222222222222223],[-0.009375,-0.022222222222222223],[-0.009375,-0.022222222222222223],[-0.009375,-0.022222222222222223],[-0.009375,-0.022222222222222223],[-0.009375,-0.022222222222222223],[-0.009375,-0.022222222222222223],[-0.009375,-0.022222222222222223],[-0.009375,-0.022222222222222223],[-0.009375,-0.022222222222222223],[-0.009375,-0.022222222222222223],[-0.009375,-0.022222222222222223],[-0.009375,-0.022222222222222223],[-0.009375,-0.022222222222222223],[-0.009375,-0.022222222222222223],[-0.009375,-0.022222222222222223],[-0.009375,-0.022222222222222223],[-0.009375,-0.022222222222222223],[-0.009375,-0.022222222222222223],[-0.009375,-0.022222222222222223],[-0.009375,-0.022222222222222223],[-0.009375,-0.022222222222222223],[-0.0010416666666666667,-0.016666666666666666],[0.014583333333333334,-0.003703703703703704],[0.0375,0.014814814814814815],[0.06041666666666667,0.02962962962962963],[0.08125,0.04814814814814815],[0.09791666666666667,0.06851851851851852],[0.11354166666666667,0.08518518518518518],[0.121875,0.0962962962962963],[0.13229166666666667,0.10555555555555556],[0.14479166666666668,0.11851851851851852],[0.159375,0.12962962962962962],[0.18020833333333333,0.1537037037037037],[0.2,0.16666666666666666],[0.2125,0.17592592592592593],[0.21770833333333334,0.17962962962962964],[0.21875,0.17962962962962964],[0.21979166666666666,0.18333333333333332],[0.22083333333333333,0.18333333333333332],[0.22291666666666668,0.18333333333333332],[0.22291666666666668,0.18333333333333332],[0.22708333333333333,0.18518518518518517],[0.22708333333333333,0.18518518518518517],[0.22708333333333333,0.18518518518518517],[0.22708333333333333,0.18518518518518517],[0.22708333333333333,0.18518518518518517],[0.22708333333333333,0.18518518518518517],[0.22708333333333333,0.18518518518518517],[0.225,0.18518518518518517],[0.21979166666666666,0.18333333333333332],[0.21145833333333333,0.17962962962962964],[0.20208333333333334,0.17222222222222222],[0.19270833333333334,0.1648148148148148],[0.18229166666666666,0.1574074074074074],[0.17395833333333333,0.15185185185185185],[0.17083333333333334,0.15],[0.16666666666666666,0.14814814814814814],[0.16354166666666667,0.14814814814814814],[0.16145833333333334,0.14444444444444443],[0.16145833333333334,0.14444444444444443],[0.16041666666666668,0.14444444444444443],[0.16041666666666668,0.14444444444444443],[0.16041666666666668,0.14444444444444443],[0.16041666666666668,0.14444444444444443],[0.16041666666666668,0.14444444444444443],[0.16041666666666668,0.14444444444444443],[0.16041666666666668,0.14444444444444443],[0.16041666666666668,0.14444444444444443],[0.16041666666666668,0.14444444444444443],[0.16041666666666668,0.14444444444444443],[0.16041666666666668,0.14444444444444443],[0.16041666666666668,0.14444444444444443],[0.16041666666666668,0.14444444444444443],[0.16041666666666668,0.14444444444444443],[0.16041666666666668,0.14444444444444443],[0.16041666666666668,0.14444444444444443],[0.16041666666666668,0.14444444444444443],[0.16041666666666668,0.14444444444444443],[0.16041666666666668,0.14444444444444443],[0.16041666666666668,0.14444444444444443],[0.16041666666666668,0.14444444444444443],[0.16041666666666668,0.14444444444444443],[0.16041666666666668,0.14444444444444443],[0.16041666666666668,0.14444444444444443],[0.16041666666666668,0.14444444444444443],[0.16041666666666668,0.14444444444444443],[0.16041666666666668,0.14444444444444443],[0.16041666666666668,0.14444444444444443],[0.16041666666666668,0.14444444444444443],[0.16041666666666668,0.14444444444444443],[0.16041666666666668,0.14444444444444443],[0.16041666666666668,0.14444444444444443],[0.16041666666666668,0.14444444444444443],[0.16041666666666668,0.14444444444444443],[0.16041666666666668,0.14444444444444443],[0.16041666666666668,0.14444444444444443],[0.16041666666666668,0.14444444444444443],[0.16041666666666668,0.14444444444444443],[0.16041666666666668,0.14444444444444443],[0.16041666666666668,0.14444444444444443],[0.16041666666666668,0.14444444444444443],[0.16041666666666668,0.14444444444444443],[0.16041666666666668,0.14444444444444443],[0.16041666666666668,0.14444444444444443],[0.16041666666666668,0.14444444444444443],[0.16041666666666668,0.14444444444444443],[0.16041666666666668,0.14444444444444443],[0.16041666666666668,0.14444444444444443],[0.16041666666666668,0.14444444444444443],[0.16041666666666668,0.14444444444444443],[0.16041666666666668,0.14444444444444443],[0.16041666666666668,0.14444444444444443],[0.16041666666666668,0.14444444444444443],[0.16041666666666668,0.14444444444444443],[0.16041666666666668,0.14444444444444443],[0.16041666666666668,0.14444444444444443],[0.16041666666666668,0.14444444444444443],[0.16041666666666668,0.14444444444444443],[0.16041666666666668,0.14444444444444443],[0.16041666666666668,0.14444444444444443],[0.16041666666666668,0.14444444444444443],[0.16041666666666668,0.14444444444444443],[0.16041666666666668,0.14444444444444443],[0.16041666666666668,0.14444444444444443],[0.16041666666666668,0.14444444444444443],[0.16041666666666668,0.14444444444444443],[0.16041666666666668,0.14444444444444443],[0.16041666666666668,0.14444444444444443],[0.16041666666666668,0.14444444444444443],[0.16041666666666668,0.14444444444444443],[0.16041666666666668,0.14444444444444443],[0.16041666666666668,0.14444444444444443],[0.16041666666666668,0.14444444444444443],[0.16041666666666668,0.14444444444444443],[0.16041666666666668,0.14444444444444443],[0.16041666666666668,0.14444444444444443],[0.16041666666666668,0.14444444444444443],[0.16041666666666668,0.14444444444444443],[0.16041666666666668,0.14444444444444443],[0.16041666666666668,0.14444444444444443],[0.16041666666666668,0.14444444444444443],[0.16041666666666668,0.14444444444444443],[0.16041666666666668,0.14444444444444443],[0.16041666666666668,0.14444444444444443],[0.16041666666666668,0.14444444444444443],[0.16041666666666668,0.14444444444444443],[0.16041666666666668,0.14444444444444443],[0.16041666666666668,0.14444444444444443],[0.16041666666666668,0.14444444444444443],[0.16041666666666668,0.14444444444444443],[0.16041666666666668,0.14444444444444443],[0.16041666666666668,0.14444444444444443],[0.16041666666666668,0.14444444444444443],[0.16041666666666668,0.14444444444444443],[0.16041666666666668,0.14444444444444443],[0.16041666666666668,0.14444444444444443],[0.16041666666666668,0.14444444444444443],[0.16041666666666668,0.14444444444444443],[0.16041666666666668,0.14444444444444443],[0.16041666666666668,0.14444444444444443],[0.16041666666666668,0.14444444444444443],[0.16041666666666668,0.14444444444444443],[0.16041666666666668,0.14444444444444443],[0.16041666666666668,0.14444444444444443],[0.16041666666666668,0.14444444444444443],[0.16041666666666668,0.14444444444444443]]","[[-0.1796875,-1.103888888888889],[-0.1796875,-1.103888888888889],[-0.1796875,-1.103888888888889],[-0.2109375,-1.133148148148148],[-0.24125000000000002,-1.125],[-0.27072916666666663,-1.118888888888889],[-0.2573958333333334,-1.1166666666666667],[-0.24770833333333328,-1.0825925925925926],[-0.22364583333333338,-1.0538888888888889],[-0.21979166666666666,-1.041111111111111],[-0.21322916666666672,-1.0075925925925926],[-0.20874999999999996,-0.9825925925925927],[-0.15552083333333327,-0.9416666666666667],[-0.10718749999999998,-0.9085185185185186],[-0.03979166666666671,-0.8822222222222221],[0.030208333333333334,-0.8751851851851852],[0.06364583333333336,-0.87],[0.0853125000000001,-0.8668518518518519],[0.10812499999999996,-0.8775925925925926],[0.1388541666666666,-0.9118518518518518],[0.15302083333333344,-0.9648148148148148],[0.16979166666666667,-1.0124074074074074],[0.1765625,-1.0622222222222222],[0.16770833333333332,-1.0627777777777778],[0.16375000000000003,-1.0151851851851852],[0.15979166666666675,-0.9551851851851851],[0.1408333333333334,-0.9570370370370369],[0.11427083333333338,-0.9581481481481481],[0.09572916666666677,-0.9383333333333334],[0.058437500000000024,-0.9533333333333333],[0.03604166666666669,-0.9657407407407408],[0.005208333333333333,-0.9468518518518518],[-0.02333333333333331,-0.9333333333333333],[-0.03718750000000005,-0.965925925925926],[-0.05270833333333336,-1.0335185185185185],[-0.0703125,-1.0614814814814815],[-0.07791666666666662,-1.0468518518518517],[-0.10229166666666671,-1.068148148148148],[-0.13468749999999996,-1.1103703703703705],[-0.15562499999999999,-1.124074074074074],[-0.1748958333333333,-1.1216666666666668],[-0.17322916666666663,-1.1575925925925927],[-0.17156250000000003,-1.1935185185185184],[-0.17020833333333332,-1.1872222222222222],[-0.1720833333333334,-1.194074074074074],[-0.17760416666666667,-1.2657407407407408],[-0.15458333333333332,-1.2775925925925926],[-0.13239583333333335,-1.2831481481481481],[-0.11020833333333328,-1.2887037037037037],[-0.090625,-1.2938888888888889],[-0.08083333333333335,-1.3044444444444443],[-0.08187500000000002,-1.3042592592592592],[-0.09333333333333335,-1.3151851851851852],[-0.10499999999999995,-1.3442592592592593],[-0.1014583333333333,-1.3564814814814814],[-0.12156250000000005,-1.3135185185185185],[-0.1547916666666667,-1.3425925925925926],[-0.17864583333333334,-1.3416666666666666],[-0.17864583333333334,-1.3416666666666666],[-0.18135416666666668,-1.3092592592592593],[-0.18135416666666668,-1.3092592592592593],[-0.20416666666666666,-1.2718518518518518],[-0.20416666666666666,-1.2718518518518518],[-0.2046875,-1.223148148148148],[-0.2046875,-1.223148148148148],[-0.22625000000000003,-1.1614814814814816],[-0.22625000000000003,-1.1614814814814816],[-0.2407291666666667,-1.090925925925926],[-0.2407291666666667,-1.090925925925926],[-0.22270833333333329,-1.0155555555555555],[-0.21197916666666666,-0.9657407407407408],[-0.18010416666666665,-0.9512962962962964],[-0.1658333333333334,-0.9218518518518519],[-0.16145833333333334,-0.9061111111111111],[-0.1766666666666667,-0.8944444444444445],[-0.15125000000000005,-0.8912962962962964],[-0.1632291666666667,-0.9053703703703704],[-0.14031250000000003,-0.9187037037037038],[-0.11979166666666667,-0.8922222222222222],[-0.11833333333333336,-0.8955555555555555],[-0.13729166666666662,-0.8868518518518518],[-0.13677083333333329,-0.8344444444444444],[-0.1404166666666666,-0.7911111111111111],[-0.12124999999999998,-0.7422222222222222],[-0.11177083333333329,-0.7359259259259259],[-0.12052083333333338,-0.7125925925925927],[-0.10020833333333339,-0.677962962962963],[-0.1092708333333333,-0.6664814814814815],[-0.10479166666666669,-0.662962962962963],[-0.13020833333333334,-0.6027777777777777],[-0.14624999999999996,-0.5605555555555556],[-0.17562500000000003,-0.5251851851851852],[-0.17562500000000003,-0.5251851851851852],[-0.1977083333333333,-0.5092592592592593],[-0.23312499999999994,-0.44833333333333336],[-0.2501041666666667,-0.4020370370370371],[-0.26937500000000003,-0.36925925925925923],[-0.29281250000000003,-0.33648148148148144],[-0.29281250000000003,-0.33648148148148144],[-0.29375,-0.30333333333333334],[-0.30520833333333336,-0.27740740740740744],[-0.3042708333333334,-0.2940740740740741],[-0.30020833333333335,-0.29611111111111105],[-0.27364583333333337,-0.2844444444444445],[-0.2672916666666667,-0.26351851851851854],[-0.24718749999999995,-0.3242592592592593],[-0.24874999999999994,-0.34018518518518515],[-0.24874999999999994,-0.34018518518518515],[-0.25833333333333336,-0.3496296296296296],[-0.2555208333333333,-0.34944444444444445],[-0.2764583333333333,-0.375],[-0.27802083333333333,-0.39759259259259255],[-0.27677083333333335,-0.39148148148148143],[-0.2735416666666667,-0.3940740740740741],[-0.3163541666666667,-0.45333333333333337],[-0.3303125,-0.4557407407407408],[-0.34020833333333333,-0.37777777777777777],[-0.31229166666666663,-0.3701851851851851],[-0.28781249999999997,-0.3690740740740741],[-0.2842708333333333,-0.3901851851851852],[-0.2569791666666667,-0.35351851851851845],[-0.25541666666666674,-0.3942592592592592],[-0.2404166666666666,-0.445],[-0.22322916666666662,-0.45925925925925926],[-0.1860416666666667,-0.4479629629629629],[-0.15635416666666668,-0.4733333333333334],[-0.13999999999999999,-0.5285185185185185],[-0.14427083333333332,-0.5520370370370371],[-0.14833333333333332,-0.582962962962963],[-0.1404166666666666,-0.5792592592592593],[-0.1498958333333333,-0.5914814814814814],[-0.15812499999999996,-0.5325925925925926],[-0.15499999999999994,-0.4842592592592593],[-0.18697916666666667,-0.47092592592592597],[-0.21677083333333336,-0.46277777777777773],[-0.2561458333333333,-0.4855555555555555],[-0.2627083333333334,-0.505],[-0.29500000000000004,-0.5024074074074074],[-0.29145833333333326,-0.46796296296296297],[-0.28395833333333337,-0.472037037037037],[-0.26802083333333326,-0.4781481481481481],[-0.2508333333333333,-0.4962962962962963],[-0.28364583333333326,-0.5361111111111111],[-0.2561458333333333,-0.5481481481481482],[-0.2205208333333334,-0.5196296296296297],[-0.16739583333333338,-0.4729629629629629],[-0.1421875,-0.44074074074074077],[-0.11677083333333335,-0.3809259259259259],[-0.11593749999999996,-0.3455555555555556],[-0.12250000000000003,-0.29370370370370374],[-0.13500000000000004,-0.3055555555555556],[-0.14156249999999998,-0.2733333333333334],[-0.11208333333333335,-0.2044444444444444],[-0.11687500000000005,-0.14981481481481476],[-0.11687500000000005,-0.14981481481481476],[-0.11031249999999998,-0.1398148148148148],[-0.10625,-0.09222222222222225],[-0.10833333333333334,-0.05944444444444449],[-0.10729166666666666,-0.08888888888888889],[-0.10229166666666671,-0.07518518518518523],[-0.09489583333333336,-0.05611111111111113],[-0.09010416666666667,-0.03333333333333333],[-0.07843749999999995,-0.05055555555555547],[-0.08624999999999995,-0.06722222222222224],[-0.08916666666666669,-0.09018518518518516],[-0.10864583333333329,-0.08425925925925926],[-0.14093749999999997,-0.09000000000000004],[-0.14427083333333332,-0.0816666666666667],[-0.1310416666666666,-0.037037037037037035],[-0.13208333333333327,-0.07185185185185188],[-0.10208333333333333,-0.0868518518518518],[-0.10135416666666662,-0.03944444444444436],[-0.1172916666666667,0.011296296296296339],[-0.13624999999999995,0.004444444444444402],[-0.13291666666666668,0.008333333333333333],[-0.11166666666666672,0.026666666666666623],[-0.08302083333333338,0.03185185185185194],[-0.08302083333333338,0.03185185185185194],[-0.08302083333333338,0.03185185185185194],[-0.10208333333333333,0.02555555555555547],[-0.10208333333333333,0.02555555555555547],[-0.10302083333333331,0.008888888888888804],[-0.10302083333333331,0.008888888888888804],[-0.11437499999999995,0.03351851851851856],[-0.11437499999999995,0.03351851851851856],[-0.16187499999999996,0.055000000000000084],[-0.16187499999999996,0.055000000000000084],[-0.16145833333333334,0.05277777777777778],[-0.16145833333333334,0.05277777777777778],[-0.14489583333333336,0.035740740740740656],[-0.14489583333333336,0.035740740740740656],[-0.12604166666666666,0.10425925925925918],[-0.12604166666666666,0.10425925925925918],[-0.1203125,0.15555555555555556],[-0.1203125,0.15555555555555556],[-0.12333333333333331,0.17592592592592593],[-0.12333333333333331,0.17592592592592593],[-0.11947916666666672,0.21648148148148144],[-0.11947916666666672,0.21648148148148144],[-0.07458333333333336,0.2822222222222222],[-0.07458333333333336,0.2822222222222222],[-0.071875,0.34814814814814815],[-0.071875,0.34814814814814815],[-0.06875,0.39203703703703713],[-0.06875,0.39203703703703713],[-0.058124999999999954,0.3896296296296296],[-0.058124999999999954,0.3896296296296296],[-0.03802083333333333,0.3831481481481481],[-0.03802083333333333,0.3831481481481481],[-0.04770833333333328,0.375],[-0.04770833333333328,0.375],[-0.027604166666666666,0.32888888888888895],[-0.027604166666666666,0.32888888888888895],[-0.027604166666666666,0.32888888888888895],[-0.027604166666666666,0.32888888888888895],[-0.022083333333333382,0.30907407407407406],[-0.022083333333333382,0.30907407407407406],[-0.03947916666666664,0.23962962962962958],[-0.03947916666666664,0.23962962962962958],[-0.042708333333333334,0.14388888888888898],[-0.042708333333333334,0.14388888888888898],[-0.08645833333333333,0.01962962962962967],[-0.08645833333333333,0.01962962962962967],[-0.1078125,-0.11277777777777774],[-0.1078125,-0.11277777777777774],[-0.11958333333333329,-0.19759259259259257],[-0.11958333333333329,-0.19759259259259257],[-0.1592708333333333,-0.24314814814814817],[-0.1592708333333333,-0.24314814814814817],[-0.2163541666666667,-0.3131481481481482],[-0.2163541666666667,-0.3131481481481482],[-0.22999999999999995,-0.37666666666666665],[-0.22999999999999995,-0.37666666666666665],[-0.2482291666666666,-0.3824074074074074],[-0.2482291666666666,-0.3824074074074074],[-0.2808333333333334,-0.3490740740740741],[-0.2808333333333334,-0.3490740740740741],[-0.2617708333333333,-0.27870370370370373],[-0.2617708333333333,-0.27870370370370373],[-0.28541666666666665,-0.192037037037037],[-0.28541666666666665,-0.192037037037037],[-0.2911458333333333,-0.11314814814814819],[-0.2911458333333333,-0.11314814814814819],[-0.3129166666666666,-0.034444444444444486],[-0.3129166666666666,-0.034444444444444486],[-0.2816666666666666,-0.05333333333333336],[-0.2816666666666666,-0.05333333333333336],[-0.20541666666666672,-0.0764814814814815],[-0.20541666666666672,-0.0764814814814815],[-0.12843749999999995,-0.06407407407407412],[-0.12843749999999995,-0.06407407407407412],[-0.06572916666666669,-0.022222222222222223],[-0.06572916666666669,-0.022222222222222223],[0.0014583333333333095,-0.020185185185185143],[0.0014583333333333095,-0.020185185185185143],[0.09739583333333333,-0.14888888888888885],[0.09739583333333333,-0.14888888888888885],[0.14093749999999997,-0.19148148148148145],[0.14093749999999997,-0.19148148148148145],[0.1716666666666666,-0.2757407407407407],[0.1716666666666666,-0.2757407407407407],[0.19479166666666667,-0.34370370370370373],[0.19479166666666667,-0.34370370370370373],[0.20802083333333338,-0.4262962962962963],[0.20802083333333338,-0.4262962962962963],[0.1640625,-0.42111111111111105],[0.1640625,-0.42111111111111105],[0.08072916666666667,-0.4624074074074074],[0.08072916666666667,-0.4624074074074074],[0.00458333333333331,-0.5114814814814814],[0.00458333333333331,-0.5114814814814814],[-0.06875,-0.5488888888888889],[-0.06875,-0.5488888888888889],[-0.1672916666666667,-0.6546296296296297],[-0.1672916666666667,-0.6546296296296297],[-0.28531249999999997,-0.679074074074074],[-0.28531249999999997,-0.679074074074074],[-0.3961458333333333,-0.7992592592592593],[-0.3961458333333333,-0.7992592592592593],[-0.440625,-0.7594444444444445],[-0.440625,-0.7594444444444445],[-0.41135416666666663,-0.8264814814814815],[-0.41135416666666663,-0.8264814814814815],[-0.37177083333333333,-0.8777777777777778],[-0.3223958333333333,-0.9585185185185185],[-0.2678125,-0.9953703703703703],[-0.1859375,-0.9435185185185185],[-0.1859375,-0.9435185185185185],[-0.1171875,-0.8887037037037037],[-0.09968750000000005,-0.7872222222222223],[-0.03822916666666672,-0.7037037037037037],[-0.05552083333333328,-0.5275925925925925],[-0.09052083333333331,-0.48518518518518516],[-0.19760416666666672,-0.36129629629629634],[-0.2741666666666667,-0.2712962962962963],[-0.35562499999999997,-0.15555555555555556],[-0.3945833333333333,-0.1301851851851852],[-0.4867708333333333,-0.19166666666666668],[-0.5563541666666667,-0.28425925925925927],[-0.5647916666666667,-0.40018518518518525],[-0.6094791666666667,-0.4522222222222222],[-0.5817708333333333,-0.615],[-0.5248958333333333,-0.6424074074074073],[-0.4691666666666666,-0.6198148148148148],[-0.4040625,-0.5135185185185185],[-0.3289583333333333,-0.4242592592592593],[-0.28010416666666665,-0.24074074074074073],[-0.22291666666666668,-0.06666666666666667],[-0.19104166666666664,0.08074074074074078],[-0.16875,0.24351851851851852],[-0.12479166666666662,0.32407407407407407],[-0.07833333333333338,0.42777777777777776],[-0.05687500000000002,0.4527777777777778],[-0.013333333333333286,0.40981481481481474],[0.007604166666666619,0.3344444444444445],[0.03312499999999995,0.23462962962962972],[0.026145833333333358,0.09888888888888885],[0.04364583333333331,0.09055555555555551],[0.06479166666666672,0.09407407407407399],[0.07333333333333343,0.06851851851851852],[0.09958333333333323,0.11814814814814806],[0.11802083333333328,0.11722222222222214],[0.11802083333333328,0.11722222222222214],[0.1015625,0.10185185185185185],[0.1015625,0.10185185185185185],[0.06375000000000004,0.15555555555555556],[0.06375000000000004,0.15555555555555556],[0.022916666666666665,0.13796296296296295],[-0.01114583333333338,0.14648148148148152],[-0.01114583333333338,0.14648148148148152],[-0.01572916666666669,0.1705555555555556],[-0.01572916666666669,0.1705555555555556],[-0.016458333333333287,0.11148148148148157],[-0.016458333333333287,0.11148148148148157],[-0.07260416666666672,0.029259259259259176],[-0.07260416666666672,0.029259259259259176],[-0.12833333333333338,-0.05796296296296299],[-0.12833333333333338,-0.05796296296296299],[-0.20906250000000004,-0.22518518518518524],[-0.20906250000000004,-0.22518518518518524],[-0.25729166666666664,-0.3301851851851852],[-0.25729166666666664,-0.3301851851851852],[-0.27802083333333333,-0.47555555555555556],[-0.2595833333333334,-0.5140740740740741],[-0.23302083333333337,-0.4922222222222222],[-0.196875,-0.45759259259259266],[-0.16156250000000003,-0.4235185185185185],[-0.12895833333333329,-0.36148148148148146],[-0.05166666666666669,-0.29370370370370374],[0.05437500000000005,-0.2477777777777778],[0.14510416666666662,-0.18074074074074079],[0.2046875,-0.1574074074074074],[0.2046875,-0.1574074074074074],[0.2582291666666668,-0.0764814814814815],[0.2612499999999999,-0.10499999999999998],[0.2522916666666667,-0.14055555555555552],[0.2522916666666667,-0.14055555555555552],[0.2522916666666667,-0.14055555555555552],[0.2522916666666667,-0.14055555555555552],[0.2522916666666667,-0.14055555555555552],[0.2522916666666667,-0.14055555555555552],[0.2522916666666667,-0.14055555555555552],[0.2522916666666667,-0.14055555555555552],[0.2522916666666667,-0.14055555555555552],[0.2522916666666667,-0.14055555555555552],[0.2522916666666667,-0.14055555555555552],[0.2522916666666667,-0.14055555555555552],[0.2522916666666667,-0.14055555555555552],[0.2522916666666667,-0.14055555555555552],[0.2522916666666667,-0.14055555555555552],[0.2522916666666667,-0.14055555555555552],[0.2522916666666667,-0.14055555555555552],[0.2522916666666667,-0.14055555555555552],[0.2522916666666667,-0.14055555555555552],[0.2522916666666667,-0.14055555555555552],[0.2522916666666667,-0.14055555555555552],[0.2522916666666667,-0.14055555555555552],[0.2522916666666667,-0.14055555555555552],[0.2522916666666667,-0.14055555555555552],[0.2522916666666667,-0.14055555555555552],[0.2522916666666667,-0.14055555555555552],[0.2522916666666667,-0.14055555555555552],[0.2522916666666667,-0.14055555555555552],[0.2522916666666667,-0.14055555555555552],[0.2522916666666667,-0.14055555555555552],[0.2522916666666667,-0.14055555555555552],[0.2522916666666667,-0.14055555555555552],[0.2522916666666667,-0.14055555555555552],[0.2522916666666667,-0.14055555555555552],[0.2522916666666667,-0.14055555555555552],[0.2522916666666667,-0.14055555555555552],[0.2522916666666667,-0.14055555555555552],[0.2522916666666667,-0.14055555555555552],[0.2522916666666667,-0.14055555555555552],[0.2522916666666667,-0.14055555555555552],[0.2522916666666667,-0.14055555555555552],[0.2522916666666667,-0.14055555555555552],[0.2522916666666667,-0.14055555555555552],[0.2522916666666667,-0.14055555555555552],[0.2522916666666667,-0.14055555555555552],[0.2522916666666667,-0.14055555555555552],[0.2522916666666667,-0.14055555555555552],[0.2522916666666667,-0.14055555555555552],[0.2522916666666667,-0.14055555555555552],[0.2522916666666667,-0.14055555555555552],[0.2522916666666667,-0.14055555555555552],[0.2522916666666667,-0.14055555555555552],[0.2522916666666667,-0.14055555555555552],[0.2522916666666667,-0.14055555555555552],[0.2522916666666667,-0.14055555555555552],[0.2522916666666667,-0.14055555555555552],[0.2522916666666667,-0.14055555555555552],[0.2522916666666667,-0.14055555555555552],[0.2522916666666667,-0.14055555555555552],[0.2522916666666667,-0.14055555555555552],[0.2522916666666667,-0.14055555555555552],[0.2522916666666667,-0.14055555555555552],[0.2522916666666667,-0.14055555555555552],[0.2522916666666667,-0.14055555555555552],[0.2522916666666667,-0.14055555555555552],[0.2522916666666667,-0.14055555555555552],[0.2522916666666667,-0.14055555555555552],[0.2522916666666667,-0.14055555555555552],[0.2742708333333333,-0.2381481481481482],[0.2742708333333333,-0.2381481481481482],[0.2742708333333333,-0.2381481481481482],[0.2742708333333333,-0.2381481481481482],[0.2742708333333333,-0.2381481481481482],[0.2742708333333333,-0.2381481481481482],[0.2742708333333333,-0.2381481481481482],[0.2742708333333333,-0.2381481481481482],[0.2742708333333333,-0.2381481481481482],[0.2742708333333333,-0.2381481481481482],[0.2742708333333333,-0.2381481481481482],[0.2742708333333333,-0.2381481481481482],[0.2742708333333333,-0.2381481481481482],[0.2742708333333333,-0.2381481481481482],[0.2742708333333333,-0.2381481481481482],[0.2742708333333333,-0.2381481481481482],[0.2742708333333333,-0.2381481481481482],[0.2742708333333333,-0.2381481481481482],[0.2742708333333333,-0.2381481481481482],[0.2742708333333333,-0.2381481481481482],[0.2742708333333333,-0.2381481481481482],[0.2742708333333333,-0.2381481481481482],[0.2742708333333333,-0.2381481481481482],[0.2742708333333333,-0.2381481481481482],[0.2742708333333333,-0.2381481481481482],[0.2742708333333333,-0.2381481481481482],[0.2742708333333333,-0.2381481481481482],[0.2742708333333333,-0.2381481481481482],[0.2742708333333333,-0.2381481481481482],[0.2742708333333333,-0.2381481481481482],[0.2742708333333333,-0.2381481481481482],[0.2742708333333333,-0.2381481481481482],[0.2742708333333333,-0.2381481481481482],[0.2742708333333333,-0.2381481481481482],[0.2742708333333333,-0.2381481481481482],[0.27531249999999996,-0.32629629629629625],[0.27531249999999996,-0.32629629629629625],[0.23604166666666657,-0.4072222222222222],[0.23604166666666657,-0.4072222222222222],[0.21104166666666657,-0.49740740740740746],[0.21104166666666657,-0.49740740740740746],[0.2211458333333333,-0.4698148148148148],[0.2211458333333333,-0.4698148148148148],[0.23718750000000005,-0.4468518518518519],[0.23718750000000005,-0.4468518518518519],[0.25104166666666666,-0.3877777777777777],[0.25104166666666666,-0.3877777777777777],[0.2647916666666667,-0.3688888888888889],[0.2647916666666667,-0.3688888888888889],[0.3009375000000001,-0.3581481481481481],[0.3009375000000001,-0.3581481481481481],[0.32916666666666666,-0.3440740740740741],[0.32916666666666666,-0.3440740740740741],[0.2816666666666668,-0.30759259259259264],[0.2816666666666668,-0.30759259259259264],[0.27791666666666665,-0.24518518518518514],[0.27791666666666665,-0.24518518518518514],[0.3039583333333333,-0.23777777777777773],[0.3039583333333333,-0.23777777777777773],[0.30916666666666665,-0.25166666666666665],[0.30916666666666665,-0.25166666666666665],[0.26572916666666657,-0.31870370370370377],[0.26572916666666657,-0.31870370370370377],[0.22708333333333333,-0.37518518518518523],[0.22708333333333333,-0.37518518518518523],[0.21229166666666663,-0.39222222222222225],[0.21229166666666663,-0.39222222222222225],[0.18250000000000005,-0.44722222222222224],[0.18250000000000005,-0.44722222222222224],[0.13072916666666667,-0.497037037037037],[0.13072916666666667,-0.497037037037037],[0.11208333333333324,-0.5238888888888888],[0.11208333333333324,-0.5238888888888888],[0.12833333333333338,-0.55],[0.12833333333333338,-0.55],[0.12000000000000005,-0.6018518518518519],[0.12000000000000005,-0.6018518518518519],[0.09072916666666657,-0.6294444444444444],[0.10364583333333334,-0.5868518518518518],[0.07020833333333343,-0.595925925925926],[0.05354166666666664,-0.5703703703703704],[0.019166666666666644,-0.5472222222222223],[0.001979166666666643,-0.5583333333333333],[0.025520833333333333,-0.5231481481481481],[-0.003541666666666643,-0.4994444444444444],[-0.017499999999999953,-0.45444444444444443],[-0.01895833333333338,-0.4257407407407407],[-0.019375000000000024,-0.392037037037037],[-0.02791666666666662,-0.38333333333333336],[0.002812500000000047,-0.35481481481481486],[0.002812500000000047,-0.35481481481481486],[0.02822916666666669,-0.3188888888888889],[0.07979166666666657,-0.302962962962963],[0.12072916666666676,-0.2192592592592592],[0.13156249999999994,-0.21574074074074073],[0.15302083333333344,-0.22629629629629627],[0.18104166666666663,-0.23555555555555555],[0.17760416666666667,-0.23203703703703707],[0.17760416666666667,-0.23203703703703707],[0.18760416666666657,-0.23777777777777773],[0.18135416666666657,-0.24740740740740744],[0.1875,-0.21703703703703703],[0.17520833333333338,-0.22407407407407406],[0.14812500000000003,-0.21851851851851853],[0.13479166666666675,-0.21277777777777773],[0.12760416666666666,-0.1948148148148148],[0.1506249999999999,-0.16296296296296298],[0.13604166666666656,-0.11018518518518519],[0.13708333333333325,-0.08574074074074076],[0.14833333333333343,-0.06518518518518517],[0.1681250000000001,-0.07111111111111107],[0.1820833333333333,-0.03222222222222218],[0.16833333333333325,-0.025185185185185227],[0.18125,-0.03425925925925926],[0.16156249999999991,-0.0448148148148149],[0.14114583333333333,-0.05240740740740743],[0.12843749999999995,-0.01703703703703712],[0.13270833333333343,-0.006851851851851936],[0.13427083333333342,0.005555555555555556],[0.11958333333333329,0.030555555555555555],[0.10489583333333338,0.07240740740740745],[0.0775000000000001,0.04685185185185177],[0.10072916666666672,0.06518518518518526],[0.06635416666666671,0.09981481481481477],[0.07510416666666657,0.11629629629629622],[0.0984375,0.1675925925925926],[0.10281250000000004,0.17629629629629637],[0.1009375000000001,0.2012962962962964],[0.11635416666666672,0.2564814814814815],[0.14354166666666662,0.3050000000000001],[0.13072916666666667,0.319074074074074],[0.16729166666666656,0.36129629629629634],[0.14895833333333333,0.3762962962962964],[0.18875000000000006,0.41092592592592586],[0.20843749999999991,0.4168518518518519],[0.2178124999999999,0.3709259259259258],[0.23541666666666666,0.35240740740740734],[0.24854166666666658,0.3550000000000001],[0.25270833333333326,0.30055555555555546],[0.2375,0.2662962962962962],[0.27072916666666674,0.21500000000000005],[0.26437499999999997,0.2012962962962964],[0.2882291666666667,0.2161111111111112],[0.26583333333333337,0.14722222222222223],[0.24697916666666658,0.11870370370370374],[0.24427083333333333,0.16870370370370374],[0.22583333333333327,0.15648148148148147],[0.17718749999999991,0.07833333333333325],[0.13635416666666675,0.08740740740740749],[0.1330208333333334,0.040740740740740744],[0.07552083333333333,0.05685185185185194],[0.06062500000000005,-0.002962962962963005],[0.04750000000000002,-0.07611111111111116],[0.05281250000000005,-0.11018518518518519],[0.05916666666666662,-0.08370370370370368],[0.05927083333333331,-0.12037037037037036],[0.03708333333333336,-0.11314814814814819],[0.05520833333333333,-0.06925925925925921],[0.06937499999999991,-0.09000000000000004],[0.06385416666666661,-0.08222222222222218],[0.0978125000000001,-0.08777777777777773],[0.09270833333333334,-0.05407407407407405],[0.11645833333333329,-0.04518518518518514],[0.12041666666666657,-0.016111111111111194],[0.12354166666666658,-0.04814814814814815],[0.121875,-0.0690740740740741],[0.14197916666666663,-0.11074074074074076],[0.1883333333333333,-0.13111111111111112],[0.1931250000000001,-0.125],[0.23135416666666658,-0.11537037037037039],[0.23135416666666658,-0.11537037037037039],[0.24249999999999997,-0.10351851851851848],[0.24249999999999997,-0.10351851851851848],[0.2787499999999999,-0.10111111111111115],[0.25791666666666657,-0.11537037037037039],[0.2991666666666667,-0.0962962962962963],[0.2947916666666667,-0.15777777777777777],[0.346875,-0.18037037037037032],[0.3876041666666666,-0.20203703703703707],[0.38250000000000006,-0.2566666666666667],[0.38875000000000004,-0.3177777777777778],[0.37552083333333336,-0.3653703703703704],[0.38260416666666663,-0.3955555555555556],[0.3714583333333332,-0.44666666666666666],[0.3706249999999999,-0.4498148148148148],[0.3706249999999999,-0.4498148148148148],[0.3622916666666666,-0.49833333333333335],[0.3622916666666666,-0.49833333333333335],[0.37479166666666663,-0.48814814814814816],[0.37479166666666663,-0.48814814814814816],[0.3538541666666667,-0.48648148148148146],[0.3538541666666667,-0.48648148148148146],[0.33177083333333335,-0.4955555555555556],[0.33177083333333335,-0.4955555555555556],[0.32708333333333334,-0.495],[0.32708333333333334,-0.495],[0.3618750000000001,-0.47000000000000003],[0.3618750000000001,-0.47000000000000003],[0.36822916666666666,-0.4625925925925926],[0.36822916666666666,-0.4625925925925926],[0.36697916666666663,-0.45388888888888895],[0.3615624999999999,-0.42185185185185187],[0.4105208333333332,-0.40851851851851856],[0.4105208333333332,-0.40851851851851856],[0.4122916666666666,-0.3888888888888889],[0.4122916666666666,-0.3888888888888889],[0.4102083333333333,-0.3933333333333333],[0.4102083333333333,-0.3933333333333333],[0.40302083333333344,-0.4020370370370371],[0.4037499999999999,-0.3344444444444445],[0.4037499999999999,-0.3344444444444445],[0.37489583333333343,-0.31870370370370377],[0.3625,-0.2735185185185185],[0.32625000000000004,-0.3037037037037037],[0.26291666666666674,-0.34685185185185186],[0.21593749999999995,-0.3907407407407407],[0.12052083333333338,-0.41500000000000004],[0.021354166666666667,-0.44000000000000006],[-0.06645833333333329,-0.41740740740740734],[-0.16333333333333327,-0.4035185185185185],[-0.2467708333333333,-0.45259259259259255]]","[[-0.1796875,-1.103888888888889,0.000199999999253464],[-0.1796875,-1.103888888888889,0.04099999999999682],[-0.1796875,-1.103888888888889,0.04490000000037497],[-0.2109375,-1.133148148148148,0.061699999999255795],[-0.24125000000000002,-1.125,0.07819999999925642],[-0.27072916666666663,-1.118888888888889,0.09490000000037213],[-0.2573958333333334,-1.1166666666666667,0.11159999999962622],[-0.24770833333333328,-1.0825925925925926,0.12819999999925358],[-0.22364583333333338,-1.0538888888888889,0.1449000000003693],[-0.21979166666666666,-1.041111111111111,0.16159999999962338],[-0.21322916666666672,-1.0075925925925926,0.17819999999925784],[-0.20874999999999996,-0.9825925925925927,0.19490000000037355],[-0.15552083333333327,-0.9416666666666667,0.21169999999925437],[-0.10718749999999998,-0.9085185185185186,0.22830000000074335],[-0.03979166666666671,-0.8822222222222221,0.24499999999999744],[0.030208333333333334,-0.8751851851851852,0.2615999999996248],[0.06364583333333336,-0.87,0.27819999999925216],[0.0853125000000001,-0.8668518518518519,0.2950000000000017],[0.10812499999999996,-0.8775925925925926,0.3139000000003733],[0.1388541666666666,-0.9118518518518518,0.3284000000003715],[0.15302083333333344,-0.9648148148148148,0.34490000000037213],[0.16979166666666667,-1.0124074074074074,0.3615999999996262],[0.1765625,-1.0622222222222222,0.3781999999992536],[0.16770833333333332,-1.0627777777777778,0.394999999999996],[0.16375000000000003,-1.0151851851851852,0.4115999999996234],[0.15979166666666675,-0.9551851851851851,0.42819999999925784],[0.1408333333333334,-0.9570370370370369,0.44490000000037355],[0.11427083333333338,-0.9581481481481481,0.4615000000000009],[0.09572916666666677,-0.9383333333333334,0.478199999999255],[0.058437500000000024,-0.9533333333333333,0.4949000000003707],[0.03604166666666669,-0.9657407407407408,0.5135999999996272],[0.005208333333333333,-0.9468518518518518,0.5314000000003745],[-0.02333333333333331,-0.9333333333333333,0.5465999999996285],[-0.03718750000000005,-0.965925925925926,0.5615000000000023],[-0.05270833333333336,-1.0335185185185185,0.5783000000007448],[-0.0703125,-1.0614814814814815,0.5949000000003721],[-0.07791666666666662,-1.0468518518518517,0.6139000000003705],[-0.10229166666666671,-1.068148148148148,0.6304999999999978],[-0.13468749999999996,-1.1103703703703705,0.646800000000745],[-0.15562499999999999,-1.124074074074074,0.6615999999996234],[-0.1748958333333333,-1.1216666666666668,0.6781999999992578],[-0.17322916666666663,-1.1575925925925927,0.6949000000003736],[-0.17156250000000003,-1.1935185185185184,0.7128000000007475],[-0.17020833333333332,-1.1872222222222222,0.7283000000007434],[-0.1720833333333334,-1.194074074074074,0.7451999999992509],[-0.17760416666666667,-1.2657407407407408,0.7615999999996248],[-0.15458333333333332,-1.2775925925925926,0.7781999999992522],[-0.13239583333333335,-1.2831481481481481,0.794900000000375],[-0.11020833333333328,-1.2887037037037037,0.8134999999999977],[-0.090625,-1.2938888888888889,0.8281999999992564],[-0.08083333333333335,-1.3044444444444443,0.8449000000003721],[-0.08187500000000002,-1.3042592592592592,0.8615999999996262],[-0.09333333333333335,-1.3151851851851852,0.8781999999992536],[-0.10499999999999995,-1.3442592592592593,0.8948000000007426],[-0.1014583333333333,-1.3564814814814814,0.9116999999992572],[-0.12156250000000005,-1.3135185185185185,0.9283000000007462],[-0.1547916666666667,-1.3425925925925926,0.9450000000000003],[-0.17864583333333334,-1.3416666666666666,0.9653000000007452],[-0.17864583333333334,-1.3416666666666666,0.978199999999255],[-0.18135416666666668,-1.3092592592592593,0.9949000000003707],[-0.18135416666666668,-1.3092592592592593,1.0115999999996248],[-0.20416666666666666,-1.2718518518518518,1.0281999999992522],[-0.20416666666666666,-1.2718518518518518,1.0448000000007411],[-0.2046875,-1.223148148148148,1.061599999999629],[-0.2046875,-1.223148148148148,1.0781999999992564],[-0.22625000000000003,-1.1614814814814816,1.0949999999999989],[-0.22625000000000003,-1.1614814814814816,1.1115999999996262],[-0.2407291666666667,-1.090925925925926,1.1281999999992536],[-0.2407291666666667,-1.090925925925926,1.1449000000003693],[-0.22270833333333329,-1.0155555555555555,1.1614999999999966],[-0.21197916666666666,-0.9657407407407408,1.1781999999992578],[-0.18010416666666665,-0.9512962962962964,1.1950000000000003],[-0.1658333333333334,-0.9218518518518519,1.2115999999996276],[-0.16145833333333334,-0.9061111111111111,1.228199999999255],[-0.1766666666666667,-0.8944444444444445,1.2449000000003707],[-0.15125000000000005,-0.8912962962962964,1.2616999999992515],[-0.1632291666666667,-0.9053703703703704,1.2781999999992522],[-0.14031250000000003,-0.9187037037037038,1.294900000000375],[-0.11979166666666667,-0.8922222222222222,1.3115000000000023],[-0.11833333333333336,-0.8955555555555555,1.3283000000007448],[-0.13729166666666662,-0.8868518518518518,1.3449000000003721],[-0.13677083333333329,-0.8344444444444444,1.3615999999996262],[-0.1404166666666666,-0.7911111111111111,1.3781999999992536],[-0.12124999999999998,-0.7422222222222222,1.3949000000003693],[-0.11177083333333329,-0.7359259259259259,1.4114999999999966],[-0.12052083333333338,-0.7125925925925927,1.4281999999992578],[-0.10020833333333339,-0.677962962962963,1.4449000000003736],[-0.1092708333333333,-0.6664814814814815,1.461500000000001],[-0.10479166666666669,-0.662962962962963,1.4783000000007434],[-0.13020833333333334,-0.6027777777777777,1.4949000000003707],[-0.14624999999999996,-0.5605555555555556,1.514000000000003],[-0.17562500000000003,-0.5251851851851852,1.530300000000743],[-0.17562500000000003,-0.5251851851851852,1.5453000000007435],[-0.1977083333333333,-0.5092592592592593,1.561599999999629],[-0.23312499999999994,-0.44833333333333336,1.5783000000007448],[-0.2501041666666667,-0.4020370370370371,1.5949000000003721],[-0.26937500000000003,-0.36925925925925923,1.6115999999996262],[-0.29281250000000003,-0.33648148148148144,1.6285000000000025],[-0.29281250000000003,-0.33648148148148144,1.65109999999963],[-0.29375,-0.30333333333333334,1.6661999999992574],[-0.30520833333333336,-0.27740740740740744,1.6811999999992508],[-0.3042708333333334,-0.2940740740740741,1.6948000000007468],[-0.30020833333333335,-0.29611111111111105,1.7115999999996276],[-0.27364583333333337,-0.2844444444444445,1.7301999999992574],[-0.2672916666666667,-0.26351851851851854,1.7450999999996242],[-0.24718749999999995,-0.3242592592592593,1.761800000000747],[-0.24874999999999994,-0.34018518518518515,1.7814000000003745],[-0.24874999999999994,-0.34018518518518515,1.7950000000000017],[-0.25833333333333336,-0.3496296296296296,1.8118000000007441],[-0.2555208333333333,-0.34944444444444445,1.8303000000007472],[-0.2764583333333333,-0.375,1.8449999999999989],[-0.27802083333333333,-0.39759259259259255,1.8618000000007413],[-0.27677083333333335,-0.39148148148148143,1.878300000000742],[-0.2735416666666667,-0.3940740740740741,1.8975000000000009],[-0.3163541666666667,-0.45333333333333337,1.9145999999996235],[-0.3303125,-0.4557407407407408,1.9284999999999997],[-0.34020833333333333,-0.37777777777777777,1.9495000000000005],[-0.31229166666666663,-0.3701851851851851,1.9633000000007428],[-0.28781249999999997,-0.3690740740740741,1.9783000000007434],[-0.2842708333333333,-0.3901851851851852,1.9949999999999974],[-0.2569791666666667,-0.35351851851851845,2.014900000000374],[-0.25541666666666674,-0.3942592592592592,2.028500000000001],[-0.2404166666666666,-0.445,2.0450000000000017],[-0.22322916666666662,-0.45925925925925926,2.063699999999251],[-0.1860416666666667,-0.4479629629629629,2.0790999999996274],[-0.15635416666666668,-0.4733333333333334,2.0950999999996256],[-0.13999999999999999,-0.5285185185185185,2.111699999999253],[-0.14427083333333332,-0.5520370370370371,2.130199999999256],[-0.14833333333333332,-0.582962962962963,2.14509999999963],[-0.1404166666666666,-0.5792592592592593,2.161699999999257],[-0.1498958333333333,-0.5914814814814814,2.1815999999996265],[-0.15812499999999996,-0.5325925925925926,2.195900000000371],[-0.15499999999999994,-0.4842592592592593,2.2116999999992544],[-0.18697916666666667,-0.47092592592592597,2.22840000000037],[-0.21677083333333336,-0.46277777777777773,2.248199999999251],[-0.2561458333333333,-0.4855555555555555,2.2631999999992516],[-0.2627083333333334,-0.505,2.2783000000007476],[-0.29500000000000004,-0.5024074074074074,2.296999999999997],[-0.29145833333333326,-0.46796296296296297,2.3141999999992535],[-0.28395833333333337,-0.472037037037037,2.3284000000003715],[-0.26802083333333326,-0.4781481481481481,2.347699999999257],[-0.2508333333333333,-0.4962962962962963,2.361699999999253],[-0.28364583333333326,-0.5361111111111111,2.3784000000003687],[-0.2561458333333333,-0.5481481481481482,2.3969000000003717],[-0.2205208333333334,-0.5196296296296297,2.411699999999257],[-0.16739583333333338,-0.4729629629629629,2.4284999999999997],[-0.1421875,-0.44074074074074077,2.4489000000003713],[-0.11677083333333335,-0.3809259259259259,2.4643000000007476],[-0.11593749999999996,-0.3455555555555556,2.4783000000007434],[-0.12250000000000003,-0.29370370370370374,2.4955999999996266],[-0.13500000000000004,-0.3055555555555556,2.5146999999992516],[-0.14156249999999998,-0.2733333333333334,2.5286999999992545],[-0.11208333333333335,-0.2044444444444444,2.5459000000003726],[-0.11687500000000005,-0.14981481481481476,2.564699999999256],[-0.11687500000000005,-0.14981481481481476,2.5783000000007448],[-0.11031249999999998,-0.1398148148148148,2.594999999999999],[-0.10625,-0.09222222222222225,2.611699999999253],[-0.10833333333333334,-0.05944444444444449,2.6281999999992536],[-0.10729166666666666,-0.08888888888888889,2.6448000000007426],[-0.10229166666666671,-0.07518518518518523,2.663800000000741],[-0.09489583333333336,-0.05611111111111113,2.679000000000002],[-0.09010416666666667,-0.03333333333333333,2.6964000000003736],[-0.07843749999999995,-0.05055555555555547,2.7155999999996254],[-0.08624999999999995,-0.06722222222222224,2.7300999999996236],[-0.08916666666666669,-0.09018518518518516,2.745099999999624],[-0.10864583333333329,-0.08425925925925926,2.7616999999992515],[-0.14093749999999997,-0.09000000000000004,2.7838000000007455],[-0.14427083333333332,-0.0816666666666667,2.797599999999626],[-0.1310416666666666,-0.037037037037037035,2.8139000000003733],[-0.13208333333333327,-0.07185185185185188,2.8281999999992564],[-0.10208333333333333,-0.0868518518518518,2.847099999999628],[-0.10135416666666662,-0.03944444444444436,2.861599999999626],[-0.1172916666666667,0.011296296296296339,2.8784000000003687],[-0.13624999999999995,0.004444444444444402,2.894999999999996],[-0.13291666666666668,0.008333333333333333,2.9158000000007434],[-0.11166666666666672,0.026666666666666623,2.9306999999992556],[-0.08302083333333338,0.03185185185185194,2.949099999999625],[-0.08302083333333338,0.03185185185185194,2.961999999999996],[-0.08302083333333338,0.03185185185185194,2.998400000000373],[-0.10208333333333333,0.02555555555555547,3.0170999999996297],[-0.10208333333333333,0.02555555555555547,3.023400000000372],[-0.10302083333333331,0.008888888888888804,3.052199999999253],[-0.10302083333333331,0.008888888888888804,3.0583000000007416],[-0.11437499999999995,0.03351851851851856,3.083500000000001],[-0.11437499999999995,0.03351851851851856,3.0899000000003696],[-0.16187499999999996,0.055000000000000084,3.1190999999996265],[-0.16187499999999996,0.055000000000000084,3.1263000000007466],[-0.16145833333333334,0.05277777777777778,3.151699999999252],[-0.16145833333333334,0.05277777777777778,3.158099999999628],[-0.14489583333333336,0.035740740740740656,3.1831999999992533],[-0.14489583333333336,0.035740740740740656,3.1894000000003686],[-0.12604166666666666,0.10425925925925918,3.2153000000007452],[-0.12604166666666666,0.10425925925925918,3.221800000000748],[-0.1203125,0.15555555555555556,3.2485999999996267],[-0.1203125,0.15555555555555556,3.2561999999992537],[-0.12333333333333331,0.17592592592592593,3.2819999999999965],[-0.12333333333333331,0.17592592592592593,3.2893000000007433],[-0.11947916666666672,0.21648148148148144,3.3156999999992536],[-0.11947916666666672,0.21648148148148144,3.322499999999998],[-0.07458333333333336,0.2822222222222222,3.34890000000037],[-0.07458333333333336,0.2822222222222222,3.3560000000000016],[-0.071875,0.34814814814814815,3.382300000000747],[-0.071875,0.34814814814814815,3.388699999999254],[-0.06875,0.39203703703703713,3.418400000000375],[-0.06875,0.39203703703703713,3.4246999999992553],[-0.058124999999999954,0.3896296296296296,3.450000000000003],[-0.058124999999999954,0.3896296296296296,3.464800000000743],[-0.03802083333333333,0.3831481481481481,3.483599999999626],[-0.03802083333333333,0.3831481481481481,3.4900999999996287],[-0.04770833333333328,0.375,3.5186999999992565],[-0.04770833333333328,0.375,3.5269000000003743],[-0.027604166666666666,0.32888888888888895,3.548800000000746],[-0.027604166666666666,0.32888888888888895,3.5556999999992556],[-0.027604166666666666,0.32888888888888895,3.561699999999256],[-0.027604166666666666,0.32888888888888895,3.580699999999254],[-0.022083333333333382,0.30907407407407406,3.6139000000003705],[-0.022083333333333382,0.30907407407407406,3.6199999999999974],[-0.03947916666666664,0.23962962962962958,3.645599999999625],[-0.03947916666666664,0.23962962962962958,3.65259999999963],[-0.042708333333333334,0.14388888888888898,3.680599999999629],[-0.042708333333333334,0.14388888888888898,3.6879000000003685],[-0.08645833333333333,0.01962962962962967,3.7140999999996254],[-0.08645833333333333,0.01962962962962967,3.720599999999628],[-0.1078125,-0.11277777777777774,3.7474000000003684],[-0.1078125,-0.11277777777777774,3.753900000000371],[-0.11958333333333329,-0.19759259259259257,3.780300000000743],[-0.11958333333333329,-0.19759259259259257,3.786300000000743],[-0.1592708333333333,-0.24314814814814817,3.812199999999251],[-0.1592708333333333,-0.24314814814814817,3.820099999999627],[-0.2163541666666667,-0.3131481481481482,3.8471999999992548],[-0.2163541666666667,-0.3131481481481482,3.854400000000375],[-0.22999999999999995,-0.37666666666666665,3.8805999999996246],[-0.22999999999999995,-0.37666666666666665,3.887099999999627],[-0.2482291666666666,-0.3824074074074074,3.912300000000748],[-0.2482291666666666,-0.3824074074074074,3.919300000000746],[-0.2808333333333334,-0.3490740740740741,3.9455999999996294],[-0.2808333333333334,-0.3490740740740741,3.9530999999996297],[-0.2617708333333333,-0.27870370370370373,3.9804999999999993],[-0.2617708333333333,-0.27870370370370373,3.986900000000375],[-0.28541666666666665,-0.192037037037037,4.012300000000742],[-0.28541666666666665,-0.192037037037037,4.019400000000374],[-0.2911458333333333,-0.11314814814814819,4.045599999999624],[-0.2911458333333333,-0.11314814814814819,4.0529000000003705],[-0.3129166666666666,-0.034444444444444486,4.080500000000001],[-0.3129166666666666,-0.034444444444444486,4.087599999999625],[-0.2816666666666666,-0.05333333333333336,4.114099999999624],[-0.2816666666666666,-0.05333333333333336,4.1205],[-0.20541666666666672,-0.0764814814814815,4.148300000000745],[-0.20541666666666672,-0.0764814814814815,4.155499999999996],[-0.12843749999999995,-0.06407407407407412,4.180400000000375],[-0.12843749999999995,-0.06407407407407412,4.186699999999256],[-0.06572916666666669,-0.022222222222222223,4.212199999999257],[-0.06572916666666669,-0.022222222222222223,4.219199999999255],[0.0014583333333333095,-0.020185185185185143,4.245599999999627],[0.0014583333333333095,-0.020185185185185143,4.252699999999251],[0.09739583333333333,-0.14888888888888885,4.278800000000743],[0.09739583333333333,-0.14888888888888885,4.286099999999628],[0.14093749999999997,-0.19148148148148145,4.312199999999251],[0.14093749999999997,-0.19148148148148145,4.319400000000371],[0.1716666666666666,-0.2757407407407407,4.345500000000001],[0.1716666666666666,-0.2757407407407407,4.352900000000375],[0.19479166666666667,-0.34370370370370373,4.378900000000371],[0.19479166666666667,-0.34370370370370373,4.3860999999996295],[0.20802083333333338,-0.4262962962962963,4.412300000000748],[0.20802083333333338,-0.4262962962962963,4.419300000000746],[0.1640625,-0.42111111111111105,4.4470999999996295],[0.1640625,-0.42111111111111105,4.453900000000374],[0.08072916666666667,-0.4624074074074074,4.480499999999999],[0.08072916666666667,-0.4624074074074074,4.488599999999629],[0.00458333333333331,-0.5114814814814814,4.51409999999963],[0.00458333333333331,-0.5114814814814814,4.520599999999625],[-0.06875,-0.5488888888888889,4.548699999999258],[-0.06875,-0.5488888888888889,4.556699999999253],[-0.1672916666666667,-0.6546296296296297,4.580400000000374],[-0.1672916666666667,-0.6546296296296297,4.586800000000743],[-0.28531249999999997,-0.679074074074074,4.612099999999629],[-0.28531249999999997,-0.679074074074074,4.620800000000742],[-0.3961458333333333,-0.7992592592592593,4.645499999999998],[-0.3961458333333333,-0.7992592592592593,4.652900000000372],[-0.440625,-0.7594444444444445,4.678900000000375],[-0.440625,-0.7594444444444445,4.686300000000742],[-0.41135416666666663,-0.8264814814814815,4.712300000000745],[-0.41135416666666663,-0.8264814814814815,4.731099999999628],[-0.37177083333333333,-0.8777777777777778,4.744800000000744],[-0.3223958333333333,-0.9585185185185185,4.761599999999625],[-0.2678125,-0.9953703703703703,4.778999999999996],[-0.1859375,-0.9435185185185185,4.794800000000741],[-0.1859375,-0.9435185185185185,4.811500000000002],[-0.1171875,-0.8887037037037037,4.828199999999256],[-0.09968750000000005,-0.7872222222222223,4.844800000000745],[-0.03822916666666672,-0.7037037037037037,4.861599999999626],[-0.05552083333333328,-0.5275925925925925,4.878599999999629],[-0.09052083333333331,-0.48518518518518516,4.894900000000369],[-0.19760416666666672,-0.36129629629629634,4.913599999999626],[-0.2741666666666667,-0.2712962962962963,4.928199999999258],[-0.35562499999999997,-0.15555555555555556,4.944800000000747],[-0.3945833333333333,-0.1301851851851852,4.962199999999257],[-0.4867708333333333,-0.19166666666666668,4.978199999999255],[-0.5563541666666667,-0.28425925925925927,4.994800000000744],[-0.5647916666666667,-0.40018518518518525,5.011800000000747],[-0.6094791666666667,-0.4522222222222222,5.028199999999252],[-0.5817708333333333,-0.615,5.046800000000744],[-0.5248958333333333,-0.6424074074074073,5.0614000000003685],[-0.4691666666666666,-0.6198148148148148,5.079000000000001],[-0.4040625,-0.5135185185185185,5.095199999999252],[-0.3289583333333333,-0.4242592592592593,5.115300000000744],[-0.28010416666666665,-0.24074074074074073,5.131500000000003],[-0.22291666666666668,-0.06666666666666667,5.147800000000743],[-0.19104166666666664,0.08074074074074078,5.161999999999999],[-0.16875,0.24351851851851852,5.178199999999258],[-0.12479166666666662,0.32407407407407407,5.194800000000747],[-0.07833333333333338,0.42777777777777776,5.2134000000003695],[-0.05687500000000002,0.4527777777777778,5.228199999999255],[-0.013333333333333286,0.40981481481481474,5.247199999999253],[0.007604166666666619,0.3344444444444445,5.261599999999625],[0.03312499999999995,0.23462962962962972,5.278099999999625],[0.026145833333333358,0.09888888888888885,5.297499999999999],[0.04364583333333331,0.09055555555555551,5.315400000000373],[0.06479166666666672,0.09407407407407399,5.330099999999625],[0.07333333333333343,0.06851851851851852,5.345300000000748],[0.09958333333333323,0.11814814814814806,5.366800000000744],[0.11802083333333328,0.11722222222222214,5.383000000000003],[0.11802083333333328,0.11722222222222214,5.394800000000743],[0.1015625,0.10185185185185185,5.411499999999997],[0.1015625,0.10185185185185185,5.428099999999624],[0.06375000000000004,0.15555555555555556,5.4491999999992515],[0.06375000000000004,0.15555555555555556,5.461500000000001],[0.022916666666666665,0.13796296296296295,5.478199999999255],[-0.01114583333333338,0.14648148148148152,5.495199999999251],[-0.01114583333333338,0.14648148148148152,5.511499999999998],[-0.01572916666666669,0.1705555555555556,5.528199999999252],[-0.01572916666666669,0.1705555555555556,5.545400000000377],[-0.016458333333333287,0.11148148148148157,5.564699999999256],[-0.016458333333333287,0.11148148148148157,5.578199999999249],[-0.07260416666666672,0.029259259259259176,5.594800000000738],[-0.07260416666666672,0.029259259259259176,5.611599999999633],[-0.12833333333333338,-0.05796296296296299,5.628199999999261],[-0.12833333333333338,-0.05796296296296299,5.64480000000075],[-0.20906250000000004,-0.22518518518518524,5.661499999999997],[-0.20906250000000004,-0.22518518518518524,5.678099999999624],[-0.25729166666666664,-0.3301851851851852,5.694800000000747],[-0.25729166666666664,-0.3301851851851852,5.711499999999994],[-0.27802083333333333,-0.47555555555555556,5.731300000000751],[-0.2595833333333334,-0.5140740740740741,5.7489000000003685],[-0.23302083333333337,-0.4922222222222222,5.763400000000367],[-0.196875,-0.45759259259259266,5.7780999999996325],[-0.16156250000000003,-0.4235185185185185,5.794800000000741],[-0.12895833333333329,-0.36148148148148146,5.813499999999998],[-0.05166666666666669,-0.29370370370370374,5.830599999999627],[0.05437500000000005,-0.2477777777777778,5.845199999999259],[0.14510416666666662,-0.18074074074074079,5.8614999999999995],[0.2046875,-0.1574074074074074,5.880699999999258],[0.2046875,-0.1574074074074074,5.899099999999628],[0.2582291666666668,-0.0764814814814815,5.914999999999999],[0.2612499999999999,-0.10499999999999998,5.9284999999999926],[0.2522916666666667,-0.14055555555555552,5.944800000000747],[0.2522916666666667,-0.14055555555555552,5.961499999999994],[0.2522916666666667,-0.14055555555555552,5.978199999999255],[0.2522916666666667,-0.14055555555555552,5.994800000000744],[0.2522916666666667,-0.14055555555555552,6.011500000000005],[0.2522916666666667,-0.14055555555555552,6.0280999999996325],[0.2522916666666667,-0.14055555555555552,6.044900000000375],[0.2522916666666667,-0.14055555555555552,6.061500000000002],[0.2522916666666667,-0.14055555555555552,6.078300000000745],[0.2522916666666667,-0.14055555555555552,6.094800000000738],[0.2522916666666667,-0.14055555555555552,6.111599999999633],[0.2522916666666667,-0.14055555555555552,6.128199999999261],[0.2522916666666667,-0.14055555555555552,6.144900000000369],[0.2522916666666667,-0.14055555555555552,6.161499999999997],[0.2522916666666667,-0.14055555555555552,6.178199999999258],[0.2522916666666667,-0.14055555555555552,6.194800000000747],[0.2522916666666667,-0.14055555555555552,6.211400000000374],[0.2522916666666667,-0.14055555555555552,6.228099999999621],[0.2522916666666667,-0.14055555555555552,6.244800000000744],[0.2522916666666667,-0.14055555555555552,6.261500000000005],[0.2522916666666667,-0.14055555555555552,6.278199999999252],[0.2522916666666667,-0.14055555555555552,6.294900000000375],[0.2522916666666667,-0.14055555555555552,6.311500000000002],[0.2522916666666667,-0.14055555555555552,6.32809999999963],[0.2522916666666667,-0.14055555555555552,6.344800000000738],[0.2522916666666667,-0.14055555555555552,6.3614999999999995],[0.2522916666666667,-0.14055555555555552,6.378199999999261],[0.2522916666666667,-0.14055555555555552,6.39480000000075],[0.2522916666666667,-0.14055555555555552,6.411499999999997],[0.2522916666666667,-0.14055555555555552,6.428199999999258],[0.2522916666666667,-0.14055555555555552,6.444800000000747],[0.2522916666666667,-0.14055555555555552,6.461400000000374],[0.2522916666666667,-0.14055555555555552,6.478199999999255],[0.2522916666666667,-0.14055555555555552,6.494800000000744],[0.2522916666666667,-0.14055555555555552,6.511500000000005],[0.2522916666666667,-0.14055555555555552,6.528300000000748],[0.2522916666666667,-0.14055555555555552,6.5453000000007435],[0.2522916666666667,-0.14055555555555552,6.561599999999622],[0.2522916666666667,-0.14055555555555552,6.57809999999963],[0.2522916666666667,-0.14055555555555552,6.594900000000372],[0.2522916666666667,-0.14055555555555552,6.6114999999999995],[0.2522916666666667,-0.14055555555555552,6.628099999999627],[0.2522916666666667,-0.14055555555555552,6.64480000000075],[0.2522916666666667,-0.14055555555555552,6.661499999999997],[0.2522916666666667,-0.14055555555555552,6.678199999999258],[0.2522916666666667,-0.14055555555555552,6.694800000000747],[0.2522916666666667,-0.14055555555555552,6.711599999999628],[0.2522916666666667,-0.14055555555555552,6.7283000000007505],[0.2522916666666667,-0.14055555555555552,6.744800000000744],[0.2522916666666667,-0.14055555555555552,6.761500000000005],[0.2522916666666667,-0.14055555555555552,6.7780999999996325],[0.2522916666666667,-0.14055555555555552,6.794800000000741],[0.2522916666666667,-0.14055555555555552,6.811500000000002],[0.2522916666666667,-0.14055555555555552,6.82809999999963],[0.2522916666666667,-0.14055555555555552,6.844800000000738],[0.2522916666666667,-0.14055555555555552,6.861400000000366],[0.2522916666666667,-0.14055555555555552,6.878199999999261],[0.2522916666666667,-0.14055555555555552,6.89480000000075],[0.2522916666666667,-0.14055555555555552,6.911499999999997],[0.2522916666666667,-0.14055555555555552,6.928099999999624],[0.2522916666666667,-0.14055555555555552,6.944800000000747],[0.2522916666666667,-0.14055555555555552,6.961499999999994],[0.2522916666666667,-0.14055555555555552,6.978099999999621],[0.2522916666666667,-0.14055555555555552,6.994800000000744],[0.2522916666666667,-0.14055555555555552,7.011500000000005],[0.2522916666666667,-0.14055555555555552,7.0280999999996325],[0.2522916666666667,-0.14055555555555552,7.044800000000741],[0.2522916666666667,-0.14055555555555552,7.0614000000003685],[0.2742708333333333,-0.2381481481481482,7.07809999999963],[0.2742708333333333,-0.2381481481481482,7.094900000000372],[0.2742708333333333,-0.2381481481481482,7.1114999999999995],[0.2742708333333333,-0.2381481481481482,7.128099999999627],[0.2742708333333333,-0.2381481481481482,7.14480000000075],[0.2742708333333333,-0.2381481481481482,7.161400000000377],[0.2742708333333333,-0.2381481481481482,7.178099999999624],[0.2742708333333333,-0.2381481481481482,7.194699999999251],[0.2742708333333333,-0.2381481481481482,7.211400000000374],[0.2742708333333333,-0.2381481481481482,7.228099999999621],[0.2742708333333333,-0.2381481481481482,7.244800000000744],[0.2742708333333333,-0.2381481481481482,7.261400000000371],[0.2742708333333333,-0.2381481481481482,7.278199999999252],[0.2742708333333333,-0.2381481481481482,7.294800000000741],[0.2742708333333333,-0.2381481481481482,7.3114000000003685],[0.2742708333333333,-0.2381481481481482,7.32809999999963],[0.2742708333333333,-0.2381481481481482,7.344900000000372],[0.2742708333333333,-0.2381481481481482,7.361599999999633],[0.2742708333333333,-0.2381481481481482,7.378099999999627],[0.2742708333333333,-0.2381481481481482,7.39480000000075],[0.2742708333333333,-0.2381481481481482,7.411400000000377],[0.2742708333333333,-0.2381481481481482,7.428099999999624],[0.2742708333333333,-0.2381481481481482,7.444800000000747],[0.2742708333333333,-0.2381481481481482,7.461400000000374],[0.2742708333333333,-0.2381481481481482,7.478099999999621],[0.2742708333333333,-0.2381481481481482,7.4946999999992485],[0.2742708333333333,-0.2381481481481482,7.511500000000005],[0.2742708333333333,-0.2381481481481482,7.5280999999996325],[0.2742708333333333,-0.2381481481481482,7.544900000000375],[0.2742708333333333,-0.2381481481481482,7.5614000000003685],[0.2742708333333333,-0.2381481481481482,7.578199999999249],[0.2742708333333333,-0.2381481481481482,7.594900000000372],[0.2742708333333333,-0.2381481481481482,7.6114999999999995],[0.2742708333333333,-0.2381481481481482,7.628099999999627],[0.2742708333333333,-0.2381481481481482,7.644900000000369],[0.27531249999999996,-0.32629629629629625,7.661499999999997],[0.27531249999999996,-0.32629629629629625,7.678099999999624],[0.23604166666666657,-0.4072222222222222,7.695],[0.23604166666666657,-0.4072222222222222,7.711499999999994],[0.21104166666666657,-0.49740740740740746,7.728199999999255],[0.21104166666666657,-0.49740740740740746,7.744800000000744],[0.2211458333333333,-0.4698148148148148,7.761500000000005],[0.2211458333333333,-0.4698148148148148,7.7780999999996325],[0.23718750000000005,-0.4468518518518519,7.79469999999926],[0.23718750000000005,-0.4468518518518519,7.811500000000002],[0.25104166666666666,-0.3877777777777777,7.828199999999249],[0.25104166666666666,-0.3877777777777777,7.844800000000738],[0.2647916666666667,-0.3688888888888889,7.8614999999999995],[0.2647916666666667,-0.3688888888888889,7.878099999999627],[0.3009375000000001,-0.3581481481481481,7.89480000000075],[0.3009375000000001,-0.3581481481481481,7.911499999999997],[0.32916666666666666,-0.3440740740740741,7.928199999999258],[0.32916666666666666,-0.3440740740740741,7.944800000000747],[0.2816666666666668,-0.30759259259259264,7.961400000000374],[0.2816666666666668,-0.30759259259259264,7.9780000000000015],[0.27791666666666665,-0.24518518518518514,7.994800000000744],[0.27791666666666665,-0.24518518518518514,8.011400000000371],[0.3039583333333333,-0.23777777777777773,8.028199999999252],[0.3039583333333333,-0.23777777777777773,8.044800000000741],[0.30916666666666665,-0.25166666666666665,8.061400000000368],[0.30916666666666665,-0.25166666666666665,8.07809999999963],[0.26572916666666657,-0.31870370370370377,8.094699999999257],[0.26572916666666657,-0.31870370370370377,8.1115],[0.22708333333333333,-0.37518518518518523,8.128099999999627],[0.22708333333333333,-0.37518518518518523,8.14480000000075],[0.21229166666666663,-0.39222222222222225,8.161499999999997],[0.21229166666666663,-0.39222222222222225,8.178099999999624],[0.18250000000000005,-0.44722222222222224,8.194699999999251],[0.18250000000000005,-0.44722222222222224,8.211499999999994],[0.13072916666666667,-0.497037037037037,8.228199999999255],[0.13072916666666667,-0.497037037037037,8.244800000000744],[0.11208333333333324,-0.5238888888888888,8.261500000000005],[0.11208333333333324,-0.5238888888888888,8.278099999999633],[0.12833333333333338,-0.55,8.294800000000741],[0.12833333333333338,-0.55,8.311599999999622],[0.12000000000000005,-0.6018518518518519,8.32809999999963],[0.12000000000000005,-0.6018518518518519,8.34819999999926],[0.09072916666666657,-0.6294444444444444,8.3615],[0.10364583333333334,-0.5868518518518518,8.378300000000742],[0.07020833333333343,-0.595925925925926,8.398000000000003],[0.05354166666666664,-0.5703703703703704,8.413099999999623],[0.019166666666666644,-0.5472222222222223,8.428300000000739],[0.001979166666666643,-0.5583333333333333,8.449599999999627],[0.025520833333333333,-0.5231481481481481,8.464599999999628],[-0.003541666666666643,-0.4994444444444444,8.47840000000037],[-0.017499999999999953,-0.45444444444444443,8.494999999999997],[-0.01895833333333338,-0.4257407407407407,8.514999999999993],[-0.019375000000000024,-0.392037037037037,8.528400000000367],[-0.02791666666666662,-0.38333333333333336,8.545099999999628],[0.002812500000000047,-0.35481481481481486,8.566400000000378],[0.002812500000000047,-0.35481481481481486,8.578499999999998],[0.02822916666666669,-0.3188888888888889,8.594800000000738],[0.07979166666666657,-0.302962962962963,8.611599999999633],[0.12072916666666676,-0.2192592592592592,8.631300000000742],[0.13156249999999994,-0.21574074074074073,8.64759999999962],[0.15302083333333344,-0.22629629629629627,8.661499999999997],[0.18104166666666663,-0.23555555555555555,8.681199999999258],[0.17760416666666667,-0.23203703703703707,8.694800000000747],[0.17760416666666667,-0.23203703703703707,8.711400000000374],[0.18760416666666657,-0.23777777777777773,8.728099999999621],[0.18135416666666657,-0.24740740740740744,8.747999999999998],[0.1875,-0.21703703703703703,8.76359999999962],[0.17520833333333338,-0.22407407407407406,8.778099999999633],[0.14812500000000003,-0.21851851851851853,8.797099999999624],[0.13479166666666675,-0.21277777777777773,8.811599999999622],[0.12760416666666666,-0.1948148148148148,8.828300000000745],[0.1506249999999999,-0.16296296296296298,8.848099999999626],[0.13604166666666656,-0.11018518518518519,8.862099999999622],[0.13708333333333325,-0.08574074074074076,8.87819999999926],[0.14833333333333343,-0.06518518518518517,8.89490000000037],[0.1681250000000001,-0.07111111111111107,8.915199999999253],[0.1820833333333333,-0.03222222222222218,8.929599999999631],[0.16833333333333325,-0.025185185185185227,8.945],[0.18125,-0.03425925925925926,8.964599999999628],[0.16156249999999991,-0.0448148148148149,8.97830000000075],[0.14114583333333333,-0.05240740740740743,8.995099999999631],[0.12843749999999995,-0.01703703703703712,9.011699999999259],[0.13270833333333343,-0.006851851851851936,9.028099999999633],[0.13427083333333342,0.005555555555555556,9.04469999999926],[0.11958333333333329,0.030555555555555555,9.061400000000368],[0.10489583333333338,0.07240740740740745,9.07809999999963],[0.0775000000000001,0.04685185185185177,9.094800000000738],[0.10072916666666672,0.06518518518518526,9.111400000000366],[0.06635416666666671,0.09981481481481477,9.128099999999627],[0.07510416666666657,0.11629629629629622,9.144699999999254],[0.0984375,0.1675925925925926,9.161499999999997],[0.10281250000000004,0.17629629629629637,9.178000000000004],[0.1009375000000001,0.2012962962962964,9.194800000000747],[0.11635416666666672,0.2564814814814815,9.211499999999994],[0.14354166666666662,0.3050000000000001,9.23130000000075],[0.13072916666666667,0.319074074074074,9.246900000000373],[0.16729166666666656,0.36129629629629634,9.261500000000005],[0.14895833333333333,0.3762962962962964,9.277999999999999],[0.18875000000000006,0.41092592592592586,9.294800000000741],[0.20843749999999991,0.4168518518518519,9.311500000000002],[0.2178124999999999,0.3709259259259258,9.32809999999963],[0.23541666666666666,0.35240740740740734,9.344699999999257],[0.24854166666666658,0.3550000000000001,9.361400000000366],[0.25270833333333326,0.30055555555555546,9.380599999999625],[0.2375,0.2662962962962962,9.39480000000075],[0.27072916666666674,0.21500000000000005,9.411400000000377],[0.26437499999999997,0.2012962962962964,9.428000000000004],[0.2882291666666667,0.2161111111111112,9.444800000000747],[0.26583333333333337,0.14722222222222223,9.461400000000374],[0.24697916666666658,0.11870370370370374,9.478000000000002],[0.24427083333333333,0.16870370370370374,9.494699999999249],[0.22583333333333327,0.15648148148148147,9.511400000000371],[0.17718749999999991,0.07833333333333325,9.528099999999633],[0.13635416666666675,0.08740740740740749,9.544800000000741],[0.1330208333333334,0.040740740740740744,9.563699999999251],[0.07552083333333333,0.05685185185185194,9.57809999999963],[0.06062500000000005,-0.002962962962963005,9.594800000000738],[0.04750000000000002,-0.07611111111111116,9.6115],[0.05281250000000005,-0.11018518518518519,9.628099999999627],[0.05916666666666662,-0.08370370370370368,9.64480000000075],[0.05927083333333331,-0.12037037037037036,9.661400000000377],[0.03708333333333336,-0.11314814814814819,9.678000000000004],[0.05520833333333333,-0.06925925925925921,9.694800000000747],[0.06937499999999991,-0.09000000000000004,9.71519999999925],[0.06385416666666661,-0.08222222222222218,9.72840000000037],[0.0978125000000001,-0.08777777777777773,9.744800000000744],[0.09270833333333334,-0.05407407407407405,9.761400000000371],[0.11645833333333329,-0.04518518518518514,9.778500000000001],[0.12041666666666657,-0.016111111111111194,9.794800000000748],[0.12354166666666658,-0.04814814814814815,9.811800000000758],[0.121875,-0.0690740740740741,9.828099999999637],[0.14197916666666663,-0.11074074074074076,9.844699999999264],[0.1883333333333333,-0.13111111111111112,9.861400000000373],[0.1931250000000001,-0.125,9.878500000000003],[0.23135416666666658,-0.11537037037037039,9.894699999999261],[0.23135416666666658,-0.11537037037037039,9.911500000000004],[0.24249999999999997,-0.10351851851851848,9.928099999999631],[0.24249999999999997,-0.10351851851851848,9.944699999999258],[0.2787499999999999,-0.10111111111111115,9.961500000000001],[0.25791666666666657,-0.11537037037037039,9.978099999999628],[0.2991666666666667,-0.0962962962962963,9.994699999999256],[0.2947916666666667,-0.15777777777777777,10.013400000000374],[0.346875,-0.18037037037037032,10.028000000000006],[0.3876041666666666,-0.20203703703703707,10.044699999999267],[0.38250000000000006,-0.2566666666666667,10.061400000000376],[0.38875000000000004,-0.3177777777777778,10.078500000000005],[0.37552083333333336,-0.3653703703703704,10.094699999999264],[0.38260416666666663,-0.3955555555555556,10.112800000000746],[0.3714583333333332,-0.44666666666666666,10.128],[0.3706249999999999,-0.4498148148148148,10.144900000000376],[0.3706249999999999,-0.4498148148148148,10.161500000000004],[0.3622916666666666,-0.49833333333333335,10.178099999999631],[0.3622916666666666,-0.49833333333333335,10.194800000000754],[0.37479166666666663,-0.48814814814814816,10.211400000000381],[0.37479166666666663,-0.48814814814814816,10.228000000000009],[0.3538541666666667,-0.48648148148148146,10.244699999999256],[0.3538541666666667,-0.48648148148148146,10.261400000000378],[0.33177083333333335,-0.4955555555555556,10.278000000000006],[0.33177083333333335,-0.4955555555555556,10.294800000000748],[0.32708333333333334,-0.495,10.31150000000001],[0.32708333333333334,-0.495,10.328099999999637],[0.3618750000000001,-0.47000000000000003,10.344800000000745],[0.3618750000000001,-0.47000000000000003,10.361300000000753],[0.36822916666666666,-0.4625925925925926,10.378099999999634],[0.36822916666666666,-0.4625925925925926,10.394699999999261],[0.36697916666666663,-0.45388888888888895,10.411500000000004],[0.3615624999999999,-0.42185185185185187,10.43140000000038],[0.4105208333333332,-0.40851851851851856,10.44850000000001],[0.4105208333333332,-0.40851851851851856,10.461500000000001],[0.4122916666666666,-0.3888888888888889,10.479900000000384],[0.4122916666666666,-0.3888888888888889,10.495900000000375],[0.4102083333333333,-0.3933333333333333,10.511500000000012],[0.4102083333333333,-0.3933333333333333,10.52809999999964],[0.40302083333333344,-0.4020370370370371,10.544800000000748],[0.4037499999999999,-0.3344444444444445,10.564000000000007],[0.4037499999999999,-0.3344444444444445,10.578199999999256],[0.37489583333333343,-0.31870370370370377,10.594800000000745],[0.3625,-0.2735185185185185,10.611400000000373],[0.32625000000000004,-0.3037037037037037,10.628099999999634],[0.26291666666666674,-0.34685185185185186,10.644699999999261],[0.21593749999999995,-0.3907407407407407,10.661500000000004],[0.12052083333333338,-0.41500000000000004,10.681900000000383],[0.021354166666666667,-0.44000000000000006,10.695699999999263],[-0.06645833333333329,-0.41740740740740734,10.711400000000381],[-0.16333333333333327,-0.4035185185185185,10.728099999999628],[-0.2467708333333333,-0.45259259259259255,10.746099999999629]]","[0.000199999999253464,0.04099999999999682,0.04490000000037497,0.061699999999255795,0.07819999999925642,0.09490000000037213,0.11159999999962622,0.12819999999925358,0.1449000000003693,0.16159999999962338,0.17819999999925784,0.19490000000037355,0.21169999999925437,0.22830000000074335,0.24499999999999744,0.2615999999996248,0.27819999999925216,0.2950000000000017,0.3139000000003733,0.3284000000003715,0.34490000000037213,0.3615999999996262,0.3781999999992536,0.394999999999996,0.4115999999996234,0.42819999999925784,0.44490000000037355,0.4615000000000009,0.478199999999255,0.4949000000003707,0.5135999999996272,0.5314000000003745,0.5465999999996285,0.5615000000000023,0.5783000000007448,0.5949000000003721,0.6139000000003705,0.6304999999999978,0.646800000000745,0.6615999999996234,0.6781999999992578,0.6949000000003736,0.7128000000007475,0.7283000000007434,0.7451999999992509,0.7615999999996248,0.7781999999992522,0.794900000000375,0.8134999999999977,0.8281999999992564,0.8449000000003721,0.8615999999996262,0.8781999999992536,0.8948000000007426,0.9116999999992572,0.9283000000007462,0.9450000000000003,0.9653000000007452,0.978199999999255,0.9949000000003707,1.0115999999996248,1.0281999999992522,1.0448000000007411,1.061599999999629,1.0781999999992564,1.0949999999999989,1.1115999999996262,1.1281999999992536,1.1449000000003693,1.1614999999999966,1.1781999999992578,1.1950000000000003,1.2115999999996276,1.228199999999255,1.2449000000003707,1.2616999999992515,1.2781999999992522,1.294900000000375,1.3115000000000023,1.3283000000007448,1.3449000000003721,1.3615999999996262,1.3781999999992536,1.3949000000003693,1.4114999999999966,1.4281999999992578,1.4449000000003736,1.461500000000001,1.4783000000007434,1.4949000000003707,1.514000000000003,1.530300000000743,1.5453000000007435,1.561599999999629,1.5783000000007448,1.5949000000003721,1.6115999999996262,1.6285000000000025,1.65109999999963,1.6661999999992574,1.6811999999992508,1.6948000000007468,1.7115999999996276,1.7301999999992574,1.7450999999996242,1.761800000000747,1.7814000000003745,1.7950000000000017,1.8118000000007441,1.8303000000007472,1.8449999999999989,1.8618000000007413,1.878300000000742,1.8975000000000009,1.9145999999996235,1.9284999999999997,1.9495000000000005,1.9633000000007428,1.9783000000007434,1.9949999999999974,2.014900000000374,2.028500000000001,2.0450000000000017,2.063699999999251,2.0790999999996274,2.0950999999996256,2.111699999999253,2.130199999999256,2.14509999999963,2.161699999999257,2.1815999999996265,2.195900000000371,2.2116999999992544,2.22840000000037,2.248199999999251,2.2631999999992516,2.2783000000007476,2.296999999999997,2.3141999999992535,2.3284000000003715,2.347699999999257,2.361699999999253,2.3784000000003687,2.3969000000003717,2.411699999999257,2.4284999999999997,2.4489000000003713,2.4643000000007476,2.4783000000007434,2.4955999999996266,2.5146999999992516,2.5286999999992545,2.5459000000003726,2.564699999999256,2.5783000000007448,2.594999999999999,2.611699999999253,2.6281999999992536,2.6448000000007426,2.663800000000741,2.679000000000002,2.6964000000003736,2.7155999999996254,2.7300999999996236,2.745099999999624,2.7616999999992515,2.7838000000007455,2.797599999999626,2.8139000000003733,2.8281999999992564,2.847099999999628,2.861599999999626,2.8784000000003687,2.894999999999996,2.9158000000007434,2.9306999999992556,2.949099999999625,2.961999999999996,2.998400000000373,3.0170999999996297,3.023400000000372,3.052199999999253,3.0583000000007416,3.083500000000001,3.0899000000003696,3.1190999999996265,3.1263000000007466,3.151699999999252,3.158099999999628,3.1831999999992533,3.1894000000003686,3.2153000000007452,3.221800000000748,3.2485999999996267,3.2561999999992537,3.2819999999999965,3.2893000000007433,3.3156999999992536,3.322499999999998,3.34890000000037,3.3560000000000016,3.382300000000747,3.388699999999254,3.418400000000375,3.4246999999992553,3.450000000000003,3.464800000000743,3.483599999999626,3.4900999999996287,3.5186999999992565,3.5269000000003743,3.548800000000746,3.5556999999992556,3.561699999999256,3.580699999999254,3.6139000000003705,3.6199999999999974,3.645599999999625,3.65259999999963,3.680599999999629,3.6879000000003685,3.7140999999996254,3.720599999999628,3.7474000000003684,3.753900000000371,3.780300000000743,3.786300000000743,3.812199999999251,3.820099999999627,3.8471999999992548,3.854400000000375,3.8805999999996246,3.887099999999627,3.912300000000748,3.919300000000746,3.9455999999996294,3.9530999999996297,3.9804999999999993,3.986900000000375,4.012300000000742,4.019400000000374,4.045599999999624,4.0529000000003705,4.080500000000001,4.087599999999625,4.114099999999624,4.1205,4.148300000000745,4.155499999999996,4.180400000000375,4.186699999999256,4.212199999999257,4.219199999999255,4.245599999999627,4.252699999999251,4.278800000000743,4.286099999999628,4.312199999999251,4.319400000000371,4.345500000000001,4.352900000000375,4.378900000000371,4.3860999999996295,4.412300000000748,4.419300000000746,4.4470999999996295,4.453900000000374,4.480499999999999,4.488599999999629,4.51409999999963,4.520599999999625,4.548699999999258,4.556699999999253,4.580400000000374,4.586800000000743,4.612099999999629,4.620800000000742,4.645499999999998,4.652900000000372,4.678900000000375,4.686300000000742,4.712300000000745,4.731099999999628,4.744800000000744,4.761599999999625,4.778999999999996,4.794800000000741,4.811500000000002,4.828199999999256,4.844800000000745,4.861599999999626,4.878599999999629,4.894900000000369,4.913599999999626,4.928199999999258,4.944800000000747,4.962199999999257,4.978199999999255,4.994800000000744,5.011800000000747,5.028199999999252,5.046800000000744,5.0614000000003685,5.079000000000001,5.095199999999252,5.115300000000744,5.131500000000003,5.147800000000743,5.161999999999999,5.178199999999258,5.194800000000747,5.2134000000003695,5.228199999999255,5.247199999999253,5.261599999999625,5.278099999999625,5.297499999999999,5.315400000000373,5.330099999999625,5.345300000000748,5.366800000000744,5.383000000000003,5.394800000000743,5.411499999999997,5.428099999999624,5.4491999999992515,5.461500000000001,5.478199999999255,5.495199999999251,5.511499999999998,5.528199999999252,5.545400000000377,5.564699999999256,5.578199999999249,5.594800000000738,5.611599999999633,5.628199999999261,5.64480000000075,5.661499999999997,5.678099999999624,5.694800000000747,5.711499999999994,5.731300000000751,5.74