inst1_resp.keys,inst1_resp.rt,calibrationMouse.x,calibrationMouse.y,calibrationMouse.leftButton,calibrationMouse.midButton,calibrationMouse.rightButton,calibrationClick.x,calibrationClick.y,calibrationClick.leftButton,calibrationClick.midButton,calibrationClick.rightButton,trialsc.thisRepN,trialsc.thisTrialN,trialsc.thisN,trialsc.thisIndex,trialsc.ran,calibration_x,calibration_y,participant,session,date,expName,psychopyVersion,OS,frameRate,calibrationClick.clicked_name,ScreenRes_pixels,Camera_pixels,mouse_2.x,mouse_2.y,mouse_2.leftButton,mouse_2.midButton,mouse_2.rightButton,mouse_2.time,mouse_2.clicked_name,mouse.x,mouse.y,mouse.leftButton,mouse.midButton,mouse.rightButton,mouse.time,mouse.clicked_name,Choice,Trial,TrialDuration,MOUSE_GAZE,ET_GAZE,ET_GAZE_x_T,time,unixTime,ET_GAZE_NF,Loc_Option1_label,Loc_Option2_label,Loc_Cost_label,Loc_Qual_label,Loc_Option1_cost,Loc_Option2_cost,Loc_Option1_quality,Loc_Option2_quality,trials.thisRepN,trials.thisTrialN,trials.thisN,trials.thisIndex,trials.ran,Block,Device,cost1,qual1,cost2,qual2
space,5.5581,0.001041667,0.218518519,1,0,0,-0.341666667,0.677777778,1,0,0,0,0,0,8,1,-0.33,0.67,05,001,2024-12-01_15h41.11.657,Attention_exp_legacy,2023.1.0,Win32,59.88023952,,,,,,,,,,,,,,,,,,,,,,,,,,,,,,,,,,,,,,,,,,,,,
,,,,,,,0.321875,0.692592593,1,0,0,0,1,1,18,1,0.33,0.67,05,001,2024-12-01_15h41.11.657,Attention_exp_legacy,2023.1.0,Win32,59.88023952,,,,,,,,,,,,,,,,,,,,,,,,,,,,,,,,,,,,,,,,,,,,,
,,,,,,,0.001041667,-0.003703704,1,0,0,0,2,2,11,1,0,0,05,001,2024-12-01_15h41.11.657,Attention_exp_legacy,2023.1.0,Win32,59.88023952,calibration_square,,,,,,,,,,,,,,,,,,,,,,,,,,,,,,,,,,,,,,,,,,,,
,,,,,,,-0.670833333,0.001851852,1,0,0,0,3,3,2,1,-0.67,0,05,001,2024-12-01_15h41.11.657,Attention_exp_legacy,2023.1.0,Win32,59.88023952,calibration_square,,,,,,,,,,,,,,,,,,,,,,,,,,,,,,,,,,,,,,,,,,,,
,,,,,,,-0.336458333,0.005555556,1,0,0,0,4,4,6,1,-0.33,0,05,001,2024-12-01_15h41.11.657,Attention_exp_legacy,2023.1.0,Win32,59.88023952,calibration_square,,,,,,,,,,,,,,,,,,,,,,,,,,,,,,,,,,,,,,,,,,,,
,,,,,,,-0.005208333,-0.322222222,1,0,0,0,5,5,10,1,0,-0.33,05,001,2024-12-01_15h41.11.657,Attention_exp_legacy,2023.1.0,Win32,59.88023952,calibration_square,,,,,,,,,,,,,,,,,,,,,,,,,,,,,,,,,,,,,,,,,,,,
,,,,,,,0.330208333,0.338888889,1,0,0,0,6,6,17,1,0.33,0.33,05,001,2024-12-01_15h41.11.657,Attention_exp_legacy,2023.1.0,Win32,59.88023952,calibration_square,,,,,,,,,,,,,,,,,,,,,,,,,,,,,,,,,,,,,,,,,,,,
,,,,,,,-0.325,-0.688888889,1,0,0,0,7,7,4,1,-0.33,-0.67,05,001,2024-12-01_15h41.11.657,Attention_exp_legacy,2023.1.0,Win32,59.88023952,,,,,,,,,,,,,,,,,,,,,,,,,,,,,,,,,,,,,,,,,,,,,
,,,,,,,-0.004166667,0.696296296,1,0,0,0,8,8,13,1,0,0.67,05,001,2024-12-01_15h41.11.657,Attention_exp_legacy,2023.1.0,Win32,59.88023952,,,,,,,,,,,,,,,,,,,,,,,,,,,,,,,,,,,,,,,,,,,,,
,,,,,,,0.317708333,-0.02037037,1,0,0,0,9,9,16,1,0.33,0,05,001,2024-12-01_15h41.11.657,Attention_exp_legacy,2023.1.0,Win32,59.88023952,,,,,,,,,,,,,,,,,,,,,,,,,,,,,,,,,,,,,,,,,,,,,
,,,,,,,0.328125,-0.346296296,1,0,0,0,10,10,15,1,0.33,-0.33,05,001,2024-12-01_15h41.11.657,Attention_exp_legacy,2023.1.0,Win32,59.88023952,,,,,,,,,,,,,,,,,,,,,,,,,,,,,,,,,,,,,,,,,,,,,
,,,,,,,0.682291667,-0.674074074,1,0,0,0,11,11,20,1,0.67,-0.67,05,001,2024-12-01_15h41.11.657,Attention_exp_legacy,2023.1.0,Win32,59.88023952,,,,,,,,,,,,,,,,,,,,,,,,,,,,,,,,,,,,,,,,,,,,,
,,,,,,,-0.004166667,-0.694444444,1,0,0,0,12,12,9,1,0,-0.67,05,001,2024-12-01_15h41.11.657,Attention_exp_legacy,2023.1.0,Win32,59.88023952,,,,,,,,,,,,,,,,,,,,,,,,,,,,,,,,,,,,,,,,,,,,,
,,,,,,,-0.664583333,-0.32962963,1,0,0,0,13,13,1,1,-0.67,-0.33,05,001,2024-12-01_15h41.11.657,Attention_exp_legacy,2023.1.0,Win32,59.88023952,calibration_square,,,,,,,,,,,,,,,,,,,,,,,,,,,,,,,,,,,,,,,,,,,,
,,,,,,,0.664583333,0.681481481,1,0,0,0,14,14,19,1,0.67,0.67,05,001,2024-12-01_15h41.11.657,Attention_exp_legacy,2023.1.0,Win32,59.88023952,,,,,,,,,,,,,,,,,,,,,,,,,,,,,,,,,,,,,,,,,,,,,
,,,,,,,-0.00625,0.346296296,1,0,0,0,15,15,12,1,0,0.33,05,001,2024-12-01_15h41.11.657,Attention_exp_legacy,2023.1.0,Win32,59.88023952,,,,,,,,,,,,,,,,,,,,,,,,,,,,,,,,,,,,,,,,,,,,,
,,,,,,,-0.675,0.331481481,1,0,0,0,16,16,3,1,-0.67,0.33,05,001,2024-12-01_15h41.11.657,Attention_exp_legacy,2023.1.0,Win32,59.88023952,calibration_square,,,,,,,,,,,,,,,,,,,,,,,,,,,,,,,,,,,,,,,,,,,,
,,,,,,,-0.682291667,-0.681481481,1,0,0,0,17,17,0,1,-0.67,-0.67,05,001,2024-12-01_15h41.11.657,Attention_exp_legacy,2023.1.0,Win32,59.88023952,,,,,,,,,,,,,,,,,,,,,,,,,,,,,,,,,,,,,,,,,,,,,
,,,,,,,-0.341666667,0.344444444,1,0,0,0,18,18,7,1,-0.33,0.33,05,001,2024-12-01_15h41.11.657,Attention_exp_legacy,2023.1.0,Win32,59.88023952,,,,,,,,,,,,,,,,,,,,,,,,,,,,,,,,,,,,,,,,,,,,,
,,,,,,,-0.330208333,-0.327777778,1,0,0,0,19,19,5,1,-0.33,-0.33,05,001,2024-12-01_15h41.11.657,Attention_exp_legacy,2023.1.0,Win32,59.88023952,calibration_square,,,,,,,,,,,,,,,,,,,,,,,,,,,,,,,,,,,,,,,,,,,,
,,,,,,,0.33125,-0.666666667,1,0,0,0,20,20,14,1,0.33,-0.67,05,001,2024-12-01_15h41.11.657,Attention_exp_legacy,2023.1.0,Win32,59.88023952,calibration_square,,,,,,,,,,,,,,,,,,,,,,,,,,,,,,,,,,,,,,,,,,,,
,,,,,,,,,,,,,,,,,,,05,001,2024-12-01_15h41.11.657,Attention_exp_legacy,2023.1.0,Win32,59.88023952,,"[1920,1080]","[640,480]",[-0.0020833333333333333],[-0.5037037037037037],[1],[0],[0],[9.498200000047689],"[""StartButton""]",[0.010416666666666666],[0.17037037037037037],[1],[0],[0],[3.704899999976149],"[""Option1_label""]",Option1_label,1,4.7148,"[[0.041666666666666664,0.4759259259259259],[0.041666666666666664,0.4759259259259259],[0.041666666666666664,0.4759259259259259],[0.041666666666666664,0.4759259259259259],[0.041666666666666664,0.4759259259259259],[0.041666666666666664,0.4759259259259259],[0.041666666666666664,0.4759259259259259],[0.041666666666666664,0.4759259259259259],[0.041666666666666664,0.4759259259259259],[0.041666666666666664,0.4759259259259259],[0.041666666666666664,0.4759259259259259],[0.041666666666666664,0.4759259259259259],[0.041666666666666664,0.4759259259259259],[0.041666666666666664,0.4759259259259259],[0.041666666666666664,0.4759259259259259],[0.041666666666666664,0.4759259259259259],[0.041666666666666664,0.4759259259259259],[0.041666666666666664,0.4759259259259259],[0.041666666666666664,0.4759259259259259],[0.041666666666666664,0.4759259259259259],[0.041666666666666664,0.4759259259259259],[0.041666666666666664,0.4759259259259259],[0.041666666666666664,0.4759259259259259],[0.041666666666666664,0.4759259259259259],[0.041666666666666664,0.4759259259259259],[0.041666666666666664,0.4759259259259259],[0.041666666666666664,0.4759259259259259],[0.041666666666666664,0.4759259259259259],[0.041666666666666664,0.4759259259259259],[0.041666666666666664,0.4759259259259259],[0.041666666666666664,0.4759259259259259],[0.041666666666666664,0.4759259259259259],[0.041666666666666664,0.4759259259259259],[0.041666666666666664,0.4759259259259259],[0.041666666666666664,0.4759259259259259],[0.041666666666666664,0.4759259259259259],[0.041666666666666664,0.4759259259259259],[0.041666666666666664,0.4759259259259259],[0.041666666666666664,0.4759259259259259],[0.041666666666666664,0.4759259259259259],[0.041666666666666664,0.4759259259259259],[0.041666666666666664,0.4759259259259259],[0.041666666666666664,0.4759259259259259],[0.041666666666666664,0.4759259259259259],[0.041666666666666664,0.4759259259259259],[0.041666666666666664,0.4759259259259259],[0.041666666666666664,0.4759259259259259],[0.041666666666666664,0.4759259259259259],[0.041666666666666664,0.4759259259259259],[0.041666666666666664,0.4759259259259259],[0.041666666666666664,0.4759259259259259],[0.041666666666666664,0.4759259259259259],[0.042708333333333334,0.4537037037037037],[0.042708333333333334,0.4444444444444444],[0.042708333333333334,0.40925925925925927],[0.042708333333333334,0.3962962962962963],[0.042708333333333334,0.3611111111111111],[0.042708333333333334,0.35],[0.042708333333333334,0.31851851851851853],[0.042708333333333334,0.30925925925925923],[0.042708333333333334,0.2851851851851852],[0.042708333333333334,0.2759259259259259],[0.041666666666666664,0.2537037037037037],[0.041666666666666664,0.2462962962962963],[0.03854166666666667,0.22037037037037038],[0.03854166666666667,0.21296296296296297],[0.034375,0.1925925925925926],[0.03333333333333333,0.18518518518518517],[0.03229166666666667,0.1685185185185185],[0.03125,0.16111111111111112],[0.027083333333333334,0.14629629629629629],[0.026041666666666668,0.14074074074074075],[0.020833333333333332,0.1259259259259259],[0.019791666666666666,0.12222222222222222],[0.013541666666666667,0.10740740740740741],[0.0125,0.1037037037037037],[0.008333333333333333,0.09259259259259259],[0.00625,0.08888888888888889],[0.003125,0.08333333333333333],[0.003125,0.08148148148148149],[0,0.07777777777777778],[-0.003125,0.07407407407407407],[-0.004166666666666667,0.07037037037037037],[-0.005208333333333333,0.06851851851851852],[-0.009375,0.06666666666666667],[-0.009375,0.06481481481481481],[-0.013541666666666667,0.06296296296296296],[-0.013541666666666667,0.06296296296296296],[-0.023958333333333335,0.06111111111111111],[-0.026041666666666668,0.06111111111111111],[-0.03229166666666667,0.05925925925925926],[-0.035416666666666666,0.05925925925925926],[-0.040625,0.05555555555555555],[-0.041666666666666664,0.05555555555555555],[-0.04375,0.053703703703703705],[-0.04479166666666667,0.053703703703703705],[-0.04583333333333333,0.05185185185185185],[-0.04583333333333333,0.05185185185185185],[-0.04583333333333333,0.05],[-0.04583333333333333,0.05],[-0.04583333333333333,0.044444444444444446],[-0.04583333333333333,0.044444444444444446],[-0.04583333333333333,0.04259259259259259],[-0.04583333333333333,0.04259259259259259],[-0.04583333333333333,0.04259259259259259],[-0.04583333333333333,0.04259259259259259],[-0.04583333333333333,0.03888888888888889],[-0.04583333333333333,0.03888888888888889],[-0.04479166666666667,0.037037037037037035],[-0.04375,0.03333333333333333],[-0.03958333333333333,0.03148148148148148],[-0.036458333333333336,0.02962962962962963],[-0.03125,0.027777777777777776],[-0.025,0.027777777777777776],[-0.014583333333333334,0.027777777777777776],[-0.0020833333333333333,0.027777777777777776],[0.0125,0.03148148148148148],[0.029166666666666667,0.03518518518518519],[0.03958333333333333,0.03888888888888889],[0.05,0.040740740740740744],[0.06145833333333333,0.040740740740740744],[0.07291666666666667,0.04259259259259259],[0.08854166666666667,0.044444444444444446],[0.10833333333333334,0.05],[0.125,0.05555555555555555],[0.14166666666666666,0.05740740740740741],[0.14895833333333333,0.05740740740740741],[0.15625,0.05740740740740741],[0.165625,0.05740740740740741],[0.171875,0.05740740740740741],[0.178125,0.05740740740740741],[0.18125,0.05740740740740741],[0.18333333333333332,0.05740740740740741],[0.184375,0.05740740740740741],[0.18645833333333334,0.05740740740740741],[0.18958333333333333,0.05740740740740741],[0.190625,0.05740740740740741],[0.19270833333333334,0.05740740740740741],[0.19270833333333334,0.05740740740740741],[0.19375,0.05740740740740741],[0.19375,0.05740740740740741],[0.19375,0.05740740740740741],[0.19479166666666667,0.05740740740740741],[0.19479166666666667,0.05740740740740741],[0.19583333333333333,0.05740740740740741],[0.19583333333333333,0.05740740740740741],[0.19583333333333333,0.05740740740740741],[0.19583333333333333,0.05740740740740741],[0.19583333333333333,0.05740740740740741],[0.19583333333333333,0.05740740740740741],[0.19583333333333333,0.05740740740740741],[0.19583333333333333,0.05740740740740741],[0.19583333333333333,0.05740740740740741],[0.19583333333333333,0.05740740740740741],[0.19583333333333333,0.05740740740740741],[0.19583333333333333,0.05740740740740741],[0.19583333333333333,0.05740740740740741],[0.19583333333333333,0.05740740740740741],[0.19583333333333333,0.05740740740740741],[0.19583333333333333,0.05740740740740741],[0.19583333333333333,0.05740740740740741],[0.19583333333333333,0.05740740740740741],[0.19583333333333333,0.05740740740740741],[0.196875,0.05740740740740741],[0.196875,0.05925925925925926],[0.196875,0.06111111111111111],[0.196875,0.06666666666666667],[0.196875,0.07037037037037037],[0.196875,0.07407407407407407],[0.196875,0.07592592592592592],[0.196875,0.07592592592592592],[0.196875,0.07962962962962963],[0.196875,0.08148148148148149],[0.19583333333333333,0.08333333333333333],[0.19583333333333333,0.08333333333333333],[0.19583333333333333,0.08703703703703704],[0.19583333333333333,0.08703703703703704],[0.19479166666666667,0.08888888888888889],[0.19479166666666667,0.08888888888888889],[0.19479166666666667,0.08888888888888889],[0.19479166666666667,0.08888888888888889],[0.19479166666666667,0.08888888888888889],[0.19375,0.09074074074074075],[0.19270833333333334,0.09259259259259259],[0.19270833333333334,0.09259259259259259],[0.19270833333333334,0.0962962962962963],[0.19166666666666668,0.09814814814814815],[0.190625,0.10185185185185185],[0.18958333333333333,0.10555555555555556],[0.18541666666666667,0.11296296296296296],[0.18333333333333332,0.12037037037037036],[0.17708333333333334,0.12962962962962962],[0.16666666666666666,0.1388888888888889],[0.15520833333333334,0.14629629629629629],[0.14166666666666666,0.1537037037037037],[0.12604166666666666,0.16111111111111112],[0.10520833333333333,0.16666666666666666],[0.09166666666666666,0.17037037037037037],[0.07708333333333334,0.17037037037037037],[0.065625,0.17037037037037037],[0.057291666666666664,0.17037037037037037],[0.05,0.17037037037037037],[0.04583333333333333,0.17037037037037037],[0.04375,0.17037037037037037],[0.040625,0.17037037037037037],[0.03333333333333333,0.17037037037037037],[0.029166666666666667,0.17037037037037037],[0.028125,0.17037037037037037],[0.022916666666666665,0.17037037037037037],[0.016666666666666666,0.17037037037037037],[0.014583333333333334,0.17037037037037037],[0.0125,0.17037037037037037],[0.011458333333333333,0.17037037037037037],[0.010416666666666666,0.17037037037037037],[0.010416666666666666,0.17037037037037037],[0.010416666666666666,0.17037037037037037],[0.010416666666666666,0.17037037037037037],[0.010416666666666666,0.17037037037037037],[0.010416666666666666,0.17037037037037037],[0.010416666666666666,0.17037037037037037],[0.010416666666666666,0.17037037037037037],[0.010416666666666666,0.17037037037037037],[0.010416666666666666,0.17037037037037037],[0.010416666666666666,0.17037037037037037],[0.010416666666666666,0.17037037037037037],[0.010416666666666666,0.17037037037037037],[0.010416666666666666,0.17037037037037037],[0.010416666666666666,0.17037037037037037],[0.010416666666666666,0.17037037037037037],[0.010416666666666666,0.17037037037037037],[0.010416666666666666,0.17037037037037037],[0.010416666666666666,0.17037037037037037],[0.010416666666666666,0.17037037037037037],[0.010416666666666666,0.17037037037037037],[0.008333333333333333,0.17222222222222222],[0.007291666666666667,0.17592592592592593],[0.007291666666666667,0.17777777777777778],[0.007291666666666667,0.1814814814814815],[0.007291666666666667,0.1814814814814815],[0.007291666666666667,0.18333333333333332],[0.007291666666666667,0.18333333333333332],[0.007291666666666667,0.18333333333333332],[0.007291666666666667,0.18703703703703703],[0.007291666666666667,0.18703703703703703],[0.007291666666666667,0.18703703703703703],[0.007291666666666667,0.18703703703703703],[0.007291666666666667,0.18888888888888888],[0.007291666666666667,0.18888888888888888],[0.007291666666666667,0.18888888888888888],[0.007291666666666667,0.18888888888888888],[0.007291666666666667,0.18888888888888888],[0.007291666666666667,0.18888888888888888],[0.007291666666666667,0.18888888888888888],[0.007291666666666667,0.18888888888888888],[0.007291666666666667,0.18888888888888888],[0.007291666666666667,0.18888888888888888],[0.007291666666666667,0.18888888888888888],[0.007291666666666667,0.18888888888888888],[0.007291666666666667,0.18888888888888888],[0.007291666666666667,0.18888888888888888],[0.007291666666666667,0.18888888888888888],[0.007291666666666667,0.18888888888888888],[0.007291666666666667,0.18888888888888888],[0.007291666666666667,0.18703703703703703],[0.007291666666666667,0.18333333333333332],[0.007291666666666667,0.1814814814814815],[0.007291666666666667,0.17962962962962964],[0.007291666666666667,0.17777777777777778],[0.007291666666666667,0.17777777777777778],[0.007291666666666667,0.17592592592592593],[0.007291666666666667,0.17407407407407408],[0.007291666666666667,0.17222222222222222],[0.007291666666666667,0.17222222222222222],[0.007291666666666667,0.17222222222222222],[0.007291666666666667,0.17037037037037037],[0.007291666666666667,0.17037037037037037],[0.007291666666666667,0.1685185185185185],[0.007291666666666667,0.1685185185185185],[0.00625,0.1685185185185185],[0.00625,0.1648148148148148],[0.004166666666666667,0.16111111111111112]]","[[-0.3233333333333333,-0.8222222222222222],[-0.3233333333333333,-0.8222222222222222],[-0.31604166666666667,-0.8442592592592593],[-0.31604166666666667,-0.8442592592592593],[-0.31708333333333333,-0.8400000000000001],[-0.31708333333333333,-0.8400000000000001],[-0.3164583333333333,-0.8248148148148148],[-0.3164583333333333,-0.8248148148148148],[-0.32125,-0.8246296296296296],[-0.32125,-0.8246296296296296],[-0.31979166666666664,-0.8088888888888889],[-0.31979166666666664,-0.8088888888888889],[-0.31708333333333333,-0.8533333333333334],[-0.31708333333333333,-0.8533333333333334],[-0.275,-0.8653703703703703],[-0.275,-0.8653703703703703],[-0.2647916666666667,-0.8748148148148148],[-0.2647916666666667,-0.8748148148148148],[-0.2390625,-0.8972222222222223],[-0.2390625,-0.8972222222222223],[-0.22166666666666662,-0.9101851851851852],[-0.22166666666666662,-0.9101851851851852],[-0.19812500000000005,-0.9066666666666667],[-0.19812500000000005,-0.9066666666666667],[-0.19937499999999997,-0.9105555555555556],[-0.19937499999999997,-0.9105555555555556],[-0.18718750000000003,-0.8883333333333333],[-0.18718750000000003,-0.8883333333333333],[-0.19802083333333337,-0.8801851851851852],[-0.19802083333333337,-0.8801851851851852],[-0.19395833333333337,-0.9018518518518519],[-0.19395833333333337,-0.9018518518518519],[-0.18187500000000004,-0.8796296296296297],[-0.18187500000000004,-0.8796296296296297],[-0.20385416666666673,-0.8711111111111111],[-0.20385416666666673,-0.8711111111111111],[-0.1859375,-0.8585185185185186],[-0.1859375,-0.8585185185185186],[-0.20729166666666668,-0.8712962962962963],[-0.20729166666666668,-0.8712962962962963],[-0.215625,-0.8761111111111112],[-0.215625,-0.8761111111111112],[-0.215625,-0.8761111111111112],[-0.215625,-0.8761111111111112],[-0.22458333333333336,-0.879074074074074],[-0.22458333333333336,-0.879074074074074],[-0.21781250000000002,-0.8487037037037037],[-0.21781250000000002,-0.8487037037037037],[-0.2094791666666667,-0.8755555555555555],[-0.2094791666666667,-0.8755555555555555],[-0.1921875,-0.8731481481481481],[-0.1921875,-0.8731481481481481],[-0.178125,-0.8483333333333334],[-0.178125,-0.8483333333333334],[-0.16395833333333332,-0.8227777777777778],[-0.16395833333333332,-0.8227777777777778],[-0.1720833333333334,-0.8099999999999999],[-0.1720833333333334,-0.8099999999999999],[-0.1779166666666666,-0.7833333333333333],[-0.1779166666666666,-0.7833333333333333],[-0.153125,-0.6868518518518518],[-0.153125,-0.6868518518518518],[-0.12687499999999996,-0.6096296296296296],[-0.12687499999999996,-0.6096296296296296],[-0.10416666666666667,-0.5594444444444445],[-0.10416666666666667,-0.5594444444444445],[-0.0734375,-0.49740740740740746],[-0.0734375,-0.49740740740740746],[-0.058958333333333356,-0.4331481481481481],[-0.058958333333333356,-0.4331481481481481],[-0.025312499999999953,-0.41629629629629633],[-0.025312499999999953,-0.41629629629629633],[-0.002499999999999976,-0.42777777777777776],[-0.002499999999999976,-0.42777777777777776],[0.011458333333333333,-0.412962962962963],[0.011458333333333333,-0.412962962962963],[0.04677083333333331,-0.39592592592592596],[0.04677083333333331,-0.39592592592592596],[0.058437500000000024,-0.37111111111111106],[0.058437500000000024,-0.37111111111111106],[0.06375000000000004,-0.39000000000000007],[0.06375000000000004,-0.39000000000000007],[0.05239583333333329,-0.39944444444444444],[0.05239583333333329,-0.39944444444444444],[0.03802083333333333,-0.36814814814814817],[0.03802083333333333,-0.36814814814814817],[0.03291666666666669,-0.3701851851851851],[0.03291666666666669,-0.3701851851851851],[0.03687499999999998,-0.3668518518518519],[0.03687499999999998,-0.3668518518518519],[0.002812500000000047,-0.3068518518518518],[0.002812500000000047,-0.3068518518518518],[0.011458333333333333,-0.20722222222222217],[0.011458333333333333,-0.20722222222222217],[0.019166666666666644,-0.16074074074074077],[0.019166666666666644,-0.16074074074074077],[0.016562499999999977,-0.15611111111111114],[0.016562499999999977,-0.15611111111111114],[0.010625000000000048,-0.1331481481481481],[0.010625000000000048,-0.1331481481481481],[-0.01260416666666669,-0.11462962962962958],[-0.01260416666666669,-0.11462962962962958],[-0.016666666666666666,-0.09259259259259259],[-0.014895833333333285,-0.11185185185185181],[-0.03843749999999998,-0.13796296296296295],[-0.03843749999999998,-0.13796296296296295],[-0.05677083333333333,-0.13574074074074077],[-0.03239583333333336,-0.12611111111111115],[-0.025625000000000023,-0.12333333333333338],[-0.025625000000000023,-0.12333333333333338],[-0.03729166666666662,-0.1272222222222222],[-0.03791666666666664,-0.11185185185185181],[-0.03427083333333331,-0.147037037037037],[-0.03427083333333331,-0.147037037037037],[-0.009375,-0.1527777777777778],[0.030312500000000023,-0.127962962962963],[0.06437499999999995,-0.07981481481481485],[0.06437499999999995,-0.07981481481481485],[0.10343749999999995,-0.05185185185185185],[0.1146874999999999,-0.034074074074074034],[0.10197916666666676,-0.049629629629629544],[0.10197916666666676,-0.049629629629629544],[0.1243750000000001,-0.057777777777777754],[0.1460416666666667,-0.03370370370370379],[0.18135416666666657,-0.007962962962962878],[0.20187499999999994,0.0294444444444444],[0.228125,0.04351851851851852],[0.21302083333333333,0.03740740740740749],[0.2140625,0.03555555555555564],[0.22218749999999995,0.0514814814814814],[0.22218749999999995,0.0514814814814814],[0.22489583333333343,0.05314814814814823],[0.24802083333333325,0.05907407407407403],[0.24802083333333325,0.05907407407407403],[0.2283333333333334,0.04685185185185177],[0.19187500000000005,0.0020370370370370794],[0.16354166666666667,-0.0022222222222223064],[0.14249999999999996,-0.03037037037037033],[0.14249999999999996,-0.03037037037037033],[0.13312499999999997,-0.03796296296296296],[0.13322916666666676,-0.07000000000000002],[0.12062499999999995,-0.10629629629629625],[0.12062499999999995,-0.10629629629629625],[0.1134375000000001,-0.1205555555555556],[0.15635416666666657,-0.11388888888888889],[0.16875,-0.12185185185185188],[0.16875,-0.12185185185185188],[0.17999999999999997,-0.12759259259259256],[0.22531249999999994,-0.1],[0.24697916666666658,-0.11166666666666669],[0.27614583333333326,-0.1111111111111111],[0.27583333333333326,-0.11944444444444445],[0.28624999999999995,-0.10796296296296298],[0.3102083333333333,-0.09518518518518514],[0.3142708333333334,-0.11425925925925924],[0.2908333333333334,-0.12685185185185185],[0.2833333333333333,-0.1190740740740741],[0.27583333333333326,-0.11129629629629634],[0.27583333333333326,-0.11129629629629634],[0.2709374999999999,-0.11851851851851852],[0.2709374999999999,-0.11851851851851852],[0.26145833333333335,-0.10462962962962963],[0.26145833333333335,-0.10462962962962963],[0.25114583333333323,-0.09962962962962965],[0.25114583333333323,-0.09962962962962965],[0.2430208333333333,-0.07777777777777778],[0.2430208333333333,-0.07777777777777778],[0.23885416666666662,-0.05759259259259263],[0.2115624999999999,-0.040740740740740744],[0.2115624999999999,-0.040740740740740744],[0.19364583333333343,-0.01648148148148144],[0.18499999999999991,-0.006851851851851936],[0.1803124999999999,-0.007407407407407408],[0.1756249999999999,0.010925925925925884],[0.1756249999999999,0.010925925925925884],[0.17114583333333327,0.028703703703703703],[0.17114583333333327,0.028703703703703703],[0.17354166666666657,0.004259259259259175],[0.17677083333333338,-0.011296296296296339],[0.17677083333333338,-0.011296296296296339],[0.1618750000000001,-0.03777777777777774],[0.1466666666666666,-0.05907407407407403],[0.1466666666666666,-0.05907407407407403],[0.1553124999999999,-0.07000000000000002],[0.17260416666666673,-0.06962962962962967],[0.17072916666666677,-0.08629629629629634],[0.17072916666666677,-0.08629629629629634],[0.1703125,-0.08814814814814818],[0.175,-0.09851851851851849],[0.1820833333333333,-0.13203703703703706],[0.1820833333333333,-0.13203703703703706],[0.17645833333333344,-0.12037037037037036],[0.18895833333333342,-0.09851851851851849],[0.22531249999999994,-0.07555555555555557],[0.22531249999999994,-0.07555555555555557],[0.23510416666666673,-0.07703703703703708],[0.23562500000000006,-0.07925925925925928],[0.23093750000000005,-0.09851851851851849],[0.2353125000000001,-0.1037037037037037],[0.2353125000000001,-0.1037037037037037],[0.23083333333333325,-0.11888888888888886],[0.22770833333333323,-0.14240740740740737],[0.22468750000000004,-0.1331481481481481],[0.22468750000000004,-0.1331481481481481],[0.22979166666666656,-0.13499999999999995],[0.2037499999999999,-0.14981481481481476],[0.1759375000000001,-0.17222222222222222],[0.1759375000000001,-0.17222222222222222],[0.18072916666666666,-0.18074074074074079],[0.16791666666666671,-0.16833333333333328],[0.16791666666666671,-0.16833333333333328],[0.12979166666666658,-0.17388888888888884],[0.12979166666666658,-0.17388888888888884],[0.13770833333333338,-0.1712962962962963],[0.12572916666666673,-0.16148148148148145],[0.12572916666666673,-0.16148148148148145],[0.11510416666666666,-0.16500000000000004],[0.11062500000000004,-0.16111111111111112],[0.09406249999999995,-0.19703703703703698],[0.09406249999999995,-0.19703703703703698],[0.0703125,-0.22296296296296292],[0.08947916666666676,-0.23425925925925925],[0.09604166666666672,-0.24055555555555552],[0.09604166666666672,-0.24055555555555552],[0.09375,-0.2492592592592593],[0.1125,-0.24814814814814815],[0.07083333333333333,-0.2361111111111111],[0.07083333333333333,-0.2361111111111111],[0.08499999999999991,-0.2235185185185185],[0.08927083333333338,-0.19462962962962968],[0.0890625,-0.1757407407407407],[0.0890625,-0.1757407407407407],[0.07177083333333342,-0.11407407407407412],[0.11177083333333329,-0.08907407407407411],[0.10885416666666667,-0.0787037037037037],[0.10885416666666667,-0.0787037037037037],[0.08406250000000005,-0.0735185185185185],[0.09635416666666667,-0.07092592592592595],[0.11729166666666657,-0.04870370370370362],[0.12239583333333333,-0.07092592592592595],[0.12239583333333333,-0.07092592592592595],[0.125,-0.06648148148148143],[0.09791666666666667,-0.09870370370370372],[0.05604166666666662,-0.12333333333333338],[0.07291666666666667,-0.14685185185185187],[0.07291666666666667,-0.14685185185185187],[0.05593750000000005,-0.1427777777777778],[0.024270833333333287,-0.13425925925925927],[0.024270833333333287,-0.13425925925925927],[0.007187499999999976,-0.1368518518518518],[-0.03791666666666664,-0.1594444444444445],[-0.06645833333333329,-0.18888888888888888],[-0.06479166666666672,-0.19296296296296295],[-0.08843749999999997,-0.23981481481481481],[-0.0828125,-0.24129629629629631],[-0.05677083333333333,-0.2631481481481482],[-0.06145833333333333,-0.2844444444444445],[-0.08156249999999995,-0.3051851851851852],[-0.08864583333333335,-0.3118518518518518],[-0.08010416666666664,-0.3368518518518518],[-0.08010416666666664,-0.3368518518518518],[-0.06083333333333331,-0.35259259259259257],[-0.06833333333333336,-0.33777777777777773],[-0.09593750000000002,-0.34814814814814815],[-0.09593750000000002,-0.34814814814814815],[-0.09114583333333333,-0.322037037037037],[-0.0953125,-0.29907407407407405],[-0.08875000000000005,-0.27981481481481485],[-0.08875000000000005,-0.27981481481481485],[-0.08260416666666662,-0.2638888888888889],[-0.07572916666666671,-0.2607407407407408],[-0.04739583333333333,-0.26185185185185184],[-0.04739583333333333,-0.26185185185185184],[-0.022916666666666665,-0.2094444444444445],[-0.0014583333333333095,-0.1527777777777778],[0.022187499999999954,-0.14462962962962966],[0.06593749999999995,-0.11129629629629634],[0.03947916666666664,-0.11277777777777774],[0.03947916666666664,-0.11277777777777774],[0.04916666666666671,-0.12407407407407407],[0.04916666666666671,-0.12407407407407407]]","[[-0.3233333333333333,-0.8222222222222222,0.0001999999880837322],[-0.3233333333333333,-0.8222222222222222,0.04050000000000864],[-0.31604166666666667,-0.8442592592592593,0.06269999998808373],[-0.31604166666666667,-0.8442592592592593,0.08210000002384277],[-0.31708333333333333,-0.8400000000000001,0.09680000001192468],[-0.31708333333333333,-0.8400000000000001,0.10719999998808305],[-0.3164583333333333,-0.8248148148148148,0.12860000002383742],[-0.3164583333333333,-0.8248148148148148,0.13569999998807702],[-0.32125,-0.8246296296296296,0.15900000000000603],[-0.32125,-0.8246296296296296,0.16669999998808294],[-0.31979166666666664,-0.8088888888888889,0.19480000001192366],[-0.31979166666666664,-0.8088888888888889,0.20530000001191695],[-0.31708333333333333,-0.8533333333333334,0.2278000000119249],[-0.31708333333333333,-0.8533333333333334,0.2348999999761645],[-0.275,-0.8653703703703703,0.2591999999880841],[-0.275,-0.8653703703703703,0.267699999988082],[-0.2647916666666667,-0.8748148148148148,0.29230000001192025],[-0.2647916666666667,-0.8748148148148148,0.30030000001193],[-0.2390625,-0.8972222222222223,0.32560000002384015],[-0.2390625,-0.8972222222222223,0.3333999999761659],[-0.22166666666666662,-0.9101851851851852,0.3608000000119205],[-0.22166666666666662,-0.9101851851851852,0.36839999997616246],[-0.19812500000000005,-0.9066666666666667,0.3938000000119217],[-0.19812500000000005,-0.9066666666666667,0.402000000000001],[-0.19937499999999997,-0.9105555555555556,0.4268999999761576],[-0.19937499999999997,-0.9105555555555556,0.43439999997616496],[-0.18718750000000003,-0.8883333333333333,0.4591000000238381],[-0.18718750000000003,-0.8883333333333333,0.4668999999761638],[-0.19802083333333337,-0.8801851851851852,0.4923999999761577],[-0.19802083333333337,-0.8801851851851852,0.5],[-0.19395833333333337,-0.9018518518518519,0.5278000000119221],[-0.19395833333333337,-0.9018518518518519,0.5360000000000014],[-0.18187500000000004,-0.8796296296296297,0.5603000000119209],[-0.18187500000000004,-0.8796296296296297,0.5676000000238446],[-0.20385416666666673,-0.8711111111111111,0.5925000000000011],[-0.20385416666666673,-0.8711111111111111,0.6001000000238434],[-0.1859375,-0.8585185185185186,0.6256999999880861],[-0.1859375,-0.8585185185185186,0.6340000000000003],[-0.20729166666666668,-0.8712962962962963,0.6595000000000084],[-0.20729166666666668,-0.8712962962962963,0.6670000000000016],[-0.215625,-0.8761111111111112,0.6923999999761605],[-0.215625,-0.8761111111111112,0.7013000000119263],[-0.215625,-0.8761111111111112,0.7083999999761659],[-0.215625,-0.8761111111111112,0.7259999999999991],[-0.22458333333333336,-0.879074074074074,0.7590000000000003],[-0.22458333333333336,-0.879074074074074,0.7671999999880796],[-0.21781250000000002,-0.8487037037037037,0.7933999999761596],[-0.21781250000000002,-0.8487037037037037,0.8010000000000019],[-0.2094791666666667,-0.8755555555555555,0.8268999999761633],[-0.2094791666666667,-0.8755555555555555,0.8340000000000032],[-0.1921875,-0.8731481481481481,0.8605000000000018],[-0.1921875,-0.8731481481481481,0.8678000000119255],[-0.178125,-0.8483333333333334,0.8961000000238499],[-0.178125,-0.8483333333333334,0.9035000000000082],[-0.16395833333333332,-0.8227777777777778,0.927600000023844],[-0.16395833333333332,-0.8227777777777778,0.9353999999761555],[-0.1720833333333334,-0.8099999999999999,0.963100000023843],[-0.1720833333333334,-0.8099999999999999,0.9696000000238456],[-0.1779166666666666,-0.7833333333333333,0.9926000000238417],[-0.1779166666666666,-0.7833333333333333,1.0003999999761675],[-0.153125,-0.6868518518518518,1.0296000000238479],[-0.153125,-0.6868518518518518,1.0366000000238387],[-0.12687499999999996,-0.6096296296296296,1.0606000000238396],[-0.12687499999999996,-0.6096296296296296,1.0681999999880816],[-0.10416666666666667,-0.5594444444444445,1.0955000000000013],[-0.10416666666666667,-0.5594444444444445,1.1031999999880782],[-0.0734375,-0.49740740740740746,1.1274999999999977],[-0.0734375,-0.49740740740740746,1.13510000002384],[-0.058958333333333356,-0.4331481481481481,1.163499999999999],[-0.058958333333333356,-0.4331481481481481,1.1706999999880878],[-0.025312499999999953,-0.41629629629629633,1.193699999988084],[-0.025312499999999953,-0.41629629629629633,1.2016999999880795],[-0.002499999999999976,-0.42777777777777776,1.2289999999999992],[-0.002499999999999976,-0.42777777777777776,1.2358000000119205],[0.011458333333333333,-0.412962962962963,1.2611000000238448],[0.011458333333333333,-0.412962962962963,1.269199999988075],[0.04677083333333331,-0.39592592592592596,1.2958000000119227],[0.04677083333333331,-0.39592592592592596,1.3028999999761623],[0.058437500000000024,-0.37111111111111106,1.3271000000238473],[0.058437500000000024,-0.37111111111111106,1.3345000000000056],[0.06375000000000004,-0.39000000000000007,1.364300000011923],[0.06375000000000004,-0.39000000000000007,1.371300000011928],[0.05239583333333329,-0.39944444444444444,1.3938000000119217],[0.05239583333333329,-0.39944444444444444,1.4014999999999986],[0.03802083333333333,-0.36814814814814817,1.433000000000007],[0.03802083333333333,-0.36814814814814817,1.4405000000000001],[0.03291666666666669,-0.3701851851851851,1.461399999976166],[0.03291666666666669,-0.3701851851851851,1.4686000000238408],[0.03687499999999998,-0.3668518518518519,1.496899999976165],[0.03687499999999998,-0.3668518518518519,1.5041999999880744],[0.002812500000000047,-0.3068518518518518,1.5258000000119267],[0.002812500000000047,-0.3068518518518518,1.5336999999880874],[0.011458333333333333,-0.20722222222222217,1.5641999999880767],[0.011458333333333333,-0.20722222222222217,1.5721000000238377],[0.019166666666666644,-0.16074074074074077,1.5941000000238432],[0.019166666666666644,-0.16074074074074077,1.6021000000238388],[0.016562499999999977,-0.15611111111111114,1.6313999999761535],[0.016562499999999977,-0.15611111111111114,1.6389999999999958],[0.010625000000000048,-0.1331481481481481,1.660600000023848],[0.010625000000000048,-0.1331481481481481,1.6685000000000088],[-0.01260416666666669,-0.11462962962962958,1.6965000000000003],[-0.01260416666666669,-0.11462962962962958,1.7096000000238405],[-0.016666666666666666,-0.09259259259259259,1.7253000000119272],[-0.014895833333333285,-0.11185185185185181,1.7416000000238512],[-0.03843749999999998,-0.13796296296296295,1.758399999976163],[-0.03843749999999998,-0.13796296296296295,1.7750000000000057],[-0.05677083333333333,-0.13574074074074077,1.7938000000119274],[-0.03239583333333336,-0.12611111111111115,1.8083999999761602],[-0.025625000000000023,-0.12333333333333338,1.8251999999880866],[-0.025625000000000023,-0.12333333333333338,1.8438999999761592],[-0.03729166666666662,-0.1272222222222222,1.8588000000119251],[-0.03791666666666664,-0.11185185185185181,1.8751999999880837],[-0.03427083333333331,-0.147037037037037,1.8940000000000055],[-0.03427083333333331,-0.147037037037037,1.9085000000000036],[-0.009375,-0.1527777777777778,1.925199999988081],[0.030312500000000023,-0.127962962962963,1.9418000000119235],[0.06437499999999995,-0.07981481481481485,1.9613000000119172],[0.06437499999999995,-0.07981481481481485,1.9751000000238434],[0.10343749999999995,-0.05185185185185185,1.9918999999761553],[0.1146874999999999,-0.034074074074074034,2.008499999999998],[0.10197916666666676,-0.049629629629629544,2.0271999999880848],[0.10197916666666676,-0.049629629629629544,2.0418999999761667],[0.1243750000000001,-0.057777777777777754,2.058699999988079],[0.1460416666666667,-0.03370370370370379,2.0751999999880866],[0.18135416666666657,-0.007962962962962878,2.0946000000238456],[0.20187499999999994,0.0294444444444444,2.110300000011918],[0.228125,0.04351851851851852,2.126800000011926],[0.21302083333333333,0.03740740740740749,2.1451999999880798],[0.2140625,0.03555555555555564,2.161899999976157],[0.22218749999999995,0.0514814814814814,2.179199999988086],[0.22218749999999995,0.0514814814814814,2.1918000000119235],[0.22489583333333343,0.05314814814814823,2.2111999999880823],[0.24802083333333325,0.05907407407407403,2.2283000000119273],[0.24802083333333325,0.05907407407407403,2.2418000000119207],[0.2283333333333334,0.04685185185185177,2.2635000000000076],[0.19187500000000005,0.0020370370370370794,2.279399999976164],[0.16354166666666667,-0.0022222222222223064,2.295399999976155],[0.14249999999999996,-0.03037037037037033,2.3156000000238492],[0.14249999999999996,-0.03037037037037033,2.325000000000003],[0.13312499999999997,-0.03796296296296296,2.341899999976164],[0.13322916666666676,-0.07000000000000002,2.3586000000238414],[0.12062499999999995,-0.10629629629629625,2.379000000000005],[0.12062499999999995,-0.10629629629629625,2.395300000011929],[0.1134375000000001,-0.1205555555555556,2.40830000001192],[0.15635416666666657,-0.11388888888888889,2.4293999999761553],[0.16875,-0.12185185185185188,2.446800000011919],[0.16875,-0.12185185185185188,2.458399999976166],[0.17999999999999997,-0.12759259259259256,2.4750000000000085],[0.22531249999999994,-0.1,2.491699999988086],[0.24697916666666658,-0.11166666666666669,2.509300000011919],[0.27614583333333326,-0.1111111111111111,2.5273999999761543],[0.27583333333333326,-0.11944444444444445,2.5426999999880877],[0.28624999999999995,-0.10796296296296298,2.5598999999761674],[0.3102083333333333,-0.09518518518518514,2.5756999999880748],[0.3142708333333334,-0.11425925925925924,2.5928999999761544],[0.2908333333333334,-0.12685185185185185,2.6083999999761573],[0.2833333333333333,-0.1190740740740741,2.625],[0.27583333333333326,-0.11129629629629634,2.6418000000119264],[0.27583333333333326,-0.11129629629629634,2.6585000000000036],[0.2709374999999999,-0.11851851851851852,2.674999999999997],[0.2709374999999999,-0.11851851851851852,2.6916999999880744],[0.26145833333333335,-0.10462962962962963,2.708399999976166],[0.26145833333333335,-0.10462962962962963,2.7251000000238434],[0.25114583333333323,-0.09962962962962965,2.746899999976165],[0.25114583333333323,-0.09962962962962965,2.758600000023847],[0.2430208333333333,-0.07777777777777778,2.775199999988075],[0.2430208333333333,-0.07777777777777778,2.791800000011918],[0.23885416666666662,-0.05759259259259263,2.812600000023849],[0.2115624999999999,-0.040740740740740744,2.829600000023845],[0.2115624999999999,-0.040740740740740744,2.84169999998808],[0.19364583333333343,-0.01648148148148144,2.8583999999761573],[0.18499999999999991,-0.006851851851851936,2.878],[0.1803124999999999,-0.007407407407407408,2.8948000000119265],[0.1756249999999999,0.010925925925925884,2.912000000000006],[0.1756249999999999,0.010925925925925884,2.9251000000238463],[0.17114583333333327,0.028703703703703703,2.9458000000119284],[0.17114583333333327,0.028703703703703703,2.958399999976166],[0.17354166666666657,0.004259259259259175,2.975199999988078],[0.17677083333333338,-0.011296296296296339,2.9975000000000023],[0.17677083333333338,-0.011296296296296339,3.008399999976163],[0.1618750000000001,-0.03777777777777774,3.0250000000000057],[0.1466666666666666,-0.05907407407407403,3.0428000000119226],[0.1466666666666666,-0.05907407407407403,3.064000000000007],[0.1553124999999999,-0.07000000000000002,3.0751999999880866],[0.17260416666666673,-0.06962962962962967,3.0933999999761568],[0.17072916666666677,-0.08629629629629634,3.113899999976155],[0.17072916666666677,-0.08629629629629634,3.1253000000119187],[0.1703125,-0.08814814814814818,3.141899999976161],[0.175,-0.09851851851851849,3.159699999988078],[0.1820833333333333,-0.13203703703703706,3.18039999997616],[0.1820833333333333,-0.13203703703703706,3.1918000000119235],[0.17645833333333344,-0.12037037037037036,3.208500000000001],[0.18895833333333342,-0.09851851851851849,3.225199999988078],[0.22531249999999994,-0.07555555555555557,3.2451999999880883],[0.22531249999999994,-0.07555555555555557,3.258499999999998],[0.23510416666666673,-0.07703703703703708,3.2751000000238406],[0.23562500000000006,-0.07925925925925928,3.296199999988076],[0.23093750000000005,-0.09851851851851849,3.312399999976165],[0.2353125000000001,-0.1037037037037037,3.3306999999880844],[0.2353125000000001,-0.1037037037037037,3.3418000000119292],[0.23083333333333325,-0.11888888888888886,3.36280000001193],[0.22770833333333323,-0.14240740740740737,3.379600000023842],[0.22468750000000004,-0.1331481481481481,3.3976999999880775],[0.22468750000000004,-0.1331481481481481,3.4085000000000036],[0.22979166666666656,-0.13499999999999995,3.4295000000000044],[0.2037499999999999,-0.14981481481481476,3.4456999999880793],[0.1759375000000001,-0.17222222222222222,3.465199999988087],[0.1759375000000001,-0.17222222222222222,3.4751000000238434],[0.18072916666666666,-0.18074074074074079,3.495600000023842],[0.16791666666666671,-0.16833333333333328,3.5126000000238378],[0.16791666666666671,-0.16833333333333328,3.5251000000238406],[0.12979166666666658,-0.17388888888888884,3.545600000023839],[0.12979166666666658,-0.17388888888888884,3.5586000000238442],[0.13770833333333338,-0.1712962962962963,3.5751999999880866],[0.12572916666666673,-0.16148148148148145,3.592100000023848],[0.12572916666666673,-0.16148148148148145,3.6083000000119227],[0.11510416666666666,-0.16500000000000004,3.625],[0.11062500000000004,-0.16111111111111112,3.6418000000119264],[0.09406249999999995,-0.19703703703703698,3.6596000000238433],[0.09406249999999995,-0.19703703703703698,3.674999999999997],[0.0703125,-0.22296296296296292,3.6918000000119235],[0.08947916666666676,-0.23425925925925925,3.7116999999880846],[0.09604166666666672,-0.24055555555555552,3.7306000000238413],[0.09604166666666672,-0.24055555555555552,3.741600000023851],[0.09375,-0.2492592592592593,3.758399999976163],[0.1125,-0.24814814814814815,3.7759999999999962],[0.07083333333333333,-0.2361111111111111,3.7930000000000064],[0.07083333333333333,-0.2361111111111111,3.8083000000119256],[0.08499999999999991,-0.2235185185185185,3.8251000000238378],[0.08927083333333338,-0.19462962962962968,3.8418000000119292],[0.0890625,-0.1757407407407407,3.859399999976162],[0.0890625,-0.1757407407407407,3.8756000000238373],[0.07177083333333342,-0.11407407407407412,3.8916999999880773],[0.11177083333333329,-0.08907407407407411,3.9085000000000036],[0.10885416666666667,-0.0787037037037037,3.930600000023844],[0.10885416666666667,-0.0787037037037037,3.9418000000119235],[0.08406250000000005,-0.0735185185185185,3.95860000002385],[0.09635416666666667,-0.07092592592592595,3.9751000000238434],[0.11729166666666657,-0.04870370370370362,3.9920000000000044],[0.12239583333333333,-0.07092592592592595,4.015600000023838],[0.12239583333333333,-0.07092592592592595,4.025300000011924],[0.125,-0.06648148148148143,4.041600000023848],[0.09791666666666667,-0.09870370370370372,4.059899999976167],[0.05604166666666662,-0.12333333333333338,4.07860000002384],[0.07291666666666667,-0.14685185185185187,4.096000000000004],[0.07291666666666667,-0.14685185185185187,4.108399999976157],[0.05593750000000005,-0.1427777777777778,4.128600000023837],[0.024270833333333287,-0.13425925925925927,4.146399999976154],[0.024270833333333287,-0.13425925925925927,4.1583999999761545],[0.007187499999999976,-0.1368518518518518,4.174999999999997],[-0.03791666666666664,-0.1594444444444445,4.192600000023845],[-0.06645833333333329,-0.18888888888888888,4.209800000011924],[-0.06479166666666672,-0.19296296296296295,4.228600000023846],[-0.08843749999999997,-0.23981481481481481,4.243300000011928],[-0.0828125,-0.24129629629629631,4.261399999976163],[-0.05677083333333333,-0.2631481481481482,4.278500000000008],[-0.06145833333333333,-0.2844444444444445,4.295500000000004],[-0.08156249999999995,-0.3051851851851852,4.311000000000007],[-0.08864583333333335,-0.3118518518518518,4.326000000000008],[-0.08010416666666664,-0.3368518518518518,4.344100000023843],[-0.08010416666666664,-0.3368518518518518,4.358399999976157],[-0.06083333333333331,-0.35259259259259257,4.374899999976165],[-0.06833333333333336,-0.33777777777777773,4.391800000011926],[-0.09593750000000002,-0.34814814814814815,4.412699999988078],[-0.09593750000000002,-0.34814814814814815,4.425100000023846],[-0.09114583333333333,-0.322037037037037,4.4418000000119235],[-0.0953125,-0.29907407407407405,4.46369999998808],[-0.08875000000000005,-0.27981481481481485,4.479300000011918],[-0.08875000000000005,-0.27981481481481485,4.491899999976155],[-0.08260416666666662,-0.2638888888888889,4.508499999999998],[-0.07572916666666671,-0.2607407407407408,4.529600000023848],[-0.04739583333333333,-0.26185185185185184,4.545399999976155],[-0.04739583333333333,-0.26185185185185184,4.558699999988079],[-0.022916666666666665,-0.2094444444444445,4.575000000000003],[-0.0014583333333333095,-0.1527777777777778,4.595199999988083],[0.022187499999999954,-0.14462962962962966,4.612600000023846],[0.06593749999999995,-0.11129629629629634,4.6308000000119165],[0.03947916666666664,-0.11277777777777774,4.6461999999880845],[0.03947916666666664,-0.11277777777777774,4.668300000011925],[0.04916666666666671,-0.12407407407407407,4.688300000011921],[0.04916666666666671,-0.12407407407407407,4.71480000001192]]","[0.0001999999880837322,0.04050000000000864,0.06269999998808373,0.08210000002384277,0.09680000001192468,0.10719999998808305,0.12860000002383742,0.13569999998807702,0.15900000000000603,0.16669999998808294,0.19480000001192366,0.20530000001191695,0.2278000000119249,0.2348999999761645,0.2591999999880841,0.267699999988082,0.29230000001192025,0.30030000001193,0.32560000002384015,0.3333999999761659,0.3608000000119205,0.36839999997616246,0.3938000000119217,0.402000000000001,0.4268999999761576,0.43439999997616496,0.4591000000238381,0.4668999999761638,0.4923999999761577,0.5,0.5278000000119221,0.5360000000000014,0.5603000000119209,0.5676000000238446,0.5925000000000011,0.6001000000238434,0.6256999999880861,0.6340000000000003,0.6595000000000084,0.6670000000000016,0.6923999999761605,0.7013000000119263,0.7083999999761659,0.7259999999999991,0.7590000000000003,0.7671999999880796,0.7933999999761596,0.8010000000000019,0.8268999999761633,0.8340000000000032,0.8605000000000018,0.8678000000119255,0.8961000000238499,0.9035000000000082,0.927600000023844,0.9353999999761555,0.963100000023843,0.9696000000238456,0.9926000000238417,1.0003999999761675,1.0296000000238479,1.0366000000238387,1.0606000000238396,1.0681999999880816,1.0955000000000013,1.1031999999880782,1.1274999999999977,1.13510000002384,1.163499999999999,1.1706999999880878,1.193699999988084,1.2016999999880795,1.2289999999999992,1.2358000000119205,1.2611000000238448,1.269199999988075,1.2958000000119227,1.3028999999761623,1.3271000000238473,1.3345000000000056,1.364300000011923,1.371300000011928,1.3938000000119217,1.4014999999999986,1.433000000000007,1.4405000000000001,1.461399999976166,1.4686000000238408,1.496899999976165,1.5041999999880744,1.5258000000119267,1.5336999999880874,1.5641999999880767,1.5721000000238377,1.5941000000238432,1.6021000000238388,1.6313999999761535,1.6389999999999958,1.660600000023848,1.6685000000000088,1.6965000000000003,1.7096000000238405,1.7253000000119272,1.7416000000238512,1.758399999976163,1.7750000000000057,1.7938000000119274,1.8083999999761602,1.8251999999880866,1.8438999999761592,1.8588000000119251,1.8751999999880837,1.8940000000000055,1.9085000000000036,1.925199999988081,1.9418000000119235,1.9613000000119172,1.9751000000238434,1.9918999999761553,2.008499999999998,2.0271999999880848,2.0418999999761667,2.058699999988079,2.0751999999880866,2.0946000000238456,2.110300000011918,2.126800000011926,2.1451999999880798,2.161899999976157,2.179199999988086,2.1918000000119235,2.2111999999880823,2.2283000000119273,2.2418000000119207,2.2635000000000076,2.279399999976164,2.295399999976155,2.3156000000238492,2.325000000000003,2.341899999976164,2.3586000000238414,2.379000000000005,2.395300000011929,2.40830000001192,2.4293999999761553,2.446800000011919,2.458399999976166,2.4750000000000085,2.491699999988086,2.509300000011919,2.5273999999761543,2.5426999999880877,2.5598999999761674,2.5756999999880748,2.5928999999761544,2.6083999999761573,2.625,2.6418000000119264,2.6585000000000036,2.674999999999997,2.6916999999880744,2.708399999976166,2.7251000000238434,2.746899999976165,2.758600000023847,2.775199999988075,2.791800000011918,2.812600000023849,2.829600000023845,2.84169999998808,2.8583999999761573,2.878,2.8948000000119265,2.912000000000006,2.9251000000238463,2.9458000000119284,2.958399999976166,2.975199999988078,2.9975000000000023,3.008399999976163,3.0250000000000057,3.0428000000119226,3.064000000000007,3.0751999999880866,3.0933999999761568,3.113899999976155,3.1253000000119187,3.141899999976161,3.159699999988078,3.18039999997616,3.1918000000119235,3.208500000000001,3.225199999988078,3.2451999999880883,3.258499999999998,3.2751000000238406,3.296199999988076,3.312399999976165,3.3306999999880844,3.3418000000119292,3.36280000001193,3.379600000023842,3.3976999999880775,3.4085000000000036,3.4295000000000044,3.4456999999880793,3.465199999988087,3.4751000000238434,3.495600000023842,3.5126000000238378,3.5251000000238406,3.545600000023839,3.5586000000238442,3.5751999999880866,3.592100000023848,3.6083000000119227,3.625,3.6418000000119264,3.6596000000238433,3.674999999999997,3.6918000000119235,3.7116999999880846,3.7306000000238413,3.741600000023851,3.758399999976163,3.7759999999999962,3.7930000000000064,3.8083000000119256,3.8251000000238378,3.8418000000119292,3.859399999976162,3.8756000000238373,3.8916999999880773,3.9085000000000036,3.930600000023844,3.9418000000119235,3.95860000002385,3.9751000000238434,3.9920000000000044,4.015600000023838,4.025300000011924,4.041600000023848,4.059899999976167,4.07860000002384,4.096000000000004,4.108399999976157,4.128600000023837,4.146399999976154,4.1583999999761545,4.174999999999997,4.192600000023845,4.209800000011924,4.228600000023846,4.243300000011928,4.261399999976163,4.278500000000008,4.295500000000004,4.311000000000007,4.326000000000008,4.344100000023843,4.358399999976157,4.374899999976165,4.391800000011926,4.412699999988078,4.425100000023846,4.4418000000119235,4.46369999998808,4.479300000011918,4.491899999976155,4.508499999999998,4.529600000023848,4.545399999976155,4.558699999988079,4.575000000000003,4.595199999988083,4.612600000023846,4.6308000000119165,4.6461999999880845,4.668300000011925,4.688300000011921,4.71480000001192]","[1733038934605,1733038934639,1733038934661,1733038934680,1733038934695,1733038934705,1733038934727,1733038934734,1733038934757,1733038934765,1733038934793,1733038934803,1733038934826,1733038934833,1733038934857,1733038934866,1733038934890,1733038934898,1733038934924,1733038934931,1733038934959,1733038934966,1733038934992,1733038935000,1733038935025,1733038935032,1733038935057,1733038935065,1733038935090,1733038935098,1733038935126,1733038935134,1733038935158,1733038935166,1733038935191,1733038935198,1733038935224,1733038935232,1733038935257,1733038935265,1733038935290,1733038935299,1733038935306,1733038935324,1733038935357,1733038935365,1733038935391,1733038935399,1733038935425,1733038935432,1733038935458,1733038935466,1733038935494,1733038935502,1733038935526,1733038935533,1733038935561,1733038935568,1733038935591,1733038935598,1733038935628,1733038935635,1733038935659,1733038935666,1733038935693,1733038935701,1733038935725,1733038935733,1733038935761,1733038935769,1733038935792,1733038935800,1733038935827,1733038935834,1733038935859,1733038935867,1733038935894,1733038935901,1733038935925,1733038935932,1733038935962,1733038935969,1733038935992,1733038935999,1733038936031,1733038936038,1733038936059,1733038936067,1733038936095,1733038936102,1733038936124,1733038936132,1733038936162,1733038936170,1733038936192,1733038936200,1733038936229,1733038936237,1733038936259,1733038936266,1733038936294,1733038936308,1733038936323,1733038936340,1733038936356,1733038936373,1733038936392,1733038936406,1733038936423,1733038936442,1733038936457,1733038936473,1733038936492,1733038936506,1733038936523,1733038936540,1733038936559,1733038936573,1733038936590,1733038936606,1733038936625,1733038936640,1733038936657,1733038936673,1733038936693,1733038936708,1733038936725,1733038936743,1733038936760,1733038936777,1733038936790,1733038936809,1733038936826,1733038936840,1733038936861,1733038936877,1733038936893,1733038936914,1733038936923,1733038936940,1733038936957,1733038936977,1733038936993,1733038937006,1733038937027,1733038937045,1733038937056,1733038937073,1733038937090,1733038937107,1733038937125,1733038937141,1733038937158,1733038937174,1733038937191,1733038937206,1733038937223,1733038937240,1733038937257,1733038937273,1733038937290,1733038937306,1733038937323,1733038937345,1733038937357,1733038937373,1733038937390,1733038937411,1733038937428,1733038937440,1733038937456,1733038937476,1733038937493,1733038937510,1733038937523,1733038937544,1733038937556,1733038937573,1733038937595,1733038937606,1733038937623,1733038937641,1733038937662,1733038937673,1733038937691,1733038937712,1733038937723,1733038937740,1733038937758,1733038937778,1733038937790,1733038937806,1733038937823,1733038937843,1733038937857,1733038937873,1733038937894,1733038937910,1733038937929,1733038937940,1733038937961,1733038937978,1733038937996,1733038938006,1733038938027,1733038938044,1733038938063,1733038938073,1733038938094,1733038938111,1733038938123,1733038938144,1733038938157,1733038938173,1733038938190,1733038938206,1733038938223,1733038938240,1733038938258,1733038938273,1733038938290,1733038938310,1733038938329,1733038938340,1733038938356,1733038938374,1733038938391,1733038938406,1733038938423,1733038938440,1733038938457,1733038938474,1733038938490,1733038938506,1733038938529,1733038938540,1733038938557,1733038938573,1733038938590,1733038938614,1733038938623,1733038938640,1733038938658,1733038938677,1733038938694,1733038938706,1733038938727,1733038938744,1733038938756,1733038938773,1733038938791,1733038938808,1733038938827,1733038938841,1733038938859,1733038938877,1733038938894,1733038938909,1733038938924,1733038938942,1733038938956,1733038938973,1733038938990,1733038939011,1733038939023,1733038939040,1733038939062,1733038939077,1733038939090,1733038939106,1733038939128,1733038939143,1733038939157,1733038939173,1733038939193,1733038939211,1733038939229,1733038939244,1733038939266,1733038939286,1733038939313]","[[649.6,96],[649.6,96],[656.6,84.1],[656.6,84.1],[655.6,86.4],[655.6,86.4],[656.2,94.6],[656.2,94.6],[651.6,94.7],[651.6,94.7],[653,103.2],[653,103.2],[655.6,79.2],[655.6,79.2],[696,72.7],[696,72.7],[705.8,67.6],[705.8,67.6],[730.5,55.5],[730.5,55.5],[747.2,48.5],[747.2,48.5],[769.8,50.4],[769.8,50.4],[768.6,48.3],[768.6,48.3],[780.3,60.3],[780.3,60.3],[769.9,64.7],[769.9,64.7],[773.8,53],[773.8,53],[785.4,65],[785.4,65],[764.3,69.6],[764.3,69.6],[781.5,76.4],[781.5,76.4],[761,69.5],[761,69.5],[753,66.9],[753,66.9],[753,66.9],[753,66.9],[744.4,65.3],[744.4,65.3],[750.9,81.7],[750.9,81.7],[758.9,67.2],[758.9,67.2],[775.5,68.5],[775.5,68.5],[789,81.9],[789,81.9],[802.6,95.7],[802.6,95.7],[794.8,102.6],[794.8,102.6],[789.2,117],[789.2,117],[813,169.1],[813,169.1],[838.2,210.8],[838.2,210.8],[860,237.9],[860,237.9],[889.5,271.4],[889.5,271.4],[903.4,306.1],[903.4,306.1],[935.7,315.2],[935.7,315.2],[957.6,309],[957.6,309],[971,317],[971,317],[1004.9,326.2],[1004.9,326.2],[1016.1,339.6],[1016.1,339.6],[1021.2,329.4],[1021.2,329.4],[1010.3,324.3],[1010.3,324.3],[996.5,341.2],[996.5,341.2],[991.6,340.1],[991.6,340.1],[995.4,341.9],[995.4,341.9],[962.7,374.3],[962.7,374.3],[971,428.1],[971,428.1],[978.4,453.2],[978.4,453.2],[975.9,455.7],[975.9,455.7],[970.2,468.1],[970.2,468.1],[947.9,478.1],[947.9,478.1],[944,490],[945.7,479.6],[923.1,465.5],[923.1,465.5],[905.5,466.7],[928.9,471.9],[935.4,473.4],[935.4,473.4],[924.2,471.3],[923.6,479.6],[927.1,460.6],[927.1,460.6],[951,457.5],[989.1,470.9],[1021.8,496.9],[1021.8,496.9],[1059.3,512],[1070.1,521.6],[1057.9,513.2],[1057.9,513.2],[1079.4,508.8],[1100.2,521.8],[1134.1,535.7],[1153.8,555.9],[1179,563.5],[1164.5,560.2],[1165.5,559.2],[1173.3,567.8],[1173.3,567.8],[1175.9,568.7],[1198.1,571.9],[1198.1,571.9],[1179.2,565.3],[1144.2,541.1],[1117,538.8],[1096.8,523.6],[1096.8,523.6],[1087.8,519.5],[1087.9,502.2],[1075.8,482.6],[1075.8,482.6],[1068.9,474.9],[1110.1,478.5],[1122,474.2],[1122,474.2],[1132.8,471.1],[1176.3,486],[1197.1,479.7],[1225.1,480],[1224.8,475.5],[1234.8,481.7],[1257.8,488.6],[1261.7,478.3],[1239.2,471.5],[1232,475.7],[1224.8,479.9],[1224.8,479.9],[1220.1,476],[1220.1,476],[1211,483.5],[1211,483.5],[1201.1,486.2],[1201.1,486.2],[1193.3,498],[1193.3,498],[1189.3,508.9],[1163.1,518],[1163.1,518],[1145.9,531.1],[1137.6,536.3],[1133.1,536],[1128.6,545.9],[1128.6,545.9],[1124.3,555.5],[1124.3,555.5],[1126.6,542.3],[1129.7,533.9],[1129.7,533.9],[1115.4,519.6],[1100.8,508.1],[1100.8,508.1],[1109.1,502.2],[1125.7,502.4],[1123.9,493.4],[1123.9,493.4],[1123.5,492.4],[1128,486.8],[1134.8,468.7],[1134.8,468.7],[1129.4,475],[1141.4,486.8],[1176.3,499.2],[1176.3,499.2],[1185.7,498.4],[1186.2,497.2],[1181.7,486.8],[1185.9,484],[1185.9,484],[1181.6,475.8],[1178.6,463.1],[1175.7,468.1],[1175.7,468.1],[1180.6,467.1],[1155.6,459.1],[1128.9,447],[1128.9,447],[1133.5,442.4],[1121.2,449.1],[1121.2,449.1],[1084.6,446.1],[1084.6,446.1],[1092.2,447.5],[1080.7,452.8],[1080.7,452.8],[1070.5,450.9],[1066.2,453],[1050.3,433.6],[1050.3,433.6],[1027.5,419.6],[1045.9,413.5],[1052.2,410.1],[1052.2,410.1],[1050,405.4],[1068,406],[1028,412.5],[1028,412.5],[1041.6,419.3],[1045.7,434.9],[1045.5,445.1],[1045.5,445.1],[1028.9,478.4],[1067.3,491.9],[1064.5,497.5],[1064.5,497.5],[1040.7,500.3],[1052.5,501.7],[1072.6,513.7],[1077.5,501.7],[1077.5,501.7],[1080,504.1],[1054,486.7],[1013.8,473.4],[1030,460.7],[1030,460.7],[1013.7,462.9],[983.3,467.5],[983.3,467.5],[966.9,466.1],[923.6,453.9],[896.2,438],[897.8,435.8],[875.1,410.5],[880.5,409.7],[905.5,397.9],[901,386.4],[881.7,375.2],[874.9,371.6],[883.1,358.1],[883.1,358.1],[901.6,349.6],[894.4,357.6],[867.9,352],[867.9,352],[872.5,366.1],[868.5,378.5],[874.8,388.9],[874.8,388.9],[880.7,397.5],[887.3,399.2],[914.5,398.6],[914.5,398.6],[938,426.9],[958.6,457.5],[981.3,461.9],[1023.3,479.9],[997.9,479.1],[997.9,479.1],[1007.2,473],[1007.2,473]]","[0,0.151169218]","[0.151169218,0.151169218]","[-0.151169218,-0.151169218]","[-0.151169218,0]","[0,-0.151169218]","[0.151169218,-0.151169218]","[0,0]","[0.151169218,0]",0,0,0,0,1,1,Smartphone,7,7,15,9
