inst1_resp.keys,inst1_resp.rt,calibrationMouse.x,calibrationMouse.y,calibrationMouse.leftButton,calibrationMouse.midButton,calibrationMouse.rightButton,calibrationClick.x,calibrationClick.y,calibrationClick.leftButton,calibrationClick.midButton,calibrationClick.rightButton,trialsc.thisRepN,trialsc.thisTrialN,trialsc.thisN,trialsc.thisIndex,trialsc.ran,calibration_x,calibration_y,participant,session,date,expName,psychopyVersion,OS,frameRate,calibrationClick.clicked_name,ScreenRes_pixels,Camera_pixels,mouse_2.x,mouse_2.y,mouse_2.leftButton,mouse_2.midButton,mouse_2.rightButton,mouse_2.time,mouse_2.clicked_name,mouse.x,mouse.y,mouse.leftButton,mouse.midButton,mouse.rightButton,mouse.time,mouse.clicked_name,Choice,Trial,TrialDuration,MOUSE_GAZE,ET_GAZE,ET_GAZE_x_T,time,unixTime,ET_GAZE_NF,Loc_Option1_label,Loc_Option2_label,Loc_Cost_label,Loc_Qual_label,Loc_Option1_cost,Loc_Option2_cost,Loc_Option1_quality,Loc_Option2_quality,trials.thisRepN,trials.thisTrialN,trials.thisN,trials.thisIndex,trials.ran,Block,Device,cost1,qual1,cost2,qual2
space,2.4135,-0.304166667,-0.4,1,0,0,-0.163541667,0.216666667,1,0,0,0,0,0,1,1,-0.67,-0.33,16,001,2024-12-02_16h55.29.460,Attention_exp_legacy,2023.1.0,Win32,60.24096386,,,,,,,,,,,,,,,,,,,,,,,,,,,,,,,,,,,,,,,,,,,,,
,,,,,,,0.007291667,-0.661111111,1,0,0,0,1,1,9,1,0,-0.67,16,001,2024-12-02_16h55.29.460,Attention_exp_legacy,2023.1.0,Win32,60.24096386,calibration_square,,,,,,,,,,,,,,,,,,,,,,,,,,,,,,,,,,,,,,,,,,,,
,,,,,,,0.336458333,0.668518519,1,0,0,0,2,2,18,1,0.33,0.67,16,001,2024-12-02_16h55.29.460,Attention_exp_legacy,2023.1.0,Win32,60.24096386,calibration_square,,,,,,,,,,,,,,,,,,,,,,,,,,,,,,,,,,,,,,,,,,,,
,,,,,,,-0.335416667,-0.335185185,1,0,0,0,3,3,5,1,-0.33,-0.33,16,001,2024-12-02_16h55.29.460,Attention_exp_legacy,2023.1.0,Win32,60.24096386,calibration_square,,,,,,,,,,,,,,,,,,,,,,,,,,,,,,,,,,,,,,,,,,,,
,,,,,,,0.339583333,0.305555556,1,0,0,0,4,4,17,1,0.33,0.33,16,001,2024-12-02_16h55.29.460,Attention_exp_legacy,2023.1.0,Win32,60.24096386,,,,,,,,,,,,,,,,,,,,,,,,,,,,,,,,,,,,,,,,,,,,,
,,,,,,,0.322916667,-0.027777778,1,0,0,0,5,5,16,1,0.33,0,16,001,2024-12-02_16h55.29.460,Attention_exp_legacy,2023.1.0,Win32,60.24096386,,,,,,,,,,,,,,,,,,,,,,,,,,,,,,,,,,,,,,,,,,,,,
,,,,,,,0.323958333,-0.675925926,1,0,0,0,6,6,14,1,0.33,-0.67,16,001,2024-12-02_16h55.29.460,Attention_exp_legacy,2023.1.0,Win32,60.24096386,calibration_square,,,,,,,,,,,,,,,,,,,,,,,,,,,,,,,,,,,,,,,,,,,,
,,,,,,,-0.316666667,0.655555556,1,0,0,0,7,7,8,1,-0.33,0.67,16,001,2024-12-02_16h55.29.460,Attention_exp_legacy,2023.1.0,Win32,60.24096386,,,,,,,,,,,,,,,,,,,,,,,,,,,,,,,,,,,,,,,,,,,,,
,,,,,,,0.008333333,0.357407407,1,0,0,0,8,8,12,1,0,0.33,16,001,2024-12-02_16h55.29.460,Attention_exp_legacy,2023.1.0,Win32,60.24096386,,,,,,,,,,,,,,,,,,,,,,,,,,,,,,,,,,,,,,,,,,,,,
,,,,,,,0.673958333,0.661111111,1,0,0,0,9,9,19,1,0.67,0.67,16,001,2024-12-02_16h55.29.460,Attention_exp_legacy,2023.1.0,Win32,60.24096386,calibration_square,,,,,,,,,,,,,,,,,,,,,,,,,,,,,,,,,,,,,,,,,,,,
,,,,,,,-0.676041667,-0.657407407,1,0,0,0,10,10,0,1,-0.67,-0.67,16,001,2024-12-02_16h55.29.460,Attention_exp_legacy,2023.1.0,Win32,60.24096386,,,,,,,,,,,,,,,,,,,,,,,,,,,,,,,,,,,,,,,,,,,,,
,,,,,,,-0.315625,0.364814815,1,0,0,0,11,11,7,1,-0.33,0.33,16,001,2024-12-02_16h55.29.460,Attention_exp_legacy,2023.1.0,Win32,60.24096386,,,,,,,,,,,,,,,,,,,,,,,,,,,,,,,,,,,,,,,,,,,,,
,,,,,,,-0.358333333,-0.061111111,1,0,0,0,12,12,6,1,-0.33,0,16,001,2024-12-02_16h55.29.460,Attention_exp_legacy,2023.1.0,Win32,60.24096386,,,,,,,,,,,,,,,,,,,,,,,,,,,,,,,,,,,,,,,,,,,,,
,,,,,,,0.36875,-0.35,1,0,0,0,13,13,15,1,0.33,-0.33,16,001,2024-12-02_16h55.29.460,Attention_exp_legacy,2023.1.0,Win32,60.24096386,,,,,,,,,,,,,,,,,,,,,,,,,,,,,,,,,,,,,,,,,,,,,
,,,,,,,-0.298958333,-0.612962963,1,0,0,0,14,14,4,1,-0.33,-0.67,16,001,2024-12-02_16h55.29.460,Attention_exp_legacy,2023.1.0,Win32,60.24096386,,,,,,,,,,,,,,,,,,,,,,,,,,,,,,,,,,,,,,,,,,,,,
,,,,,,,-0.03125,-0.396296296,1,0,0,0,15,15,10,1,0,-0.33,16,001,2024-12-02_16h55.29.460,Attention_exp_legacy,2023.1.0,Win32,60.24096386,,,,,,,,,,,,,,,,,,,,,,,,,,,,,,,,,,,,,,,,,,,,,
,,,,,,,-0.728125,0.005555556,1,0,0,0,16,16,2,1,-0.67,0,16,001,2024-12-02_16h55.29.460,Attention_exp_legacy,2023.1.0,Win32,60.24096386,,,,,,,,,,,,,,,,,,,,,,,,,,,,,,,,,,,,,,,,,,,,,
,,,,,,,0.0125,0.024074074,1,0,0,0,17,17,11,1,0,0,16,001,2024-12-02_16h55.29.460,Attention_exp_legacy,2023.1.0,Win32,60.24096386,,,,,,,,,,,,,,,,,,,,,,,,,,,,,,,,,,,,,,,,,,,,,
,,,,,,,0.004166667,0.685185185,1,0,0,0,18,18,13,1,0,0.67,16,001,2024-12-02_16h55.29.460,Attention_exp_legacy,2023.1.0,Win32,60.24096386,,,,,,,,,,,,,,,,,,,,,,,,,,,,,,,,,,,,,,,,,,,,,
,,,,,,,0.673958333,-0.662962963,1,0,0,0,19,19,20,1,0.67,-0.67,16,001,2024-12-02_16h55.29.460,Attention_exp_legacy,2023.1.0,Win32,60.24096386,calibration_square,,,,,,,,,,,,,,,,,,,,,,,,,,,,,,,,,,,,,,,,,,,,
,,,,,,,-0.659375,0.257407407,1,0,0,0,20,20,3,1,-0.67,0.33,16,001,2024-12-02_16h55.29.460,Attention_exp_legacy,2023.1.0,Win32,60.24096386,,,,,,,,,,,,,,,,,,,,,,,,,,,,,,,,,,,,,,,,,,,,,
,,,,,,,,,,,,,,,,,,,16,001,2024-12-02_16h55.29.460,Attention_exp_legacy,2023.1.0,Win32,60.24096386,,"[1920,1080]","[640,480]",[0.020833333333333332],[-0.5],[1],[0],[0],[7.743600000001493],"[""StartButton""]",[0.3416666666666667],[0.34814814814814815],[1],[0],[0],[16.228199999999255],"[""Option2_label""]",Option2_label,1,17.2523,"[[0.052083333333333336,0.25925925925925924],[0.046875,0.25925925925925924],[0.04479166666666667,0.2574074074074074],[0.04479166666666667,0.2574074074074074],[0.04375,0.2537037037037037],[0.04375,0.2537037037037037],[0.04375,0.2537037037037037],[0.04375,0.2537037037037037],[0.04375,0.2537037037037037],[0.04375,0.2537037037037037],[0.04375,0.2537037037037037],[0.04375,0.2537037037037037],[0.04375,0.2537037037037037],[0.04375,0.2537037037037037],[0.04375,0.2537037037037037],[0.04375,0.2537037037037037],[0.04375,0.2537037037037037],[0.04375,0.2537037037037037],[0.04375,0.2537037037037037],[0.04375,0.2537037037037037],[0.04375,0.2537037037037037],[0.04375,0.2537037037037037],[0.04375,0.2537037037037037],[0.04375,0.2537037037037037],[0.04375,0.2537037037037037],[0.04375,0.2537037037037037],[0.04375,0.2537037037037037],[0.04375,0.2537037037037037],[0.04375,0.2537037037037037],[0.04375,0.2537037037037037],[0.04375,0.2537037037037037],[0.042708333333333334,0.2537037037037037],[0.042708333333333334,0.2537037037037037],[0.042708333333333334,0.2537037037037037],[0.042708333333333334,0.2537037037037037],[0.042708333333333334,0.2537037037037037],[0.041666666666666664,0.25555555555555554],[0.041666666666666664,0.25555555555555554],[0.040625,0.25555555555555554],[0.040625,0.25555555555555554],[0.040625,0.25555555555555554],[0.03958333333333333,0.25925925925925924],[0.03958333333333333,0.25925925925925924],[0.03958333333333333,0.26296296296296295],[0.03854166666666667,0.26481481481481484],[0.03854166666666667,0.26481481481481484],[0.03854166666666667,0.26666666666666666],[0.03854166666666667,0.26851851851851855],[0.03854166666666667,0.27037037037037037],[0.0375,0.2722222222222222],[0.036458333333333336,0.2740740740740741],[0.035416666666666666,0.2740740740740741],[0.035416666666666666,0.2740740740740741],[0.03125,0.2740740740740741],[0.029166666666666667,0.2740740740740741],[0.021875,0.2740740740740741],[0.019791666666666666,0.2740740740740741],[0.017708333333333333,0.2740740740740741],[0.009375,0.2740740740740741],[-0.0375,0.2611111111111111],[-0.0375,0.2611111111111111],[-0.07395833333333333,0.22592592592592592],[-0.08125,0.21666666666666667],[-0.08125,0.21666666666666667],[-0.09791666666666667,0.18518518518518517],[-0.12395833333333334,0.12962962962962962],[-0.13125,0.11296296296296296],[-0.15416666666666667,0.05925925925925926],[-0.16041666666666668,0.044444444444444446],[-0.17604166666666668,0.011111111111111112],[-0.18020833333333333,0.003703703703703704],[-0.18333333333333332,-0.001851851851851852],[-0.18333333333333332,-0.001851851851851852],[-0.18333333333333332,-0.003703703703703704],[-0.18333333333333332,-0.003703703703703704],[-0.18333333333333332,-0.003703703703703704],[-0.18333333333333332,-0.003703703703703704],[-0.18333333333333332,-0.003703703703703704],[-0.18333333333333332,-0.003703703703703704],[-0.18541666666666667,0.003703703703703704],[-0.18541666666666667,0.005555555555555556],[-0.18645833333333334,0.014814814814814815],[-0.1875,0.016666666666666666],[-0.1875,0.02962962962962963],[-0.18854166666666666,0.037037037037037035],[-0.18854166666666666,0.046296296296296294],[-0.18854166666666666,0.046296296296296294],[-0.18854166666666666,0.046296296296296294],[-0.1875,0.05925925925925926],[-0.1875,0.05925925925925926],[-0.1875,0.05925925925925926],[-0.1875,0.05925925925925926],[-0.1875,0.05925925925925926],[-0.1875,0.05925925925925926],[-0.1875,0.05925925925925926],[-0.1875,0.05925925925925926],[-0.1875,0.05925925925925926],[-0.1875,0.05925925925925926],[-0.18645833333333334,0.05925925925925926],[-0.17604166666666668,0.05185185185185185],[-0.175,0.05],[-0.17291666666666666,0.04814814814814815],[-0.171875,0.04814814814814815],[-0.171875,0.04814814814814815],[-0.171875,0.046296296296296294],[-0.171875,0.03888888888888889],[-0.171875,0.03518518518518519],[-0.17708333333333334,0.011111111111111112],[-0.18020833333333333,0],[-0.19166666666666668,-0.05],[-0.19583333333333333,-0.06481481481481481],[-0.19583333333333333,-0.06481481481481481],[-0.2125,-0.13518518518518519],[-0.21354166666666666,-0.14629629629629629],[-0.225,-0.18333333333333332],[-0.22708333333333333,-0.1925925925925926],[-0.23333333333333334,-0.20555555555555555],[-0.234375,-0.2074074074074074],[-0.23854166666666668,-0.21481481481481482],[-0.23958333333333334,-0.21481481481481482],[-0.24166666666666667,-0.21481481481481482],[-0.24375,-0.21481481481481482],[-0.253125,-0.21666666666666667],[-0.25625,-0.21666666666666667],[-0.265625,-0.21666666666666667],[-0.26979166666666665,-0.21666666666666667],[-0.28229166666666666,-0.21666666666666667],[-0.2875,-0.21666666666666667],[-0.2989583333333333,-0.21666666666666667],[-0.303125,-0.21296296296296297],[-0.3125,-0.20925925925925926],[-0.315625,-0.20555555555555555],[-0.321875,-0.2037037037037037],[-0.32395833333333335,-0.20185185185185187],[-0.3260416666666667,-0.19814814814814816],[-0.3260416666666667,-0.19814814814814816],[-0.3260416666666667,-0.1925925925925926],[-0.3260416666666667,-0.18888888888888888],[-0.31666666666666665,-0.17037037037037037],[-0.3104166666666667,-0.16296296296296298],[-0.28854166666666664,-0.14444444444444443],[-0.26666666666666666,-0.12962962962962962],[-0.23125,-0.11296296296296296],[-0.23125,-0.11296296296296296],[-0.18229166666666666,-0.1],[-0.16979166666666667,-0.1],[-0.13645833333333332,-0.09074074074074075],[-0.128125,-0.08888888888888889],[-0.10520833333333333,-0.08148148148148149],[-0.1,-0.07962962962962963],[-0.08645833333333333,-0.07962962962962963],[-0.08125,-0.07962962962962963],[-0.06979166666666667,-0.07962962962962963],[-0.06666666666666667,-0.07962962962962963],[-0.057291666666666664,-0.07962962962962963],[-0.053125,-0.07962962962962963],[-0.042708333333333334,-0.07962962962962963],[-0.03958333333333333,-0.07962962962962963],[-0.036458333333333336,-0.07962962962962963],[-0.036458333333333336,-0.07962962962962963],[-0.036458333333333336,-0.07962962962962963],[-0.036458333333333336,-0.07962962962962963],[-0.035416666666666666,-0.07962962962962963],[-0.03229166666666667,-0.07962962962962963],[-0.022916666666666665,-0.07592592592592592],[-0.015625,-0.07592592592592592],[-0.0010416666666666667,-0.07222222222222222],[0.003125,-0.07037037037037037],[0.016666666666666666,-0.06851851851851852],[0.019791666666666666,-0.06666666666666667],[0.03229166666666667,-0.06481481481481481],[0.03854166666666667,-0.06296296296296296],[0.05,-0.06296296296296296],[0.053125,-0.06296296296296296],[0.06354166666666666,-0.06296296296296296],[0.06666666666666667,-0.06296296296296296],[0.078125,-0.06296296296296296],[0.08125,-0.06296296296296296],[0.09479166666666666,-0.06296296296296296],[0.10625,-0.06296296296296296],[0.11770833333333333,-0.06296296296296296],[0.12291666666666666,-0.06296296296296296],[0.1375,-0.06296296296296296],[0.14895833333333333,-0.06296296296296296],[0.15625,-0.06296296296296296],[0.159375,-0.06296296296296296],[0.16354166666666667,-0.06296296296296296],[0.16666666666666666,-0.06296296296296296],[0.16666666666666666,-0.06296296296296296],[0.16666666666666666,-0.06296296296296296],[0.16666666666666666,-0.06296296296296296],[0.16770833333333332,-0.06296296296296296],[0.16979166666666667,-0.06296296296296296],[0.16979166666666667,-0.06296296296296296],[0.16979166666666667,-0.06296296296296296],[0.16979166666666667,-0.06296296296296296],[0.171875,-0.06111111111111111],[0.171875,-0.06111111111111111],[0.171875,-0.06111111111111111],[0.171875,-0.06111111111111111],[0.171875,-0.06111111111111111],[0.171875,-0.06111111111111111],[0.171875,-0.06111111111111111],[0.171875,-0.06111111111111111],[0.171875,-0.06111111111111111],[0.171875,-0.06111111111111111],[0.171875,-0.06111111111111111],[0.171875,-0.06111111111111111],[0.171875,-0.06111111111111111],[0.171875,-0.06111111111111111],[0.171875,-0.06111111111111111],[0.171875,-0.06111111111111111],[0.165625,-0.07037037037037037],[0.1625,-0.07592592592592592],[0.16145833333333334,-0.07777777777777778],[0.16145833333333334,-0.07962962962962963],[0.16145833333333334,-0.07962962962962963],[0.16145833333333334,-0.07962962962962963],[0.16145833333333334,-0.07962962962962963],[0.16145833333333334,-0.07962962962962963],[0.159375,-0.07962962962962963],[0.159375,-0.07962962962962963],[0.15833333333333333,-0.08148148148148149],[0.15833333333333333,-0.08148148148148149],[0.15833333333333333,-0.08148148148148149],[0.15729166666666666,-0.08333333333333333],[0.15520833333333334,-0.08518518518518518],[0.15520833333333334,-0.08518518518518518],[0.15520833333333334,-0.08518518518518518],[0.153125,-0.08703703703703704],[0.15208333333333332,-0.08703703703703704],[0.15208333333333332,-0.08703703703703704],[0.15,-0.08888888888888889],[0.14895833333333333,-0.09074074074074075],[0.146875,-0.09259259259259259],[0.146875,-0.09259259259259259],[0.14583333333333334,-0.09259259259259259],[0.14375,-0.09259259259259259],[0.14375,-0.09259259259259259],[0.140625,-0.09259259259259259],[0.13645833333333332,-0.09444444444444444],[0.13645833333333332,-0.09444444444444444],[0.134375,-0.09444444444444444],[0.134375,-0.09444444444444444],[0.13333333333333333,-0.09444444444444444],[0.13333333333333333,-0.09444444444444444],[0.13229166666666667,-0.0962962962962963],[0.13125,-0.0962962962962963],[0.13125,-0.09814814814814815],[0.13125,-0.09814814814814815],[0.13020833333333334,-0.09814814814814815],[0.13020833333333334,-0.09814814814814815],[0.13020833333333334,-0.09814814814814815],[0.128125,-0.09814814814814815],[0.128125,-0.09814814814814815],[0.128125,-0.09814814814814815],[0.12708333333333333,-0.09814814814814815],[0.12708333333333333,-0.09814814814814815],[0.12604166666666666,-0.09814814814814815],[0.125,-0.09814814814814815],[0.12395833333333334,-0.09814814814814815],[0.12395833333333334,-0.09814814814814815],[0.12291666666666666,-0.09814814814814815],[0.12083333333333333,-0.09814814814814815],[0.12083333333333333,-0.09814814814814815],[0.11770833333333333,-0.09814814814814815],[0.11770833333333333,-0.09814814814814815],[0.11458333333333333,-0.09814814814814815],[0.11458333333333333,-0.09814814814814815],[0.11354166666666667,-0.09814814814814815],[0.11354166666666667,-0.09814814814814815],[0.1125,-0.09814814814814815],[0.1125,-0.09814814814814815],[0.1125,-0.09814814814814815],[0.1125,-0.09814814814814815],[0.1125,-0.09814814814814815],[0.1125,-0.09814814814814815],[0.1125,-0.09814814814814815],[0.1125,-0.09814814814814815],[0.1125,-0.09814814814814815],[0.1125,-0.09814814814814815],[0.1125,-0.09814814814814815],[0.1125,-0.09814814814814815],[0.1125,-0.09814814814814815],[0.1125,-0.09814814814814815],[0.1125,-0.09814814814814815],[0.1125,-0.09814814814814815],[0.11041666666666666,-0.09814814814814815],[0.109375,-0.0962962962962963],[0.109375,-0.09444444444444444],[0.109375,-0.09444444444444444],[0.109375,-0.09444444444444444],[0.109375,-0.09444444444444444],[0.109375,-0.09444444444444444],[0.109375,-0.09444444444444444],[0.109375,-0.09444444444444444],[0.109375,-0.09444444444444444],[0.109375,-0.09444444444444444],[0.109375,-0.09444444444444444],[0.109375,-0.09444444444444444],[0.109375,-0.09444444444444444],[0.109375,-0.09444444444444444],[0.109375,-0.09444444444444444],[0.109375,-0.09444444444444444],[0.109375,-0.09444444444444444],[0.109375,-0.09444444444444444],[0.109375,-0.09444444444444444],[0.109375,-0.09444444444444444],[0.109375,-0.09444444444444444],[0.109375,-0.09444444444444444],[0.109375,-0.09444444444444444],[0.109375,-0.09444444444444444],[0.109375,-0.09444444444444444],[0.109375,-0.09444444444444444],[0.109375,-0.09444444444444444],[0.109375,-0.09444444444444444],[0.109375,-0.09444444444444444],[0.109375,-0.09444444444444444],[0.109375,-0.09444444444444444],[0.109375,-0.09444444444444444],[0.109375,-0.09444444444444444],[0.109375,-0.09444444444444444],[0.109375,-0.09444444444444444],[0.109375,-0.09444444444444444],[0.109375,-0.09444444444444444],[0.109375,-0.09444444444444444],[0.109375,-0.09444444444444444],[0.109375,-0.09444444444444444],[0.109375,-0.09444444444444444],[0.109375,-0.09444444444444444],[0.109375,-0.09444444444444444],[0.109375,-0.09444444444444444],[0.109375,-0.09444444444444444],[0.109375,-0.09444444444444444],[0.109375,-0.09444444444444444],[0.109375,-0.09444444444444444],[0.109375,-0.09444444444444444],[0.109375,-0.09444444444444444],[0.109375,-0.09444444444444444],[0.109375,-0.09444444444444444],[0.109375,-0.09444444444444444],[0.109375,-0.09444444444444444],[0.109375,-0.09444444444444444],[0.109375,-0.09444444444444444],[0.109375,-0.09444444444444444],[0.109375,-0.09444444444444444],[0.109375,-0.09444444444444444],[0.109375,-0.09444444444444444],[0.109375,-0.09444444444444444],[0.109375,-0.09444444444444444],[0.109375,-0.09444444444444444],[0.109375,-0.09444444444444444],[0.109375,-0.09444444444444444],[0.109375,-0.09444444444444444],[0.109375,-0.09444444444444444],[0.109375,-0.09444444444444444],[0.109375,-0.09444444444444444],[0.109375,-0.09444444444444444],[0.109375,-0.09444444444444444],[0.109375,-0.09444444444444444],[0.109375,-0.09444444444444444],[0.109375,-0.09444444444444444],[0.109375,-0.09444444444444444],[0.109375,-0.09444444444444444],[0.109375,-0.09444444444444444],[0.109375,-0.09444444444444444],[0.109375,-0.09444444444444444],[0.109375,-0.09444444444444444],[0.109375,-0.09444444444444444],[0.109375,-0.09444444444444444],[0.109375,-0.09074074074074075],[0.11041666666666666,-0.07777777777777778],[0.11458333333333333,-0.07222222222222222],[0.11458333333333333,-0.07222222222222222],[0.11458333333333333,-0.07222222222222222],[0.11458333333333333,-0.07222222222222222],[0.11458333333333333,-0.07222222222222222],[0.11458333333333333,-0.07222222222222222],[0.11458333333333333,-0.07222222222222222],[0.11458333333333333,-0.07222222222222222],[0.11458333333333333,-0.07222222222222222],[0.11458333333333333,-0.07222222222222222],[0.11458333333333333,-0.07222222222222222],[0.11458333333333333,-0.07222222222222222],[0.11458333333333333,-0.07222222222222222],[0.11458333333333333,-0.07222222222222222],[0.11458333333333333,-0.07222222222222222],[0.11458333333333333,-0.07222222222222222],[0.11458333333333333,-0.07222222222222222],[0.11458333333333333,-0.07222222222222222],[0.11458333333333333,-0.07222222222222222],[0.11458333333333333,-0.07222222222222222],[0.11354166666666667,-0.07407407407407407],[0.10833333333333334,-0.07407407407407407],[0.10208333333333333,-0.07777777777777778],[0.09791666666666667,-0.07777777777777778],[0.09375,-0.07777777777777778],[0.0875,-0.07592592592592592],[0.08125,-0.07407407407407407],[0.07916666666666666,-0.07222222222222222],[0.07604166666666666,-0.07037037037037037],[0.07291666666666667,-0.06851851851851852],[0.07083333333333333,-0.06851851851851852],[0.06979166666666667,-0.06666666666666667],[0.06979166666666667,-0.06666666666666667],[0.06875,-0.06666666666666667],[0.06875,-0.06666666666666667],[0.06875,-0.06666666666666667],[0.06875,-0.06666666666666667],[0.06875,-0.06666666666666667],[0.06875,-0.06666666666666667],[0.06875,-0.06666666666666667],[0.06875,-0.06666666666666667],[0.06875,-0.06666666666666667],[0.06875,-0.06666666666666667],[0.06875,-0.06666666666666667],[0.06770833333333333,-0.06666666666666667],[0.06770833333333333,-0.06666666666666667],[0.06770833333333333,-0.06666666666666667],[0.06770833333333333,-0.06666666666666667],[0.06770833333333333,-0.06666666666666667],[0.06770833333333333,-0.06666666666666667],[0.06770833333333333,-0.06666666666666667],[0.065625,-0.06666666666666667],[0.065625,-0.06666666666666667],[0.06145833333333333,-0.06666666666666667],[0.059375,-0.06851851851851852],[0.057291666666666664,-0.06851851851851852],[0.053125,-0.06851851851851852],[0.051041666666666666,-0.06851851851851852],[0.046875,-0.06851851851851852],[0.041666666666666664,-0.06851851851851852],[0.036458333333333336,-0.07222222222222222],[0.030208333333333334,-0.07407407407407407],[0.026041666666666668,-0.07592592592592592],[0.022916666666666665,-0.07962962962962963],[0.022916666666666665,-0.07962962962962963],[0.022916666666666665,-0.07962962962962963],[0.03229166666666667,-0.07222222222222222],[0.06145833333333333,-0.03518518518518519],[0.1,0.009259259259259259],[0.15104166666666666,0.06851851851851852],[0.20520833333333333,0.13333333333333333],[0.25416666666666665,0.1962962962962963],[0.296875,0.25],[0.328125,0.2814814814814815],[0.3458333333333333,0.30185185185185187],[0.35520833333333335,0.31296296296296294],[0.3572916666666667,0.3148148148148148],[0.3572916666666667,0.3148148148148148],[0.3572916666666667,0.3148148148148148],[0.3572916666666667,0.3148148148148148],[0.3572916666666667,0.3148148148148148],[0.3572916666666667,0.3148148148148148],[0.3572916666666667,0.3148148148148148],[0.3572916666666667,0.3148148148148148],[0.3572916666666667,0.3148148148148148],[0.3572916666666667,0.3148148148148148],[0.3572916666666667,0.3148148148148148],[0.3572916666666667,0.3148148148148148],[0.3572916666666667,0.3148148148148148],[0.3572916666666667,0.3148148148148148],[0.3572916666666667,0.3148148148148148],[0.3572916666666667,0.3148148148148148],[0.3572916666666667,0.3148148148148148],[0.3572916666666667,0.3148148148148148],[0.3572916666666667,0.3148148148148148],[0.3572916666666667,0.3148148148148148],[0.3572916666666667,0.3148148148148148],[0.3572916666666667,0.3148148148148148],[0.3572916666666667,0.3148148148148148],[0.3572916666666667,0.3148148148148148],[0.3572916666666667,0.3148148148148148],[0.3572916666666667,0.3148148148148148],[0.3572916666666667,0.3148148148148148],[0.3572916666666667,0.3148148148148148],[0.3572916666666667,0.3148148148148148],[0.3572916666666667,0.3148148148148148],[0.3572916666666667,0.3148148148148148],[0.3572916666666667,0.3148148148148148],[0.3572916666666667,0.3148148148148148],[0.3572916666666667,0.3148148148148148],[0.3572916666666667,0.3148148148148148],[0.3572916666666667,0.3148148148148148],[0.3572916666666667,0.3148148148148148],[0.3572916666666667,0.3148148148148148],[0.3572916666666667,0.3148148148148148],[0.3572916666666667,0.3148148148148148],[0.3572916666666667,0.3148148148148148],[0.3572916666666667,0.3148148148148148],[0.3572916666666667,0.3148148148148148],[0.3572916666666667,0.3148148148148148],[0.3572916666666667,0.3148148148148148],[0.3572916666666667,0.3148148148148148],[0.3572916666666667,0.3148148148148148],[0.3572916666666667,0.3148148148148148],[0.3572916666666667,0.31666666666666665],[0.359375,0.32037037037037036],[0.359375,0.32222222222222224],[0.3614583333333333,0.3277777777777778],[0.3625,0.3314814814814815],[0.36354166666666665,0.3351851851851852],[0.36354166666666665,0.3351851851851852],[0.3645833333333333,0.337037037037037],[0.3645833333333333,0.3388888888888889],[0.36666666666666664,0.3425925925925926],[0.36666666666666664,0.34629629629629627],[0.36770833333333336,0.34814814814814815],[0.36770833333333336,0.35],[0.36770833333333336,0.35],[0.36770833333333336,0.35],[0.36770833333333336,0.35],[0.36770833333333336,0.35],[0.36770833333333336,0.35],[0.36770833333333336,0.35],[0.36770833333333336,0.35],[0.36770833333333336,0.35],[0.36770833333333336,0.35],[0.36770833333333336,0.35],[0.36770833333333336,0.35],[0.36770833333333336,0.35],[0.36770833333333336,0.35],[0.36770833333333336,0.35],[0.36770833333333336,0.35],[0.36770833333333336,0.35],[0.36770833333333336,0.35],[0.36770833333333336,0.35],[0.36770833333333336,0.35],[0.36770833333333336,0.35],[0.36770833333333336,0.35],[0.36770833333333336,0.35],[0.36770833333333336,0.35],[0.36770833333333336,0.35],[0.36770833333333336,0.35],[0.36770833333333336,0.35],[0.36770833333333336,0.35],[0.36770833333333336,0.35],[0.36770833333333336,0.35],[0.36770833333333336,0.35],[0.36770833333333336,0.35],[0.36770833333333336,0.35],[0.36770833333333336,0.35],[0.36770833333333336,0.35],[0.36770833333333336,0.35],[0.36770833333333336,0.35],[0.36770833333333336,0.35],[0.36770833333333336,0.35],[0.36770833333333336,0.35],[0.36770833333333336,0.35],[0.36770833333333336,0.35],[0.36770833333333336,0.35],[0.36770833333333336,0.35],[0.36770833333333336,0.35],[0.36770833333333336,0.35],[0.36770833333333336,0.35],[0.36770833333333336,0.35],[0.36770833333333336,0.35],[0.36770833333333336,0.35],[0.36770833333333336,0.35],[0.36770833333333336,0.35],[0.36770833333333336,0.35],[0.36770833333333336,0.35],[0.36770833333333336,0.35],[0.36770833333333336,0.35],[0.36770833333333336,0.35],[0.36770833333333336,0.35],[0.36770833333333336,0.35],[0.36770833333333336,0.35],[0.36770833333333336,0.35],[0.36770833333333336,0.35],[0.36770833333333336,0.35],[0.36770833333333336,0.35],[0.36770833333333336,0.35],[0.36770833333333336,0.35],[0.36770833333333336,0.35],[0.36770833333333336,0.35],[0.36770833333333336,0.35],[0.36770833333333336,0.35],[0.36770833333333336,0.35],[0.36770833333333336,0.35],[0.36770833333333336,0.35],[0.36770833333333336,0.35],[0.36770833333333336,0.35],[0.36770833333333336,0.35],[0.36770833333333336,0.35],[0.36770833333333336,0.35],[0.36770833333333336,0.35],[0.36770833333333336,0.35],[0.36770833333333336,0.35],[0.36770833333333336,0.35],[0.36770833333333336,0.35],[0.36770833333333336,0.35],[0.36770833333333336,0.35],[0.36770833333333336,0.35],[0.36770833333333336,0.35],[0.36770833333333336,0.35],[0.36770833333333336,0.35],[0.36770833333333336,0.35],[0.36770833333333336,0.35],[0.36770833333333336,0.35],[0.36770833333333336,0.35],[0.36770833333333336,0.35],[0.36770833333333336,0.35],[0.36770833333333336,0.35],[0.36770833333333336,0.35],[0.36770833333333336,0.35],[0.36770833333333336,0.35],[0.36770833333333336,0.35],[0.36770833333333336,0.35],[0.36770833333333336,0.35],[0.36770833333333336,0.35],[0.36770833333333336,0.35],[0.36770833333333336,0.35],[0.36770833333333336,0.35],[0.36770833333333336,0.35],[0.36770833333333336,0.35],[0.36770833333333336,0.35],[0.36770833333333336,0.35],[0.365625,0.35],[0.365625,0.35],[0.365625,0.35],[0.365625,0.35],[0.365625,0.35],[0.365625,0.35],[0.365625,0.35],[0.365625,0.35],[0.365625,0.35],[0.365625,0.35],[0.365625,0.35],[0.365625,0.35],[0.365625,0.35],[0.365625,0.35],[0.365625,0.35],[0.365625,0.35],[0.365625,0.35],[0.365625,0.35],[0.365625,0.35],[0.365625,0.35],[0.365625,0.35],[0.365625,0.35],[0.365625,0.35],[0.365625,0.35],[0.365625,0.35],[0.365625,0.35],[0.365625,0.35],[0.365625,0.35],[0.365625,0.35],[0.365625,0.35],[0.365625,0.35],[0.365625,0.35],[0.365625,0.35],[0.365625,0.35],[0.365625,0.35],[0.365625,0.35],[0.365625,0.35],[0.365625,0.35],[0.365625,0.35],[0.365625,0.35],[0.365625,0.35],[0.365625,0.35],[0.365625,0.35],[0.365625,0.35],[0.365625,0.35],[0.365625,0.35],[0.365625,0.35],[0.365625,0.35],[0.365625,0.35],[0.365625,0.35],[0.365625,0.35],[0.365625,0.35],[0.365625,0.35],[0.365625,0.35],[0.365625,0.35],[0.365625,0.35],[0.365625,0.35],[0.365625,0.35],[0.365625,0.35],[0.365625,0.35],[0.365625,0.35],[0.365625,0.35],[0.365625,0.35],[0.365625,0.35],[0.365625,0.35],[0.365625,0.35],[0.365625,0.35],[0.365625,0.35],[0.365625,0.35],[0.365625,0.35],[0.365625,0.35],[0.365625,0.35],[0.365625,0.35],[0.365625,0.35],[0.365625,0.35],[0.365625,0.35],[0.365625,0.35],[0.365625,0.35],[0.365625,0.35],[0.365625,0.35],[0.365625,0.35],[0.365625,0.35],[0.365625,0.35],[0.365625,0.35],[0.365625,0.35],[0.365625,0.35],[0.365625,0.35],[0.365625,0.35],[0.365625,0.35],[0.365625,0.35],[0.365625,0.35],[0.365625,0.35],[0.365625,0.35],[0.365625,0.35],[0.365625,0.35],[0.365625,0.35],[0.365625,0.35],[0.365625,0.35],[0.365625,0.35],[0.365625,0.35],[0.365625,0.35],[0.365625,0.35],[0.365625,0.35],[0.365625,0.35],[0.365625,0.35],[0.365625,0.35],[0.365625,0.35],[0.365625,0.35],[0.365625,0.35],[0.365625,0.35],[0.365625,0.35],[0.365625,0.35],[0.365625,0.35],[0.365625,0.35],[0.365625,0.35],[0.365625,0.35],[0.365625,0.35],[0.365625,0.35],[0.365625,0.35],[0.365625,0.35],[0.365625,0.35],[0.365625,0.35],[0.365625,0.35],[0.365625,0.35],[0.365625,0.35],[0.365625,0.35],[0.365625,0.35],[0.365625,0.35],[0.365625,0.35],[0.365625,0.35],[0.365625,0.35],[0.365625,0.35],[0.365625,0.35],[0.365625,0.35],[0.365625,0.35],[0.365625,0.35],[0.365625,0.35],[0.365625,0.35],[0.365625,0.35],[0.365625,0.35],[0.365625,0.35],[0.365625,0.35],[0.365625,0.35],[0.365625,0.35],[0.365625,0.35],[0.365625,0.35],[0.365625,0.35],[0.365625,0.35],[0.365625,0.35],[0.365625,0.35],[0.365625,0.35],[0.365625,0.35],[0.365625,0.35],[0.365625,0.35],[0.365625,0.35],[0.365625,0.35],[0.365625,0.35],[0.365625,0.35],[0.365625,0.35],[0.365625,0.35],[0.365625,0.35],[0.365625,0.35],[0.365625,0.35],[0.365625,0.35],[0.3645833333333333,0.35],[0.35625,0.35],[0.340625,0.34814814814814815],[0.325,0.34444444444444444],[0.30625,0.3388888888888889],[0.290625,0.3351851851851852],[0.278125,0.3314814814814815],[0.26458333333333334,0.3296296296296296],[0.24791666666666667,0.3277777777777778],[0.22604166666666667,0.32222222222222224],[0.19791666666666666,0.32222222222222224],[0.17291666666666666,0.31851851851851853],[0.14791666666666667,0.31666666666666665],[0.125,0.31666666666666665],[0.12083333333333333,0.31666666666666665],[0.12083333333333333,0.31666666666666665],[0.12083333333333333,0.31666666666666665],[0.121875,0.31666666666666665],[0.13020833333333334,0.31666666666666665],[0.14270833333333333,0.31666666666666665],[0.159375,0.31666666666666665],[0.18333333333333332,0.31666666666666665],[0.20833333333333334,0.31666666666666665],[0.23229166666666667,0.31666666666666665],[0.25625,0.31666666666666665],[0.2947916666666667,0.31666666666666665],[0.31875,0.31666666666666665],[0.33958333333333335,0.31666666666666665],[0.35625,0.31666666666666665],[0.36354166666666665,0.31666666666666665],[0.36770833333333336,0.31666666666666665],[0.36875,0.31666666666666665],[0.36875,0.31666666666666665],[0.36875,0.31666666666666665],[0.36875,0.31666666666666665],[0.36875,0.31666666666666665],[0.36875,0.31666666666666665],[0.36875,0.31666666666666665],[0.36875,0.31666666666666665],[0.36875,0.31666666666666665],[0.36875,0.31851851851851853],[0.3645833333333333,0.31851851851851853],[0.359375,0.31851851851851853],[0.353125,0.32037037037037036],[0.35104166666666664,0.32037037037037036],[0.3489583333333333,0.32037037037037036],[0.34791666666666665,0.32037037037037036],[0.34791666666666665,0.32222222222222224],[0.346875,0.32222222222222224],[0.346875,0.32222222222222224],[0.346875,0.32222222222222224],[0.346875,0.32222222222222224],[0.346875,0.32222222222222224],[0.346875,0.32222222222222224],[0.346875,0.32222222222222224],[0.346875,0.32222222222222224],[0.346875,0.32222222222222224],[0.346875,0.32222222222222224],[0.346875,0.32222222222222224],[0.346875,0.32222222222222224],[0.346875,0.32222222222222224],[0.346875,0.32222222222222224],[0.346875,0.32222222222222224],[0.346875,0.32222222222222224],[0.346875,0.32222222222222224],[0.34270833333333334,0.32222222222222224],[0.3260416666666667,0.32222222222222224],[0.2989583333333333,0.32222222222222224],[0.24375,0.32222222222222224],[0.20416666666666666,0.32222222222222224],[0.18958333333333333,0.32222222222222224],[0.18958333333333333,0.32222222222222224],[0.15729166666666666,0.32222222222222224],[0.10625,0.32222222222222224],[0.07395833333333333,0.32222222222222224],[0.05,0.32222222222222224],[0.03125,0.32222222222222224],[0.023958333333333335,0.32222222222222224],[0.021875,0.32222222222222224],[0.021875,0.32222222222222224],[0.021875,0.32222222222222224],[0.021875,0.32222222222222224],[0.021875,0.32222222222222224],[0.021875,0.32222222222222224],[0.021875,0.32222222222222224],[0.025,0.32222222222222224],[0.036458333333333336,0.32407407407407407],[0.06145833333333333,0.32407407407407407],[0.09895833333333333,0.32407407407407407],[0.14791666666666667,0.3277777777777778],[0.20833333333333334,0.3277777777777778],[0.25625,0.3277777777777778],[0.3072916666666667,0.3277777777777778],[0.31666666666666665,0.3277777777777778],[0.33125,0.3277777777777778],[0.33645833333333336,0.3277777777777778],[0.3375,0.3277777777777778],[0.3375,0.3277777777777778],[0.3375,0.3277777777777778],[0.3375,0.3277777777777778],[0.3385416666666667,0.3277777777777778],[0.3385416666666667,0.3277777777777778],[0.3385416666666667,0.3277777777777778],[0.3385416666666667,0.3277777777777778],[0.3385416666666667,0.3277777777777778],[0.3385416666666667,0.3277777777777778],[0.3385416666666667,0.3277777777777778],[0.3385416666666667,0.3277777777777778],[0.3385416666666667,0.3277777777777778],[0.3385416666666667,0.3277777777777778],[0.3385416666666667,0.3277777777777778],[0.3385416666666667,0.3277777777777778],[0.3385416666666667,0.3277777777777778],[0.3385416666666667,0.3277777777777778],[0.3385416666666667,0.3277777777777778],[0.3385416666666667,0.3277777777777778],[0.3385416666666667,0.3277777777777778],[0.3385416666666667,0.3277777777777778],[0.3385416666666667,0.3277777777777778],[0.3385416666666667,0.3277777777777778],[0.3385416666666667,0.3277777777777778],[0.3385416666666667,0.3277777777777778],[0.3385416666666667,0.3277777777777778],[0.3385416666666667,0.3277777777777778],[0.3385416666666667,0.3277777777777778],[0.33958333333333335,0.3296296296296296],[0.340625,0.3296296296296296],[0.340625,0.3314814814814815],[0.340625,0.3314814814814815],[0.3416666666666667,0.3314814814814815],[0.3416666666666667,0.3314814814814815],[0.3416666666666667,0.3333333333333333],[0.3416666666666667,0.3333333333333333],[0.3416666666666667,0.3333333333333333],[0.3416666666666667,0.3333333333333333],[0.3416666666666667,0.3333333333333333],[0.3416666666666667,0.3333333333333333],[0.3416666666666667,0.3333333333333333],[0.3416666666666667,0.3333333333333333],[0.3416666666666667,0.3333333333333333],[0.3416666666666667,0.3333333333333333],[0.3416666666666667,0.3333333333333333],[0.3416666666666667,0.3333333333333333],[0.3416666666666667,0.3333333333333333],[0.3416666666666667,0.3333333333333333],[0.3416666666666667,0.3333333333333333],[0.3416666666666667,0.3333333333333333],[0.3416666666666667,0.3333333333333333],[0.3416666666666667,0.3333333333333333],[0.3416666666666667,0.3333333333333333],[0.3416666666666667,0.3333333333333333],[0.3416666666666667,0.3333333333333333],[0.3416666666666667,0.3333333333333333],[0.3416666666666667,0.3333333333333333],[0.3416666666666667,0.3333333333333333],[0.3416666666666667,0.3333333333333333],[0.3416666666666667,0.3333333333333333],[0.3416666666666667,0.3333333333333333],[0.3416666666666667,0.3333333333333333],[0.3416666666666667,0.3333333333333333],[0.3416666666666667,0.3333333333333333],[0.3416666666666667,0.3333333333333333],[0.3416666666666667,0.3333333333333333],[0.3416666666666667,0.3333333333333333],[0.3416666666666667,0.3333333333333333],[0.3416666666666667,0.3333333333333333],[0.3416666666666667,0.3333333333333333],[0.3416666666666667,0.3333333333333333],[0.3416666666666667,0.3333333333333333],[0.3416666666666667,0.3333333333333333],[0.3416666666666667,0.3333333333333333],[0.3416666666666667,0.3333333333333333],[0.3416666666666667,0.3333333333333333],[0.3416666666666667,0.3333333333333333],[0.3416666666666667,0.3333333333333333],[0.3416666666666667,0.3333333333333333],[0.3416666666666667,0.3333333333333333],[0.3416666666666667,0.3333333333333333],[0.3416666666666667,0.3333333333333333],[0.3416666666666667,0.3333333333333333],[0.3416666666666667,0.3333333333333333],[0.3416666666666667,0.3333333333333333],[0.3416666666666667,0.3425925925925926],[0.3416666666666667,0.34629629629629627],[0.3416666666666667,0.34814814814814815],[0.3416666666666667,0.34814814814814815],[0.3416666666666667,0.34814814814814815],[0.3416666666666667,0.34814814814814815],[0.3416666666666667,0.34814814814814815],[0.3416666666666667,0.34814814814814815],[0.3416666666666667,0.34814814814814815],[0.3416666666666667,0.34814814814814815],[0.3416666666666667,0.34814814814814815],[0.3416666666666667,0.34814814814814815],[0.3416666666666667,0.34814814814814815],[0.3416666666666667,0.34814814814814815],[0.3416666666666667,0.34814814814814815],[0.3416666666666667,0.34814814814814815],[0.3416666666666667,0.34814814814814815],[0.3416666666666667,0.34814814814814815],[0.3416666666666667,0.34814814814814815],[0.3416666666666667,0.34814814814814815],[0.3416666666666667,0.34814814814814815],[0.3416666666666667,0.34814814814814815],[0.3416666666666667,0.34814814814814815],[0.3416666666666667,0.34814814814814815],[0.3416666666666667,0.34814814814814815],[0.3416666666666667,0.34814814814814815],[0.3416666666666667,0.34814814814814815],[0.3416666666666667,0.34814814814814815],[0.3416666666666667,0.34814814814814815],[0.3416666666666667,0.34814814814814815],[0.3416666666666667,0.34814814814814815],[0.3416666666666667,0.34814814814814815],[0.3416666666666667,0.34814814814814815],[0.3416666666666667,0.34814814814814815],[0.3416666666666667,0.34814814814814815],[0.3416666666666667,0.34814814814814815],[0.3416666666666667,0.34814814814814815],[0.3416666666666667,0.34814814814814815],[0.3416666666666667,0.34814814814814815],[0.3416666666666667,0.34814814814814815],[0.3416666666666667,0.34814814814814815],[0.3416666666666667,0.34814814814814815],[0.3416666666666667,0.34814814814814815],[0.3416666666666667,0.34814814814814815],[0.3416666666666667,0.35],[0.3416666666666667,0.35],[0.3416666666666667,0.35],[0.3416666666666667,0.35],[0.3416666666666667,0.35],[0.3416666666666667,0.35],[0.3416666666666667,0.35],[0.3416666666666667,0.35],[0.3416666666666667,0.35],[0.3416666666666667,0.35],[0.3416666666666667,0.35],[0.3416666666666667,0.35],[0.3416666666666667,0.35],[0.3416666666666667,0.35],[0.3416666666666667,0.35],[0.3416666666666667,0.35],[0.3416666666666667,0.35],[0.3416666666666667,0.35],[0.3416666666666667,0.35],[0.3416666666666667,0.35],[0.3416666666666667,0.35],[0.3416666666666667,0.35],[0.3416666666666667,0.35],[0.3416666666666667,0.35],[0.3416666666666667,0.35],[0.3416666666666667,0.35]]","[[0.2808333333333332,0.0242592592592593],[0.27072916666666674,0.007777777777777862],[0.27072916666666674,0.007777777777777862],[0.20895833333333325,-0.047037037037036995],[0.22447916666666667,-0.06462962962962959],[0.24270833333333333,-0.09500000000000001],[0.13916666666666658,-0.12018518518518514],[0.057604166666666616,-0.11777777777777781],[-0.009583333333333381,-0.0883333333333333],[-0.008437500000000023,-0.09444444444444444],[0.01593749999999995,-0.03370370370370379],[0.04479166666666667,-0.018333333333333292],[0.07593750000000009,-0.004259259259259175],[0.10750000000000005,0.03518518518518519],[0.0900000000000001,0.0794444444444444],[0.052291666666666715,0.13740740740740748],[0.10281250000000004,0.18555555555555564],[0.15270833333333325,0.20166666666666663],[0.2263541666666666,0.21999999999999992],[0.18114583333333342,0.22111111111111106],[0.18114583333333342,0.22111111111111106],[0.10864583333333329,0.20314814814814824],[0.10864583333333329,0.20314814814814824],[0.071875,0.21333333333333343],[0.071875,0.21333333333333343],[0.005312500000000024,0.21666666666666667],[0.005312500000000024,0.21666666666666667],[0.013645833333333357,0.19425925925925921],[0.013645833333333357,0.19425925925925921],[-0.007395833333333357,0.15111111111111114],[-0.007395833333333357,0.15111111111111114],[0.000833333333333286,0.09944444444444453],[0.000833333333333286,0.09944444444444453],[0.000833333333333286,0.09944444444444453],[0.000833333333333286,0.09944444444444453],[-0.0203125,0.0787037037037037],[-0.0203125,0.0787037037037037],[-0.01604166666666664,0.02092592592592584],[-0.01604166666666664,0.02092592592592584],[-0.029895833333333382,0.014629629629629588],[-0.029895833333333382,0.014629629629629588],[-0.0171875,-0.06518518518518517],[-0.0171875,-0.06518518518518517],[-0.003333333333333381,-0.0977777777777778],[-0.003333333333333381,-0.0977777777777778],[0.04093749999999995,-0.12833333333333335],[0.04093749999999995,-0.12833333333333335],[0.01875,-0.1609259259259259],[0.01875,-0.1609259259259259],[-0.07010416666666662,-0.15462962962962962],[-0.07010416666666662,-0.15462962962962962],[-0.07291666666666667,-0.16629629629629633],[-0.07291666666666667,-0.16629629629629633],[-0.13374999999999998,-0.16814814814814816],[-0.13374999999999998,-0.16814814814814816],[-0.08677083333333328,-0.19870370370370372],[-0.08677083333333328,-0.19870370370370372],[-0.08677083333333328,-0.19870370370370372],[-0.08677083333333328,-0.19870370370370372],[-0.10864583333333329,-0.17444444444444443],[-0.10864583333333329,-0.17444444444444443],[-0.11593749999999996,-0.18499999999999997],[-0.11593749999999996,-0.18499999999999997],[-0.11593749999999996,-0.18499999999999997],[-0.11593749999999996,-0.18499999999999997],[-0.13947916666666665,-0.1418518518518519],[-0.13947916666666665,-0.1418518518518519],[-0.15062500000000004,-0.12851851851851848],[-0.15062500000000004,-0.12851851851851848],[-0.1608333333333333,-0.13240740740740742],[-0.1608333333333333,-0.13240740740740742],[-0.13500000000000004,-0.1507407407407407],[-0.13500000000000004,-0.1507407407407407],[-0.09166666666666666,-0.16814814814814816],[-0.09166666666666666,-0.16814814814814816],[-0.12697916666666664,-0.16203703703703703],[-0.12697916666666664,-0.16203703703703703],[-0.08270833333333331,-0.17888888888888893],[-0.08270833333333331,-0.17888888888888893],[-0.15395833333333328,-0.16796296296296295],[-0.15395833333333328,-0.16796296296296295],[-0.13156249999999994,-0.12907407407407406],[-0.13156249999999994,-0.12907407407407406],[-0.14885416666666665,-0.1242592592592593],[-0.14885416666666665,-0.1242592592592593],[-0.15343749999999995,-0.1388888888888889],[-0.15343749999999995,-0.1388888888888889],[-0.15343749999999995,-0.1388888888888889],[-0.15343749999999995,-0.1388888888888889],[-0.15052083333333333,-0.13648148148148145],[-0.15052083333333333,-0.13648148148148145],[-0.20604166666666662,-0.1368518518518518],[-0.20604166666666662,-0.1368518518518518],[-0.20604166666666662,-0.1368518518518518],[-0.20604166666666662,-0.1368518518518518],[-0.2015625,-0.11037037037037041],[-0.2015625,-0.11037037037037041],[-0.20260416666666667,-0.08222222222222218],[-0.20260416666666667,-0.08222222222222218],[-0.19333333333333336,-0.046481481481481526],[-0.19333333333333336,-0.046481481481481526],[-0.23322916666666665,-0.005740740740740783],[-0.23322916666666665,-0.005740740740740783],[-0.184375,-0.012407407407407492],[-0.184375,-0.012407407407407492],[-0.20739583333333336,-0.04740740740740745],[-0.20739583333333336,-0.04740740740740745],[-0.21135416666666665,-0.058333333333333334],[-0.21135416666666665,-0.058333333333333334],[-0.1970833333333334,-0.026666666666666623],[-0.1970833333333334,-0.026666666666666623],[-0.1970833333333334,-0.026666666666666623],[-0.1820833333333333,-0.016666666666666666],[-0.1820833333333333,-0.016666666666666666],[-0.14104166666666665,-0.007962962962962878],[-0.14104166666666665,-0.007962962962962878],[-0.10177083333333338,0.03722222222222227],[-0.10177083333333338,0.03722222222222227],[-0.09020833333333336,0.0035185185185184764],[-0.09020833333333336,0.0035185185185184764],[-0.051874999999999956,0.006111111111111027],[-0.051874999999999956,0.006111111111111027],[-0.010520833333333358,0.015000000000000043],[-0.010520833333333358,0.015000000000000043],[-0.025729166666666713,-0.01055555555555564],[-0.025729166666666713,-0.01055555555555564],[-0.025312499999999953,0.03944444444444436],[-0.025312499999999953,0.03944444444444436],[-0.024479166666666666,0.08055555555555556],[-0.024479166666666666,0.08055555555555556],[-0.015208333333333357,0.056296296296296254],[-0.015208333333333357,0.056296296296296254],[-0.01906249999999995,0.025370370370370456],[-0.01906249999999995,0.025370370370370456],[-0.025520833333333333,0.015370370370370286],[-0.025520833333333333,0.015370370370370286],[-0.009375,-0.03851851851851843],[-0.009375,-0.03851851851851843],[-0.004375000000000047,-0.021851851851851768],[-0.004375000000000047,-0.021851851851851768],[-0.010104166666666714,-0.0003703703703704546],[-0.010104166666666714,-0.0003703703703704546],[-0.02958333333333331,-0.01629629629629621],[-0.02958333333333331,-0.01629629629629621],[-0.07385416666666664,0.02962962962962963],[-0.07385416666666664,0.02962962962962963],[-0.08302083333333338,-0.009999999999999959],[-0.08302083333333338,-0.009999999999999959],[-0.10770833333333331,-0.03148148148148148],[-0.10770833333333331,-0.03148148148148148],[-0.13031250000000003,0.005555555555555556],[-0.13031250000000003,0.005555555555555556],[-0.1476041666666667,0.032037037037036954],[-0.1476041666666667,0.032037037037036954],[-0.1710416666666667,0.03037037037037033],[-0.1710416666666667,0.03037037037037033],[-0.22989583333333338,0.07370370370370362],[-0.22989583333333338,0.07370370370370362],[-0.2564583333333334,0.0838888888888888],[-0.2564583333333334,0.0838888888888888],[-0.2856250000000001,0.06796296296296304],[-0.2856250000000001,0.06796296296296304],[-0.2864583333333333,0.08185185185185194],[-0.2864583333333333,0.08185185185185194],[-0.2819791666666667,0.11166666666666658],[-0.2819791666666667,0.11166666666666658],[-0.34312499999999996,0.14907407407407408],[-0.34312499999999996,0.14907407407407408],[-0.33187500000000003,0.15907407407407403],[-0.33187500000000003,0.15907407407407403],[-0.32145833333333335,0.18592592592592588],[-0.32145833333333335,0.18592592592592588],[-0.30447916666666663,0.18277777777777787],[-0.30447916666666663,0.18277777777777787],[-0.274375,0.1925925925925926],[-0.274375,0.1925925925925926],[-0.24145833333333327,0.175],[-0.24145833333333327,0.175],[-0.23187500000000003,0.17185185185185176],[-0.23187500000000003,0.17185185185185176],[-0.21000000000000002,0.1507407407407407],[-0.21000000000000002,0.1507407407407407],[-0.17906249999999999,0.1492592592592593],[-0.17906249999999999,0.1492592592592593],[-0.153125,0.11925925925925922],[-0.153125,0.11925925925925922],[-0.07583333333333328,0.09518518518518514],[-0.07583333333333328,0.09518518518518514],[-0.03104166666666662,0.08277777777777787],[-0.03104166666666662,0.08277777777777787],[0.012083333333333357,0.032407407407407406],[0.012083333333333357,0.032407407407407406],[-0.0015625,0.028703703703703703],[-0.0015625,0.028703703703703703],[0.0007291666666667141,0.027407407407407325],[0.0007291666666667141,0.027407407407407325],[0.011354166666666643,0.020740740740740823],[0.011354166666666643,0.020740740740740823],[-0.0048958333333333805,-0.022592592592592678],[-0.0048958333333333805,-0.022592592592592678],[-0.0048958333333333805,-0.022592592592592678],[-0.0048958333333333805,-0.022592592592592678],[-0.029791666666666692,-0.002777777777777778],[-0.029791666666666692,-0.002777777777777778],[-0.05645833333333338,-0.01907407407407399],[-0.05645833333333338,-0.01907407407407399],[-0.06666666666666667,-0.03166666666666671],[-0.06666666666666667,-0.03166666666666671],[-0.08239583333333336,-0.06833333333333329],[-0.08239583333333336,-0.06833333333333329],[-0.09770833333333329,-0.12111111111111107],[-0.09770833333333329,-0.12111111111111107],[-0.12124999999999998,-0.14833333333333337],[-0.12124999999999998,-0.14833333333333337],[-0.10833333333333334,-0.18462962962962962],[-0.10833333333333334,-0.18462962962962962],[-0.11854166666666661,-0.20629629629629626],[-0.11854166666666661,-0.20629629629629626],[-0.11979166666666667,-0.22629629629629627],[-0.11979166666666667,-0.22629629629629627],[-0.05260416666666667,-0.19740740740740745],[-0.05260416666666667,-0.19740740740740745],[0.01604166666666664,-0.21185185185185182],[0.01604166666666664,-0.21185185185185182],[0.01604166666666664,-0.21185185185185182],[0.01604166666666664,-0.21185185185185182],[0.08635416666666676,-0.23629629629629634],[0.08635416666666676,-0.23629629629629634],[0.1234375,-0.21444444444444447],[0.1234375,-0.21444444444444447],[0.16124999999999995,-0.18833333333333332],[0.16124999999999995,-0.18833333333333332],[0.17541666666666675,-0.11740740740740736],[0.17541666666666675,-0.11740740740740736],[0.2040625000000001,-0.10574074074074079],[0.2040625000000001,-0.10574074074074079],[0.240625,-0.07444444444444442],[0.240625,-0.07444444444444442],[0.240625,-0.07444444444444442],[0.240625,-0.07444444444444442],[0.26749999999999996,-0.051111111111111156],[0.26749999999999996,-0.051111111111111156],[0.23156249999999995,-0.022037037037036994],[0.23156249999999995,-0.022037037037036994],[0.1875,0.014259259259259343],[0.1875,0.014259259259259343],[0.1875,0.014259259259259343],[0.1875,0.014259259259259343],[0.1515625,-0.009629629629629714],[0.1515625,-0.009629629629629714],[0.08760416666666657,0.017592592592592594],[0.08760416666666657,0.017592592592592594],[0.09385416666666657,0.06018518518518518],[0.09385416666666657,0.06018518518518518],[0.049270833333333285,0.11092592592592589],[0.049270833333333285,0.11092592592592589],[0.03270833333333331,0.08518518518518518],[0.03270833333333331,0.08518518518518518],[0.015416666666666618,0.1301851851851851],[0.015416666666666618,0.1301851851851851],[-0.008229166666666643,0.15166666666666662],[-0.008229166666666643,0.15166666666666662],[-0.01270833333333338,0.17092592592592584],[-0.01270833333333338,0.17092592592592584],[-0.024166666666666715,0.16777777777777783],[-0.024166666666666715,0.16777777777777783],[-0.014374999999999952,0.16833333333333328],[-0.014374999999999952,0.16833333333333328],[-0.01114583333333338,0.21648148148148144],[0.0013541666666666192,0.26481481481481484],[-0.013333333333333286,0.25999999999999995],[0.03208333333333328,0.23574074074074067],[0.03177083333333333,0.2646296296296296],[0.03083333333333336,0.256111111111111],[0.04583333333333333,0.23796296296296296],[0.04020833333333336,0.23870370370370367],[0.08312499999999995,0.2548148148148149],[0.09760416666666671,0.22962962962962963],[0.10281250000000004,0.21129629629629634],[0.10822916666666677,0.18870370370370365],[0.08364583333333328,0.16888888888888898],[0.06020833333333329,0.17240740740740745],[0.05010416666666669,0.1551851851851851],[0.030729166666666665,0.1655555555555555],[0.02385416666666664,0.15851851851851856],[0.007500000000000047,0.152962962962963],[-0.030312500000000023,0.1566666666666667],[-0.03239583333333336,0.16703703703703712],[-0.03239583333333336,0.2433333333333333],[-0.03864583333333336,0.2205555555555556],[-0.00947916666666669,0.11222222222222226],[0.04562499999999995,-0.022592592592592678],[0.04791666666666667,-0.11203703703703703],[0.05145833333333331,-0.21296296296296297],[0.05145833333333331,-0.21296296296296297],[0.058541666666666714,-0.34],[0.06083333333333331,-0.41629629629629633],[0.06083333333333331,-0.41629629629629633],[0.13166666666666677,-0.4427777777777778],[0.17697916666666677,-0.5114814814814814],[0.253125,-0.6377777777777778],[0.31281249999999994,-0.6416666666666667],[0.35812499999999997,-0.554074074074074],[0.3945833333333333,-0.4281481481481481],[0.4478125000000001,-0.3025925925925925],[0.5136458333333332,-0.18666666666666668],[0.5627083333333334,0.02444444444444453],[0.6213541666666667,0.1766666666666666],[0.6445833333333333,0.2975925925925927],[0.6579166666666666,0.4742592592592593],[0.6029166666666667,0.5631481481481482],[0.5915625000000001,0.6188888888888889],[0.6054166666666667,0.6918518518518519],[0.5368750000000001,0.6842592592592592],[0.5364583333333334,0.6609259259259259],[0.4704166666666666,0.6987037037037036],[0.4015625,0.6518518518518519],[0.34572916666666675,0.5829629629629629],[0.2782291666666666,0.48629629629629634],[0.23635416666666675,0.37240740740740746],[0.22989583333333338,0.33796296296296297],[0.21708333333333343,0.26444444444444437],[0.1790625000000001,0.1737037037037036],[0.18406250000000005,0.2301851851851851],[0.1678124999999999,0.24259259259259258],[0.19656250000000006,0.22111111111111106],[0.24885416666666677,0.22351851851851862],[0.3180208333333333,0.24888888888888885],[0.3460416666666667,0.27907407407407414],[0.3478125000000001,0.319074074074074],[0.3297916666666666,0.4338888888888888],[0.30437500000000006,0.5942592592592593],[0.2764583333333334,0.7585185185185186],[0.2476041666666667,0.8109259259259259],[0.22395833333333334,0.8681481481481481],[0.20833333333333334,0.9077777777777779],[0.16541666666666663,0.9338888888888888],[0.10322916666666657,0.949814814814815],[0.08770833333333337,0.963148148148148],[0.06875,0.9887037037037039],[0.10593750000000005,0.9053703703703705],[0.10250000000000009,0.8803703703703704],[0.15093750000000009,0.8027777777777778],[0.17999999999999997,0.7564814814814815],[0.1962500000000001,0.7331481481481481],[0.21916666666666676,0.7314814814814815],[0.22354166666666658,0.7775925925925925],[0.24166666666666667,0.8337037037037038],[0.24989583333333343,0.8888888888888888],[0.24145833333333327,0.911851851851852],[0.19666666666666663,0.968888888888889],[0.18166666666666675,0.9737037037037036],[0.16041666666666668,1.0135185185185185],[0.13916666666666658,1.0962962962962963],[0.11979166666666667,1.1779629629629629],[0.10968749999999995,1.2116666666666667],[0.10718750000000009,1.2162962962962962],[0.10020833333333339,1.2149999999999999],[0.11645833333333329,1.1577777777777778],[0.1453125,1.113888888888889],[0.1460416666666667,1.0262962962962965],[0.1609375,0.9196296296296295],[0.15583333333333324,0.7548148148148148],[0.17479166666666662,0.5448148148148149],[0.23541666666666666,0.29148148148148145],[0.290625,0.07444444444444454],[0.3603125000000001,-0.13277777777777774],[0.43635416666666677,-0.3587037037037037],[0.4935416666666666,-0.53],[0.5168750000000001,-0.7375925925925926],[0.5745833333333332,-0.8737037037037038],[0.5429166666666667,-0.917037037037037],[0.509375,-0.8496296296296296],[0.4678124999999999,-0.7842592592592592],[0.3558333333333332,-0.6948148148148148],[0.23333333333333334,-0.6153703703703703],[0.1375,-0.537962962962963],[0.007708333333333309,-0.4507407407407407],[0.007708333333333309,-0.4507407407407407],[-0.10093749999999997,-0.38870370370370366],[-0.10093749999999997,-0.38870370370370366],[-0.17197916666666668,-0.26055555555555554],[-0.17197916666666668,-0.26055555555555554],[-0.2521875,-0.1948148148148148],[-0.2521875,-0.1948148148148148],[-0.2522916666666667,-0.25333333333333335],[-0.26843750000000005,-0.29611111111111105],[-0.26843750000000005,-0.29611111111111105],[-0.2765625,-0.3368518518518518],[-0.2616666666666667,-0.3492592592592593],[-0.2467708333333333,-0.3616666666666667],[-0.2626041666666667,-0.32759259259259255],[-0.2601041666666667,-0.2887037037037037],[-0.24906250000000002,-0.25259259259259254],[-0.23427083333333332,-0.23962962962962958],[-0.19416666666666665,-0.17111111111111107],[-0.13958333333333334,-0.06481481481481481],[-0.12135416666666667,-0.012407407407407492],[-0.08093750000000005,0.018703703703703747],[-0.052083333333333336,0.0448148148148149],[-0.014479166666666644,0.07185185185185176],[0.04572916666666664,-0.014629629629629588],[0.07833333333333338,-0.11703703703703702],[0.11541666666666663,-0.17259259259259258],[0.11427083333333338,-0.17537037037037034],[0.09489583333333323,-0.20685185185185184],[0.08666666666666671,-0.2270370370370371],[0.11583333333333339,-0.26370370370370366],[0.1414583333333333,-0.2994444444444444],[0.15208333333333332,-0.2929629629629629],[0.1875,-0.257962962962963],[0.20437500000000006,-0.15388888888888894],[0.2146874999999999,-0.10314814814814813],[0.18895833333333342,-0.09092592592592597],[0.20145833333333343,-0.13148148148148148],[0.2015625,-0.14500000000000002],[0.19864583333333338,-0.13962962962962958],[0.17645833333333344,-0.14814814814814814],[0.10989583333333333,-0.1816666666666667],[0.08447916666666658,-0.3074074074074074],[0.05770833333333331,-0.42370370370370375],[0.024583333333333356,-0.5361111111111111],[0.025625000000000023,-0.5792592592592593],[0.03093750000000005,-0.5381481481481482],[0.019791666666666666,-0.4609259259259259],[0.019791666666666666,-0.4609259259259259],[0.016875000000000046,-0.402962962962963],[0.016875000000000046,-0.402962962962963],[0.019166666666666644,-0.38851851851851854],[0.04895833333333333,-0.34148148148148144],[0.13583333333333342,-0.28722222222222227],[0.1556250000000001,-0.16222222222222227],[0.1599999999999999,-0.08111111111111113],[0.1622916666666666,0.022592592592592678],[0.1609375,0.1259259259259259],[0.1571875000000001,0.1646296296296296],[0.15510416666666677,0.13481481481481472],[0.15302083333333344,0.10500000000000008],[0.13239583333333324,0.08222222222222218],[0.12531249999999997,0.07444444444444454],[0.08687500000000009,0.10481481481481486],[0.1056250000000001,0.09870370370370361],[0.10760416666666663,0.09759259259259268],[0.12489583333333343,0.026111111111111154],[0.14583333333333334,-0.044999999999999915],[0.1493750000000001,-0.05796296296296299],[0.16770833333333332,-0.03851851851851843],[0.1883333333333333,-0.0448148148148149],[0.20895833333333325,-0.051111111111111156],[0.17114583333333327,-0.05129629629629638],[0.11749999999999995,-0.05092592592592592],[0.06302083333333333,-0.03777777777777774],[0.06604166666666664,-0.06148148148148146],[0.06239583333333331,-0.044444444444444446],[0.027604166666666666,-0.027777777777777776],[-0.0032291666666666905,-0.08370370370370368],[-0.029166666666666667,-0.09740740740740746],[-0.057395833333333354,-0.08537037037037042],[-0.06749999999999995,-0.08814814814814818],[-0.04718749999999995,-0.11500000000000005],[-0.011562500000000024,-0.13555555555555554],[0.01395833333333331,-0.1522222222222222],[-0.018020833333333285,-0.13203703703703706],[-0.0625,-0.13407407407407404],[-0.07437499999999998,-0.14055555555555552],[-0.08260416666666662,-0.06166666666666669],[-0.09572916666666664,-0.025],[-0.12302083333333336,0.0016666666666666245],[-0.16843750000000005,0.04314814814814806],[-0.18395833333333336,0.08814814814814818],[-0.19895833333333332,0.12629629629629638],[-0.19458333333333327,0.11518518518518527],[-0.19020833333333337,0.10407407407407415],[-0.16437499999999997,0.1124074074074075],[-0.12416666666666672,0.11814814814814806],[-0.07416666666666671,0.052962962962963],[-0.07083333333333333,-0.021481481481481525],[-0.05166666666666669,-0.07759259259259255],[-0.07604166666666666,-0.06425925925925924],[-0.11937500000000002,-0.05925925925925926],[-0.14583333333333334,-0.06185185185185181],[-0.18156249999999996,-0.01907407407407399],[-0.18166666666666664,0.015000000000000043],[-0.19093749999999995,0.055000000000000084],[-0.20822916666666663,0.15],[-0.24812500000000004,0.225],[-0.21875,0.3292592592592592],[-0.23500000000000001,0.4083333333333333],[-0.2077083333333333,0.41796296296296304],[-0.15437500000000004,0.39574074074074084],[-0.12614583333333335,0.36814814814814806],[-0.05291666666666662,0.2833333333333333],[-0.04802083333333336,0.22555555555555548],[-0.040625,0.1838888888888888],[-0.035625000000000046,0.0985185185185186],[-0.024479166666666666,0.03981481481481482],[-0.026979166666666644,-0.036481481481481566],[-0.026979166666666644,-0.036481481481481566],[0.04583333333333333,-0.12111111111111107],[0.04583333333333333,-0.12111111111111107],[0.12218749999999995,-0.22740740740740742],[0.12218749999999995,-0.22740740740740742],[0.1586458333333333,-0.29907407407407405],[0.1586458333333333,-0.29907407407407405],[0.19968750000000005,-0.3442592592592592],[0.19968750000000005,-0.3442592592592592],[0.21260416666666657,-0.36370370370370364],[0.21260416666666657,-0.36370370370370364],[0.23739583333333342,-0.36314814814814816],[0.25125000000000003,-0.36203703703703705],[0.25968749999999996,-0.3648148148148148],[0.2881249999999999,-0.38981481481481484],[0.3095833333333334,-0.41870370370370374],[0.29739583333333336,-0.4348148148148148],[0.28854166666666664,-0.42388888888888887],[0.2769791666666668,-0.395],[0.2690624999999999,-0.37962962962962965],[0.25447916666666665,-0.3448148148148148],[0.2607291666666666,-0.3483333333333334],[0.25114583333333323,-0.36444444444444446],[0.2415625000000001,-0.38055555555555554],[0.1961458333333333,-0.395],[0.19187500000000005,-0.43703703703703706],[0.1734375,-0.45870370370370367],[0.1478125000000001,-0.4403703703703704],[0.11260416666666657,-0.44888888888888884],[0.07635416666666663,-0.4883333333333333],[0.029895833333333382,-0.5157407407407407],[0.000416666666666643,-0.5453703703703704],[-0.004791666666666691,-0.5790740740740741],[-0.00635416666666669,-0.6101851851851852],[0.024374999999999977,-0.6274074074074074],[0.028854166666666715,-0.6064814814814815],[0.030312500000000023,-0.6007407407407407],[0.06052083333333336,-0.6359259259259259],[0.1203125,-0.65],[0.18114583333333342,-0.6331481481481481],[0.2263541666666666,-0.6216666666666667],[0.2537499999999999,-0.6140740740740741],[0.27468750000000003,-0.616111111111111],[0.2919791666666666,-0.6207407407407407],[0.31572916666666656,-0.5898148148148148],[0.3226041666666667,-0.5679629629629629],[0.34343750000000006,-0.577962962962963],[0.35270833333333323,-0.5644444444444444],[0.3476041666666667,-0.5611111111111111],[0.3038541666666667,-0.5657407407407408],[0.3011458333333332,-0.5505555555555556],[0.26677083333333323,-0.552962962962963],[0.2478125000000001,-0.5451851851851851],[0.23937499999999995,-0.5096296296296297],[0.22447916666666667,-0.5096296296296297],[0.22885416666666672,-0.5211111111111111],[0.23145833333333338,-0.4951851851851851],[0.14520833333333344,-0.4222222222222222],[0.10187499999999995,-0.34629629629629627],[0.11635416666666672,-0.3153703703703704],[0.10208333333333333,-0.29259259259259257],[0.1203125,-0.24611111111111106],[0.10135416666666662,-0.11444444444444446],[0.06395833333333331,0.006481481481481481],[0.04854166666666669,0.09685185185185177],[0.013854166666666619,0.19870370370370363],[0.0026041666666666665,0.2388888888888889],[0.03916666666666669,0.21740740740740735],[0.012916666666666642,0.1633333333333334],[-0.04031250000000005,0.1551851851851851],[-0.06791666666666671,0.06944444444444445],[-0.10416666666666667,-0.011111111111111112],[-0.05666666666666664,-0.18499999999999997],[-0.017083333333333308,-0.3622222222222223],[-0.011562500000000024,-0.5283333333333333],[0.00458333333333331,-0.6833333333333333],[-0.010208333333333286,-0.7711111111111111],[0.004166666666666667,-0.8703703703703703],[0.03843749999999998,-0.9400000000000001],[0.06885416666666658,-0.9962962962962963],[0.07697916666666677,-0.9812962962962962],[0.1258333333333333,-1.0155555555555555],[0.11916666666666677,-1.0422222222222222],[0.10958333333333338,-1.0438888888888889],[0.1396874999999999,-1.0387037037037037],[0.15916666666666662,-1.0446296296296296],[0.16854166666666662,-1.045],[0.17291666666666666,-1.0472222222222223],[0.1578125,-1.0418518518518518],[0.15437500000000004,-1.0427777777777778],[0.14583333333333334,-1.0342592592592592],[0.10520833333333333,-0.9816666666666667],[0.050729166666666714,-0.9377777777777777],[0.014999999999999977,-0.9325925925925926],[-0.05302083333333331,-0.9046296296296297],[-0.12104166666666671,-0.8766666666666666],[-0.14125000000000001,-0.8492592592592593],[-0.13062499999999996,-0.827962962962963],[-0.15041666666666664,-0.787962962962963],[-0.14552083333333338,-0.7687037037037038],[-0.12281249999999998,-0.7516666666666666],[-0.10604166666666662,-0.745925925925926],[-0.07541666666666665,-0.7314814814814815],[-0.05406249999999998,-0.7012962962962963],[-0.02010416666666662,-0.7240740740740741],[0.0006250000000000236,-0.6570370370370371],[-0.0036458333333333334,-0.6316666666666667],[-0.08572916666666662,-0.5859259259259259],[-0.11791666666666671,-0.5664814814814815],[-0.17479166666666662,-0.5262962962962963],[-0.23531249999999998,-0.5012962962962962],[-0.2760416666666667,-0.4742592592592593],[-0.31749999999999995,-0.492037037037037],[-0.34968750000000004,-0.5255555555555556],[-0.37833333333333335,-0.5203703703703704],[-0.40510416666666665,-0.5727777777777778],[-0.4126041666666667,-0.609074074074074],[-0.37479166666666663,-0.6729629629629629],[-0.36062500000000003,-0.7061111111111111],[-0.3607291666666666,-0.7492592592592593],[-0.3607291666666666,-0.7492592592592593],[-0.3188541666666667,-0.7587037037037037],[-0.3188541666666667,-0.7587037037037037],[-0.20812499999999995,-0.7764814814814816],[-0.20812499999999995,-0.7764814814814816],[-0.09333333333333335,-0.6892592592592592],[-0.09333333333333335,-0.6892592592592592],[0.030729166666666665,-0.5964814814814815],[0.030729166666666665,-0.5964814814814815],[0.09156250000000009,-0.48203703703703704],[0.09156250000000009,-0.48203703703703704],[0.16541666666666663,-0.37592592592592594],[0.2864583333333333,-0.2962962962962963],[0.38302083333333337,-0.20166666666666663],[0.5310416666666666,-0.1264814814814815],[0.6794791666666666,-0.04148148148148144],[0.7695833333333333,0.04518518518518514],[0.7769791666666668,0.14944444444444452],[0.7567708333333333,0.16777777777777783],[0.7528125,0.21814814814814806],[0.7782291666666665,0.24296296296296305],[0.7777083333333332,0.26648148148148143],[0.7462500000000001,0.2740740740740741],[0.7152083333333332,0.318888888888889],[0.6646874999999999,0.3387037037037037],[0.6646874999999999,0.3387037037037037],[0.6304166666666667,0.3725925925925927],[0.5372916666666666,0.35907407407407405],[0.44416666666666677,0.3455555555555556],[0.40520833333333334,0.35481481481481486],[0.32145833333333323,0.3446296296296297],[0.2664583333333333,0.32944444444444443],[0.19239583333333338,0.27981481481481485],[0.10812499999999996,0.3387037037037037],[0.03218749999999997,0.3344444444444445],[-0.05479166666666669,0.38203703703703695],[-0.14739583333333334,0.41333333333333344],[-0.17416666666666672,0.4646296296296296],[-0.18218749999999997,0.5624074074074075],[-0.2573958333333334,0.6611111111111111],[-0.30229166666666674,0.7116666666666666],[-0.3651041666666667,0.7685185185185185],[-0.35989583333333336,0.890925925925926],[-0.3779166666666666,0.9638888888888889],[-0.37447916666666664,1.037037037037037],[-0.36833333333333335,1.0720370370370371],[-0.34822916666666665,1.11],[-0.32781250000000006,1.147962962962963],[-0.25322916666666667,1.1472222222222221],[-0.14135416666666673,1.1485185185185185],[-0.07093750000000003,1.16462962962963],[0.025312499999999953,1.1949999999999998],[0.096875,1.1716666666666669],[0.1851041666666667,1.1466666666666667],[0.28718750000000004,1.1416666666666666],[0.3616666666666667,1.1570370370370369],[0.4254166666666668,1.1718518518518517],[0.49229166666666657,1.14],[0.49854166666666655,1.1125925925925926],[0.4960416666666667,1.08537037037037],[0.5239583333333333,1.0733333333333333],[0.5376041666666665,1.0537037037037038],[0.5439583333333334,1.0237037037037036],[0.5336458333333333,0.9953703703703703],[0.4805208333333333,0.9770370370370368],[0.45499999999999996,0.9383333333333335],[0.4367708333333333,0.8764814814814814],[0.4154166666666666,0.8612962962962963],[0.38916666666666655,0.8446296296296296],[0.37166666666666665,0.8277777777777777],[0.3662499999999999,0.8407407407407408],[0.3792708333333332,0.8424074074074074],[0.36749999999999994,0.8788888888888889],[0.3388541666666666,0.8805555555555555],[0.3351041666666667,0.8762962962962964],[0.32802083333333343,0.8601851851851852],[0.31364583333333323,0.8672222222222221],[0.31968750000000007,0.8987037037037037],[0.31833333333333325,0.9194444444444444],[0.3051041666666668,0.9414814814814817],[0.27979166666666655,0.9337037037037038],[0.2690624999999999,0.962037037037037],[0.2904166666666666,0.9659259259259257],[0.3403125000000001,1.0125925925925925],[0.3902083333333332,1.0592592592592593],[0.44343750000000004,1.1177777777777775],[0.35489583333333335,1.1579629629629629],[0.2859375,1.1887037037037038],[0.2256249999999999,1.205925925925926],[0.17718749999999991,1.2218518518518517],[0.11875,1.2487037037037036],[0.026250000000000048,1.2433333333333334],[-0.028645833333333332,1.2705555555555554],[-0.09520833333333331,1.2898148148148147],[-0.18614583333333337,1.2840740740740741],[-0.2716666666666666,1.2992592592592591],[-0.21864583333333332,1.3225925925925928],[-0.16437499999999997,1.3262962962962963],[-0.16343749999999999,1.3266666666666669],[-0.06770833333333333,1.3483333333333332],[-0.01864583333333331,1.3487037037037035],[0.03083333333333336,1.363148148148148],[0.024166666666666715,1.3201851851851854],[0.006666666666666643,1.300740740740741],[0.0125,1.2955555555555553],[0.0068750000000000235,1.27],[-0.00614583333333331,1.2409259259259258],[0.0234375,1.2418518518518518],[0.07781250000000005,1.260185185185185],[0.057291666666666664,1.2566666666666666],[-0.016770833333333356,1.2348148148148148],[-0.0704166666666667,1.2135185185185184],[-0.1094791666666667,1.2266666666666668],[-0.10614583333333331,1.1927777777777777],[-0.11677083333333335,1.185925925925926],[-0.10249999999999998,1.17],[-0.10625,1.1703703703703703],[-0.14979166666666663,1.1562962962962964],[-0.18541666666666667,1.167962962962963],[-0.2367708333333333,1.1727777777777777],[-0.2367708333333333,1.1727777777777777],[-0.18812500000000001,1.1729629629629632],[-0.18812500000000001,1.1729629629629632],[-0.20656249999999995,1.1722222222222223],[-0.20656249999999995,1.1722222222222223],[-0.2247916666666666,1.1781481481481482],[-0.2247916666666666,1.1781481481481482],[-0.2570833333333333,1.194814814814815],[-0.2570833333333333,1.194814814814815],[-0.2747916666666666,1.2235185185185187],[-0.2747916666666666,1.2235185185185187],[-0.31843750000000004,1.2353703703703702],[-0.3123958333333333,1.2546296296296295],[-0.3393749999999999,1.249259259259259],[-0.3877083333333334,1.2196296296296294],[-0.44020833333333337,1.1974074074074073],[-0.43947916666666664,1.2194444444444446],[-0.3914583333333333,1.2351851851851852],[-0.3416666666666667,1.2290740740740742],[-0.3038541666666667,1.2472222222222222],[-0.2921875,1.213148148148148],[-0.2726041666666667,1.2272222222222222],[-0.27406250000000004,1.2312962962962966],[-0.29791666666666666,1.249259259259259],[-0.28843749999999996,1.2651851851851852],[-0.2719791666666667,1.2451851851851854],[-0.2985416666666667,1.2142592592592594],[-0.33927083333333335,1.1937037037037035],[-0.3780208333333333,1.1787037037037038],[-0.4262500000000001,1.1301851851851852],[-0.43729166666666663,1.1166666666666667],[-0.4314583333333334,1.0785185185185187],[-0.42562500000000003,1.0403703703703704],[-0.3954166666666667,1.0092592592592593],[-0.36520833333333336,0.9781481481481482],[-0.3764583333333333,0.9927777777777776],[-0.3877083333333334,1.0074074074074073],[-0.38479166666666664,1.0116666666666665],[-0.3765625,0.9966666666666667],[-0.36437499999999995,1.0037037037037038],[-0.35625,1.015],[-0.3658333333333334,1.0281481481481483],[-0.3997916666666666,1.0324074074074074],[-0.4413541666666667,1.027037037037037],[-0.48854166666666665,1.0088888888888887],[-0.50125,0.980925925925926],[-0.43427083333333333,0.8548148148148148],[-0.3672916666666667,0.7287037037037037],[-0.30343749999999997,0.6301851851851851],[-0.21479166666666671,0.5120370370370371],[-0.13270833333333332,0.3785185185185185],[-0.028125,0.24518518518518514],[0.06124999999999995,0.11370370370370367],[0.15968749999999995,-0.022222222222222223],[0.26375000000000004,-0.14537037037037037],[0.3667708333333332,-0.27759259259259256],[0.3667708333333332,-0.27759259259259256],[0.3788541666666667,-0.2959259259259259],[0.38270833333333343,-0.30833333333333335],[0.3943749999999999,-0.3096296296296296],[0.3736458333333334,-0.3014814814814815],[0.3529166666666666,-0.2933333333333333],[0.31197916666666664,-0.2890740740740741],[0.3046875,-0.2442592592592592],[0.28937499999999994,-0.20407407407407405],[0.26437499999999997,-0.17333333333333337],[0.25770833333333343,-0.14592592592592596],[0.24604166666666671,-0.14425925925925923],[0.25281250000000005,-0.1668518518518519],[0.24958333333333324,-0.2088888888888889],[0.2686458333333334,-0.21333333333333332],[0.27458333333333323,-0.2544444444444444],[0.28968749999999993,-0.2655555555555555],[0.31187500000000007,-0.3351851851851852],[0.32760416666666664,-0.3933333333333333],[0.38010416666666674,-0.43388888888888894],[0.4023958333333333,-0.42314814814814816],[0.41385416666666663,-0.4009259259259259],[0.41510416666666666,-0.3603703703703704],[0.41218750000000004,-0.2898148148148148],[0.3945833333333333,-0.24666666666666665],[0.40947916666666656,-0.17185185185185187],[0.41291666666666677,-0.12333333333333338],[0.40822916666666675,-0.03944444444444436],[0.40354166666666674,0.044444444444444446],[0.37177083333333344,0.12018518518518514],[0.3502083333333334,0.08777777777777773],[0.35572916666666665,0.05388888888888893],[0.3570833333333333,0.047037037037036995],[0.36260416666666656,0.010185185185185186],[0.3702083333333334,-0.0809259259259259],[0.3489583333333333,-0.14425925925925923],[0.34479166666666666,-0.1896296296296296],[0.34479166666666666,-0.1896296296296296],[0.3134375000000001,-0.2572222222222222],[0.2698958333333332,-0.3162962962962963],[0.22520833333333337,-0.3440740740740741],[0.18937499999999996,-0.3218518518518519],[0.16041666666666668,-0.31592592592592594],[0.13239583333333324,-0.2962962962962963],[0.10010416666666658,-0.3148148148148148],[0.06625000000000002,-0.26296296296296295],[0.041875000000000044,-0.2338888888888889],[0.0010416666666666667,-0.20037037037037034],[-0.005624999999999976,-0.15499999999999997],[0.007083333333333286,-0.1022222222222222],[0.020937500000000022,-0.08074074074074078],[0.017499999999999953,-0.0712962962962963],[0.007187499999999976,-0.0455555555555556],[0.00010416666666669035,-0.060555555555555536],[0.03687499999999998,-0.07759259259259255],[0.07166666666666661,-0.09129629629629632],[0.09958333333333323,-0.08611111111111111],[0.09958333333333323,-0.08611111111111111],[0.12395833333333334,-0.122037037037037],[0.12395833333333334,-0.122037037037037],[0.15239583333333329,-0.15407407407407406],[0.1736458333333334,-0.20203703703703707],[0.1736458333333334,-0.20203703703703707],[0.1984375,-0.27611111111111114],[0.1984375,-0.27611111111111114],[0.20572916666666666,-0.2903703703703704],[0.20572916666666666,-0.2903703703703704],[0.1935416666666666,-0.27907407407407403],[0.1935416666666666,-0.27907407407407403],[0.20499999999999996,-0.3085185185185186],[0.20499999999999996,-0.3085185185185186],[0.1560416666666666,-0.2492592592592593],[0.1560416666666666,-0.2492592592592593],[0.06989583333333324,-0.2718518518518519],[0.06989583333333324,-0.2718518518518519],[0.06208333333333336,-0.29611111111111105],[0.05645833333333338,-0.27740740740740744],[0.03229166666666667,-0.2707407407407407],[0.009375,-0.26055555555555554],[-0.020624999999999952,-0.19277777777777783],[-0.035000000000000024,-0.22166666666666665],[-0.029895833333333382,-0.27611111111111114],[-0.0048958333333333805,-0.2770370370370371],[0.04093749999999995,-0.3264814814814815],[0.12041666666666657,-0.31074074074074076],[0.12083333333333333,-0.28944444444444445],[0.13572916666666662,-0.3087037037037037],[0.16510416666666666,-0.3198148148148148],[0.1703125,-0.32999999999999996],[0.1877083333333334,-0.37907407407407406],[0.2459374999999999,-0.3442592592592592],[0.28364583333333326,-0.32092592592592595],[0.2778125000000001,-0.3103703703703704],[0.19645833333333323,-0.28425925925925927],[0.121875,-0.2759259259259259],[0.1046875,-0.28574074074074074],[0.07374999999999995,-0.27925925925925926],[0.04989583333333331,-0.2935185185185185],[0.04895833333333333,-0.3122222222222223],[0.05552083333333328,-0.2962962962962963],[0.03427083333333331,-0.29611111111111105],[0.03354166666666671,-0.2844444444444445],[0.05635416666666669,-0.27518518518518525],[0.1546875,-0.2814814814814815],[0.2181250000000001,-0.2948148148148148],[0.23177083333333334,-0.3127777777777777],[0.18083333333333323,-0.3616666666666667],[0.16375000000000003,-0.3672222222222222],[0.18072916666666666,-0.3616666666666667],[0.18156249999999996,-0.38333333333333336],[0.18739583333333343,-0.3972222222222222],[0.17260416666666673,-0.41648148148148145],[0.16677083333333323,-0.4537037037037037],[0.1396874999999999,-0.45333333333333337],[0.14572916666666677,-0.4309259259259259],[0.13552083333333323,-0.42055555555555557],[0.17864583333333334,-0.39944444444444444],[0.1865624999999999,-0.35537037037037034],[0.15458333333333343,-0.36277777777777775],[0.1603125000000001,-0.3520370370370371],[0.16104166666666658,-0.3490740740740741],[0.17416666666666672,-0.3455555555555556],[0.1359375,-0.32759259259259255],[0.09916666666666671,-0.32518518518518524],[0.06239583333333331,-0.3227777777777778],[0.04885416666666664,-0.3096296296296296],[0.04645833333333336,-0.28111111111111114],[0.03833333333333329,-0.29814814814814816],[0.03947916666666664,-0.25148148148148153],[0.002916666666666619,-0.22296296296296292],[-0.03604166666666669,-0.2037037037037037],[-0.06677083333333336,-0.17962962962962964],[-0.058333333333333334,-0.15240740740740744],[0.0005208333333333333,-0.14759259259259258],[0.015625,-0.15981481481481483],[0.02354166666666669,-0.1675925925925926],[0.057500000000000044,-0.1557407407407408],[0.08781249999999995,-0.10740740740740741],[0.11749999999999995,-0.08537037037037042],[0.16239583333333343,-0.0977777777777778],[0.16239583333333343,-0.0977777777777778],[0.20083333333333328,-0.09296296296296294],[0.2621875000000001,-0.0787037037037037],[0.32229166666666675,-0.08370370370370368],[0.32229166666666675,-0.08370370370370368],[0.35177083333333337,-0.0883333333333333],[0.40729166666666666,-0.05259259259259255],[0.46124999999999994,-0.02629629629629638],[0.4879166666666668,-0.019444444444444445],[0.5182291666666666,-0.049074074074074076],[0.5386458333333333,-0.055740740740740785],[0.5371875,-0.03777777777777774],[0.5301041666666667,-0.01907407407407399],[0.5001041666666666,-0.009814814814814731],[0.4587500000000001,-0.01185185185185181],[0.4058333333333332,-0.03185185185185194],[0.39718749999999997,-0.05092592592592592],[0.37520833333333337,-0.06611111111111109],[0.34135416666666674,-0.0735185185185185],[0.3216666666666666,-0.08944444444444447],[0.2928124999999999,-0.10462962962962963],[0.28187499999999993,-0.14425925925925923],[0.3003124999999999,-0.21444444444444447],[0.33531250000000007,-0.2801851851851852],[0.36260416666666656,-0.3125925925925926],[0.4070833333333333,-0.32685185185185184],[0.425,-0.3653703703703704],[0.4616666666666667,-0.4264814814814815],[0.5115624999999999,-0.49074074074074076],[0.53625,-0.5301851851851852],[0.5771874999999999,-0.5903703703703704],[0.6167708333333333,-0.6238888888888888],[0.6076041666666666,-0.6001851851851853],[0.6076041666666666,-0.6001851851851853],[0.5818749999999999,-0.580925925925926],[0.5706249999999999,-0.5475925925925925],[0.5442708333333334,-0.5257407407407407],[0.5179166666666667,-0.5038888888888889],[0.48333333333333334,-0.4487037037037037],[0.4461458333333333,-0.3907407407407407],[0.42604166666666665,-0.3272222222222222],[0.40593750000000006,-0.26370370370370366],[0.36781249999999993,-0.23129629629629625],[0.36354166666666665,-0.23425925925925925],[0.36354166666666665,-0.23425925925925925],[0.3633333333333333,-0.2331481481481481],[0.3633333333333333,-0.2331481481481481],[0.34656250000000005,-0.23703703703703705],[0.34656250000000005,-0.23703703703703705],[0.3394791666666668,-0.24314814814814817],[0.3394791666666668,-0.24314814814814817],[0.3145833333333333,-0.21092592592592588],[0.3145833333333333,-0.21092592592592588],[0.3090625000000001,-0.2035185185185185],[0.3090625000000001,-0.2035185185185185],[0.2993750000000001,-0.22685185185185186],[0.28927083333333337,-0.26777777777777784],[0.2791666666666667,-0.3087037037037037],[0.28583333333333344,-0.3148148148148148],[0.2924999999999999,-0.32092592592592595],[0.2783333333333334,-0.28574074074074074],[0.26624999999999993,-0.2596296296296296],[0.2543750000000001,-0.25407407407407406],[0.2603125000000001,-0.2868518518518518],[0.21572916666666658,-0.26888888888888884],[0.1779166666666666,-0.22296296296296292],[0.14020833333333324,-0.18833333333333332],[0.10250000000000009,-0.1537037037037037],[0.07427083333333329,-0.1037037037037037],[0.06572916666666669,-0.0477777777777777],[0.07395833333333333,-0.03722222222222227],[0.1087500000000001,-0.04259259259259259],[0.14312500000000009,-0.013888888888888888],[0.14447916666666671,0.03518518518518519],[0.18156249999999996,0.05],[0.221875,0.04092592592592597],[0.26531250000000006,0.002407407407407323],[0.2881249999999999,0.00851851851851856],[0.2786458333333333,0.002962962962963005],[0.24895833333333334,-0.02629629629629638],[0.21552083333333344,-0.08962962962962959],[0.15552083333333327,-0.13703703703703704],[0.12947916666666662,-0.18074074074074079],[0.13645833333333332,-0.2448148148148148],[0.14385416666666656,-0.2807407407407408],[0.14802083333333324,-0.2927777777777778],[0.11604166666666677,-0.2611111111111111],[0.1046875,-0.2740740740740741],[0.13010416666666677,-0.30037037037037034],[0.1560416666666666,-0.30888888888888894],[0.1564583333333334,-0.25037037037037035],[0.17718749999999991,-0.192037037037037],[0.18322916666666675,-0.09666666666666665],[0.13031249999999991,-0.04518518518518514],[0.07697916666666677,-0.021851851851851768],[0.04906250000000002,0.05611111111111103],[0.0484375,0.12685185185185185],[0.033958333333333354,0.19129629629629621],[0.011249999999999953,0.2722222222222222],[0.028645833333333332,0.275],[0.07041666666666657,0.24296296296296305]]","[[0.2808333333333332,0.0242592592592593,0.00029999999701857405],[0.27072916666666674,0.007777777777777862,0.03900000000000148],[0.27072916666666674,0.007777777777777862,0.047099999997762154],[0.20895833333333325,-0.047037037037036995,0.053199999999250736],[0.22447916666666667,-0.06462962962962959,0.06919999999925608],[0.24270833333333333,-0.09500000000000001,0.0856999999992567],[0.13916666666666658,-0.12018518518518514,0.1023999999985108],[0.057604166666666616,-0.11777777777777781,0.11899999999999977],[-0.009583333333333381,-0.0883333333333333,0.13569999999925386],[-0.008437500000000023,-0.09444444444444444,0.15399999999999636],[0.01593749999999995,-0.03370370370370379,0.16899999999999693],[0.04479166666666667,-0.018333333333333292,0.18569999999925102],[0.07593750000000009,-0.004259259259259175,0.2023999999985051],[0.10750000000000005,0.03518518518518519,0.2190000000000012],[0.0900000000000001,0.0794444444444444,0.23569999999925528],[0.052291666666666715,0.13740740740740748,0.2532999999970187],[0.10281250000000004,0.18555555555555564,0.26899999999999835],[0.15270833333333325,0.20166666666666663,0.28579999999701755],[0.2263541666666666,0.21999999999999992,0.3022999999970182],[0.18114583333333342,0.22111111111111106,0.3380999999977661],[0.18114583333333342,0.22111111111111106,0.3478999999985106],[0.10864583333333329,0.20314814814814824,0.37519999999925346],[0.10864583333333329,0.20314814814814824,0.38219999999925136],[0.071875,0.21333333333333343,0.4087999999970151],[0.071875,0.21333333333333343,0.41639999999851085],[0.005312500000000024,0.21666666666666667,0.4441999999992561],[0.005312500000000024,0.21666666666666667,0.4517999999970215],[0.013645833333333357,0.19425925925925921,0.4754999999999967],[0.013645833333333357,0.19425925925925921,0.4830999999977621],[-0.007395833333333357,0.15111111111111114,0.5038999999985094],[-0.007395833333333357,0.15111111111111114,0.5110999999977608],[0.000833333333333286,0.09944444444444453,0.5408999999985085],[0.000833333333333286,0.09944444444444453,0.547799999997018],[0.000833333333333286,0.09944444444444453,0.5522999999970182],[0.000833333333333286,0.09944444444444453,0.5698999999985048],[-0.0203125,0.0787037037037037,0.606899999998511],[-0.0203125,0.0787037037037037,0.6208999999985068],[-0.01604166666666664,0.02092592592592584,0.638699999999254],[-0.01604166666666664,0.02092592592592584,0.6466999999992566],[-0.029895833333333382,0.014629629629629588,0.6716999999992552],[-0.029895833333333382,0.014629629629629588,0.6789999999999949],[-0.0171875,-0.06518518518518517,0.7057999999970193],[-0.0171875,-0.06518518518518517,0.7127999999970172],[-0.003333333333333381,-0.0977777777777778,0.7365999999977646],[-0.003333333333333381,-0.0977777777777778,0.7450999999977626],[0.04093749999999995,-0.12833333333333335,0.7715999999977612],[0.04093749999999995,-0.12833333333333335,0.7862999999970199],[0.01875,-0.1609259259259259,0.804399999998509],[0.01875,-0.1609259259259259,0.8120999999977627],[-0.07010416666666662,-0.15462962962962962,0.8416999999992569],[-0.07010416666666662,-0.15462962962962962,0.8493999999985107],[-0.07291666666666667,-0.16629629629629633,0.8714999999999975],[-0.07291666666666667,-0.16629629629629633,0.8780000000000001],[-0.13374999999999998,-0.16814814814814816,0.9060999999977639],[-0.13374999999999998,-0.16814814814814816,0.91279999999702],[-0.08677083333333328,-0.19870370370370372,0.9386999999992511],[-0.08677083333333328,-0.19870370370370372,0.9471999999992562],[-0.08677083333333328,-0.19870370370370372,0.9525000000000006],[-0.08677083333333328,-0.19870370370370372,0.9875999999977623],[-0.10864583333333329,-0.17444444444444443,1.0056999999992513],[-0.10864583333333329,-0.17444444444444443,1.0123999999985074],[-0.11593749999999996,-0.18499999999999997,1.0420999999977667],[-0.11593749999999996,-0.18499999999999997,1.049199999999253],[-0.11593749999999996,-0.18499999999999997,1.0522999999970182],[-0.11593749999999996,-0.18499999999999997,1.0700999999977654],[-0.13947916666666665,-0.1418518518518519,1.1071999999992528],[-0.13947916666666665,-0.1418518518518519,1.1145999999977647],[-0.15062500000000004,-0.12851851851851848,1.1388999999985074],[-0.15062500000000004,-0.12851851851851848,1.1470999999977636],[-0.1608333333333333,-0.13240740740740742,1.1751999999992506],[-0.1608333333333333,-0.13240740740740742,1.1825999999977626],[-0.13500000000000004,-0.1507407407407407,1.2058999999985076],[-0.13500000000000004,-0.1507407407407407,1.213399999998508],[-0.09166666666666666,-0.16814814814814816,1.2413999999985066],[-0.09166666666666666,-0.16814814814814816,1.2488999999985069],[-0.12697916666666664,-0.16203703703703703,1.271499999999996],[-0.12697916666666664,-0.16203703703703703,1.2783999999985056],[-0.08270833333333331,-0.17888888888888893,1.3030999999977624],[-0.08270833333333331,-0.17888888888888893,1.3122999999970162],[-0.15395833333333328,-0.16796296296296295,1.3415999999977615],[-0.15395833333333328,-0.16796296296296295,1.3488999999985083],[-0.13156249999999994,-0.12907407407407406,1.3714999999999975],[-0.13156249999999994,-0.12907407407407406,1.379099999997763],[-0.14885416666666665,-0.1242592592592593,1.407599999997764],[-0.14885416666666665,-0.1242592592592593,1.4144999999999968],[-0.15343749999999995,-0.1388888888888889,1.4386999999992511],[-0.15343749999999995,-0.1388888888888889,1.4465999999977655],[-0.15343749999999995,-0.1388888888888889,1.4522999999970168],[-0.15343749999999995,-0.1388888888888889,1.4892999999970158],[-0.15052083333333333,-0.13648148148148145,1.5050999999977606],[-0.15052083333333333,-0.13648148148148145,1.512199999999254],[-0.20604166666666662,-0.1368518518518518,1.5399999999999991],[-0.20604166666666662,-0.1368518518518518,1.5481999999992553],[-0.20604166666666662,-0.1368518518518518,1.5522999999970182],[-0.20604166666666662,-0.1368518518518518,1.5698999999985048],[-0.2015625,-0.11037037037037041,1.6049999999999969],[-0.2015625,-0.11037037037037041,1.6128999999985112],[-0.20260416666666667,-0.08222222222222218,1.6391999999992564],[-0.20260416666666667,-0.08222222222222218,1.654199999999257],[-0.19333333333333336,-0.046481481481481526,1.6722999999970156],[-0.19333333333333336,-0.046481481481481526,1.6803999999985066],[-0.23322916666666665,-0.005740740740740783,1.7073999999985077],[-0.23322916666666665,-0.005740740740740783,1.7140999999977637],[-0.184375,-0.012407407407407492,1.738500000000002],[-0.184375,-0.012407407407407492,1.7464999999999975],[-0.20739583333333336,-0.04740740740740745,1.773699999999252],[-0.20739583333333336,-0.04740740740740745,1.7802999999970197],[-0.21135416666666665,-0.058333333333333334,1.8053999999985066],[-0.21135416666666665,-0.058333333333333334,1.8136999999992511],[-0.1970833333333334,-0.026666666666666623,1.8427999999970197],[-0.1970833333333334,-0.026666666666666623,1.8500999999977665],[-0.1970833333333334,-0.026666666666666623,1.8530000000000015],[-0.1820833333333333,-0.016666666666666666,1.8880999999977632],[-0.1820833333333333,-0.016666666666666666,1.904299999997015],[-0.14104166666666665,-0.007962962962962878,1.9213999999985063],[-0.14104166666666665,-0.007962962962962878,1.9276999999992555],[-0.10177083333333338,0.03722222222222227,1.9566999999992518],[-0.10177083333333338,0.03722222222222227,1.9628999999985055],[-0.09020833333333336,0.0035185185185184764,1.9877999999970157],[-0.09020833333333336,0.0035185185185184764,1.9947999999970207],[-0.051874999999999956,0.006111111111111027,2.0232999999970147],[-0.051874999999999956,0.006111111111111027,2.0297999999970173],[-0.010520833333333358,0.015000000000000043,2.054699999999251],[-0.010520833333333358,0.015000000000000043,2.063199999999256],[-0.025729166666666713,-0.01055555555555564,2.0907999999970173],[-0.025729166666666713,-0.01055555555555564,2.0978999999985106],[-0.025312499999999953,0.03944444444444436,2.121399999998509],[-0.025312499999999953,0.03944444444444436,2.1280999999977652],[-0.024479166666666666,0.08055555555555556,2.1567999999970198],[-0.024479166666666666,0.08055555555555556,2.1632999999970153],[-0.015208333333333357,0.056296296296296254,2.1879999999999953],[-0.015208333333333357,0.056296296296296254,2.194499999999998],[-0.01906249999999995,0.025370370370370456,2.223699999999255],[-0.01906249999999995,0.025370370370370456,2.230399999998511],[-0.025520833333333333,0.015370370370370286,2.2550999999977606],[-0.025520833333333333,0.015370370370370286,2.262199999999254],[-0.009375,-0.03851851851851843,2.2894999999999968],[-0.009375,-0.03851851851851843,2.295899999998511],[-0.004375000000000047,-0.021851851851851768,2.324399999998505],[-0.004375000000000047,-0.021851851851851768,2.3322999999970193],[-0.010104166666666714,-0.0003703703703704546,2.3591999999992552],[-0.010104166666666714,-0.0003703703703704546,2.3669999999999973],[-0.02958333333333331,-0.01629629629629621,2.3900999999977657],[-0.02958333333333331,-0.01629629629629621,2.3970999999977636],[-0.07385416666666664,0.02962962962962963,2.427199999999253],[-0.07385416666666664,0.02962962962962963,2.433899999998509],[-0.08302083333333338,-0.009999999999999959,2.456099999997761],[-0.08302083333333338,-0.009999999999999959,2.462799999997017],[-0.10770833333333331,-0.03148148148148148,2.491899999998509],[-0.10770833333333331,-0.03148148148148148,2.498299999997016],[-0.13031250000000003,0.005555555555555556,2.5212999999970194],[-0.13031250000000003,0.005555555555555556,2.5283999999985056],[-0.1476041666666667,0.032037037037036954,2.5568999999985067],[-0.1476041666666667,0.032037037037036954,2.563199999999256],[-0.1710416666666667,0.03037037037037033,2.588099999997766],[-0.1710416666666667,0.03037037037037033,2.59469999999925],[-0.22989583333333338,0.07370370370370362,2.6237999999970185],[-0.22989583333333338,0.07370370370370362,2.6307999999970164],[-0.2564583333333334,0.0838888888888888,2.6547999999970173],[-0.2564583333333334,0.0838888888888888,2.66319999999925],[-0.2856250000000001,0.06796296296296304,2.688299999997021],[-0.2856250000000001,0.06796296296296304,2.6950000000000003],[-0.2864583333333333,0.08185185185185194,2.723699999999255],[-0.2864583333333333,0.08185185185185194,2.7301999999992503],[-0.2819791666666667,0.11166666666666658,2.7546999999992536],[-0.2819791666666667,0.11166666666666658,2.7612999999970214],[-0.34312499999999996,0.14907407407407408,2.7912999999970154],[-0.34312499999999996,0.14907407407407408,2.797799999997018],[-0.33187500000000003,0.15907407407407403,2.8212999999970165],[-0.33187500000000003,0.15907407407407403,2.8282999999970215],[-0.32145833333333335,0.18592592592592588,2.8566999999992504],[-0.32145833333333335,0.18592592592592588,2.8633999999985065],[-0.30447916666666663,0.18277777777777787,2.8881999999992516],[-0.30447916666666663,0.18277777777777787,2.895099999997761],[-0.274375,0.1925925925925926,2.9233999999985087],[-0.274375,0.1925925925925926,2.929399999998509],[-0.24145833333333327,0.175,2.954599999997761],[-0.24145833333333327,0.175,2.961500000000001],[-0.23187500000000003,0.17185185185185176,2.9905999999977624],[-0.23187500000000003,0.17185185185185176,2.9990999999977603],[-0.21000000000000002,0.1507407407407407,3.0213999999985077],[-0.21000000000000002,0.1507407407407407,3.0282999999970173],[-0.17906249999999999,0.1492592592592593,3.065099999997763],[-0.17906249999999999,0.1492592592592593,3.0851999999992543],[-0.153125,0.11925925925925922,3.09619999999925],[-0.153125,0.11925925925925922,3.1052999999970154],[-0.07583333333333328,0.09518518518518514,3.137999999999998],[-0.07583333333333328,0.09518518518518514,3.1458999999985053],[-0.03104166666666662,0.08277777777777787,3.1718999999985087],[-0.03104166666666662,0.08277777777777787,3.1784999999999997],[0.012083333333333357,0.032407407407407406,3.20639999999851],[0.012083333333333357,0.032407407407407406,3.2202999999970174],[-0.0015625,0.028703703703703703,3.2393999999985112],[-0.0015625,0.028703703703703703,3.2487999999970185],[0.0007291666666667141,0.027407407407407325,3.2713999999985077],[0.0007291666666667141,0.027407407407407325,3.278500000000001],[0.011354166666666643,0.020740740740740823,3.30709999999776],[0.011354166666666643,0.020740740740740823,3.3159999999999954],[-0.0048958333333333805,-0.022592592592592678,3.338799999997015],[-0.0048958333333333805,-0.022592592592592678,3.34579999999702],[-0.0048958333333333805,-0.022592592592592678,3.3522999999970153],[-0.0048958333333333805,-0.022592592592592678,3.3700999999977626],[-0.029791666666666692,-0.002777777777777778,3.4055999999977615],[-0.029791666666666692,-0.002777777777777778,3.4133999999985107],[-0.05645833333333338,-0.01907407407407399,3.439],[-0.05645833333333338,-0.01907407407407399,3.4469999999999956],[-0.06666666666666667,-0.03166666666666671,3.471499999999999],[-0.06666666666666667,-0.03166666666666671,3.478599999997762],[-0.08239583333333336,-0.06833333333333329,3.5047999999970187],[-0.08239583333333336,-0.06833333333333329,3.511599999997763],[-0.09770833333333329,-0.12111111111111107,3.5386999999992597],[-0.09770833333333329,-0.12111111111111107,3.5457999999970227],[-0.12124999999999998,-0.14833333333333337,3.573199999999254],[-0.12124999999999998,-0.14833333333333337,3.580599999997766],[-0.10833333333333334,-0.18462962962962962,3.604999999999997],[-0.10833333333333334,-0.18462962962962962,3.6122999999970133],[-0.11854166666666661,-0.20629629629629626,3.6367999999970166],[-0.11854166666666661,-0.20629629629629626,3.6445999999977587],[-0.11979166666666667,-0.22629629629629627,3.6729999999999947],[-0.11979166666666667,-0.22629629629629627,3.679799999997023],[-0.05260416666666667,-0.19740740740740745,3.705299999997017],[-0.05260416666666667,-0.19740740740740745,3.7128999999985055],[0.01604166666666664,-0.21185185185185182,3.7368999999985064],[0.01604166666666664,-0.21185185185185182,3.745599999997758],[0.01604166666666664,-0.21185185185185182,3.752299999997014],[0.01604166666666664,-0.21185185185185182,3.7878999999985083],[0.08635416666666676,-0.23629629629629634,3.805500000000002],[0.08635416666666676,-0.23629629629629634,3.8134999999999977],[0.1234375,-0.21444444444444447,3.8397999999970196],[0.1234375,-0.21444444444444447,3.8541999999992598],[0.16124999999999995,-0.18833333333333332,3.8721999999992605],[0.16124999999999995,-0.18833333333333332,3.87909999999777],[0.17541666666666675,-0.11740740740740736,3.9067999999970127],[0.17541666666666675,-0.11740740740740736,3.915099999997757],[0.2040625000000001,-0.10574074074074079,3.939],[0.2040625000000001,-0.10574074074074079,3.946799999997019],[0.240625,-0.07444444444444442,3.9720999999977593],[0.240625,-0.07444444444444442,3.9791999999992598],[0.240625,-0.07444444444444442,3.985599999997767],[0.240625,-0.07444444444444442,4.003399999998514],[0.26749999999999996,-0.051111111111111156,4.042499999999997],[0.26749999999999996,-0.051111111111111156,4.050199999999258],[0.23156249999999995,-0.022037037037036994,4.0723999999985026],[0.23156249999999995,-0.022037037037036994,4.079299999997012],[0.1875,0.014259259259259343,4.10519999999925],[0.1875,0.014259259259259343,4.112299999997013],[0.1875,0.014259259259259343,4.119099999997765],[0.1875,0.014259259259259343,4.136999999999993],[0.1515625,-0.009629629629629714,4.173599999997769],[0.1515625,-0.009629629629629714,4.180799999997014],[0.08760416666666657,0.017592592592592594,4.203199999999249],[0.08760416666666657,0.017592592592592594,4.211699999999247],[0.09385416666666657,0.06018518518518518,4.238699999999248],[0.09385416666666657,0.06018518518518518,4.252899999998512],[0.049270833333333285,0.11092592592592589,4.271799999997022],[0.049270833333333285,0.11092592592592589,4.278899999998508],[0.03270833333333331,0.08518518518518518,4.311],[0.03270833333333331,0.08518518518518518,4.318099999997763],[0.015416666666666618,0.1301851851851851,4.343599999997757],[0.015416666666666618,0.1301851851851851,4.352299999997022],[-0.008229166666666643,0.15166666666666662,4.379199999999251],[-0.008229166666666643,0.15166666666666662,4.387099999997766],[-0.01270833333333338,0.17092592592592584,4.402499999999996],[-0.01270833333333338,0.17092592592592584,4.419099999997762],[-0.024166666666666715,0.16777777777777783,4.435699999999251],[-0.024166666666666715,0.16777777777777783,4.4547999999970145],[-0.014374999999999952,0.16833333333333328,4.469000000000001],[-0.014374999999999952,0.16833333333333328,4.48579999999702],[-0.01114583333333338,0.21648148148148144,4.502199999999256],[0.0013541666666666192,0.26481481481481484,4.521599999997768],[-0.013333333333333286,0.25999999999999995,4.536399999998515],[0.03208333333333328,0.23574074074074067,4.553099999997762],[0.03177083333333333,0.2646296296296296,4.573299999997012],[0.03083333333333336,0.256111111111111,4.588599999997761],[0.04583333333333333,0.23796296296296296,4.602299999997022],[0.04020833333333336,0.23870370370370367,4.618899999998511],[0.08312499999999995,0.2548148148148149,4.635699999999254],[0.09760416666666671,0.22962962962962963,4.652199999999247],[0.10281250000000004,0.21129629629629634,4.668899999998509],[0.10822916666666677,0.18870370370370365,4.68559999999777],[0.08364583333333328,0.16888888888888898,4.702299999997017],[0.06020833333333329,0.17240740740740745,4.719199999999255],[0.05010416666666669,0.1551851851851851,4.736199999999251],[0.030729166666666665,0.1655555555555555,4.752999999999993],[0.02385416666666664,0.15851851851851856,4.768899999998503],[0.007500000000000047,0.152962962962963,4.789499999999997],[-0.030312500000000023,0.1566666666666667,4.803099999997762],[-0.03239583333333336,0.16703703703703712,4.822099999997768],[-0.03239583333333336,0.2433333333333333,4.839499999999994],[-0.03864583333333336,0.2205555555555556,4.855599999997757],[-0.00947916666666669,0.11222222222222226,4.870399999998504],[0.04562499999999995,-0.022592592592592678,4.8885000000000005],[0.04791666666666667,-0.11203703703703703,4.902399999998515],[0.05145833333333331,-0.21296296296296297,4.918899999998509],[0.05145833333333331,-0.21296296296296297,4.93559999999777],[0.058541666666666714,-0.34,4.952299999997017],[0.06083333333333331,-0.41629629629629633,4.969000000000001],[0.06083333333333331,-0.41629629629629633,4.985599999997767],[0.13166666666666677,-0.4427777777777778,5.002299999997014],[0.17697916666666677,-0.5114814814814814,5.018899999998503],[0.253125,-0.6377777777777778,5.035599999997764],[0.31281249999999994,-0.6416666666666667,5.052299999997025],[0.35812499999999997,-0.554074074074074,5.068899999998514],[0.3945833333333333,-0.42814814