inst1_resp.keys,inst1_resp.rt,calibrationMouse.x,calibrationMouse.y,calibrationMouse.leftButton,calibrationMouse.midButton,calibrationMouse.rightButton,calibrationClick.x,calibrationClick.y,calibrationClick.leftButton,calibrationClick.midButton,calibrationClick.rightButton,calibrationClick.clicked_name,trialsc.thisRepN,trialsc.thisTrialN,trialsc.thisN,trialsc.thisIndex,trialsc.ran,calibration_x,calibration_y,participant,session,date,expName,psychopyVersion,OS,frameRate,ScreenRes_pixels,Camera_pixels,mouse_2.x,mouse_2.y,mouse_2.leftButton,mouse_2.midButton,mouse_2.rightButton,mouse_2.time,mouse_2.clicked_name,mouse.x,mouse.y,mouse.leftButton,mouse.midButton,mouse.rightButton,mouse.time,mouse.clicked_name,Choice,Trial,TrialDuration,MOUSE_GAZE,ET_GAZE,ET_GAZE_x_T,time,unixTime,ET_GAZE_NF,Loc_Option1_label,Loc_Option2_label,Loc_Cost_label,Loc_Qual_label,Loc_Option1_cost,Loc_Option2_cost,Loc_Option1_quality,Loc_Option2_quality,trials.thisRepN,trials.thisTrialN,trials.thisN,trials.thisIndex,trials.ran,Block,Device,cost1,qual1,cost2,qual2
space,2.1476,0.046875,0.174074074,1,0,0,0.329166667,-0.001851852,1,0,0,calibration_square,0,0,0,16,1,0.33,0,42,001,2024-11-28_12h26.31.398,Attention_exp_legacy,2023.1.0,Win32,59.88023952,,,,,,,,,,,,,,,,,,,,,,,,,,,,,,,,,,,,,,,,,,,,
,,,,,,,-0.323958333,-0.664814815,1,0,0,calibration_square,0,1,1,4,1,-0.33,-0.67,42,001,2024-11-28_12h26.31.398,Attention_exp_legacy,2023.1.0,Win32,59.88023952,,,,,,,,,,,,,,,,,,,,,,,,,,,,,,,,,,,,,,,,,,,,
,,,,,,,-0.004166667,0.67037037,1,0,0,calibration_square,0,2,2,13,1,0,0.67,42,001,2024-11-28_12h26.31.398,Attention_exp_legacy,2023.1.0,Win32,59.88023952,,,,,,,,,,,,,,,,,,,,,,,,,,,,,,,,,,,,,,,,,,,,
,,,,,,,0.332291667,-0.675925926,1,0,0,calibration_square,0,3,3,14,1,0.33,-0.67,42,001,2024-11-28_12h26.31.398,Attention_exp_legacy,2023.1.0,Win32,59.88023952,,,,,,,,,,,,,,,,,,,,,,,,,,,,,,,,,,,,,,,,,,,,
,,,,,,,0.671875,0.672222222,1,0,0,calibration_square,0,4,4,19,1,0.67,0.67,42,001,2024-11-28_12h26.31.398,Attention_exp_legacy,2023.1.0,Win32,59.88023952,,,,,,,,,,,,,,,,,,,,,,,,,,,,,,,,,,,,,,,,,,,,
,,,,,,,-0.672916667,0.32962963,1,0,0,calibration_square,0,5,5,3,1,-0.67,0.33,42,001,2024-11-28_12h26.31.398,Attention_exp_legacy,2023.1.0,Win32,59.88023952,,,,,,,,,,,,,,,,,,,,,,,,,,,,,,,,,,,,,,,,,,,,
,,,,,,,0.669791667,-0.668518519,1,0,0,calibration_square,0,6,6,20,1,0.67,-0.67,42,001,2024-11-28_12h26.31.398,Attention_exp_legacy,2023.1.0,Win32,59.88023952,,,,,,,,,,,,,,,,,,,,,,,,,,,,,,,,,,,,,,,,,,,,
,,,,,,,-0.665625,-0.322222222,1,0,0,calibration_square,0,7,7,1,1,-0.67,-0.33,42,001,2024-11-28_12h26.31.398,Attention_exp_legacy,2023.1.0,Win32,59.88023952,,,,,,,,,,,,,,,,,,,,,,,,,,,,,,,,,,,,,,,,,,,,
,,,,,,,0.004166667,-0.674074074,1,0,0,calibration_square,0,8,8,9,1,0,-0.67,42,001,2024-11-28_12h26.31.398,Attention_exp_legacy,2023.1.0,Win32,59.88023952,,,,,,,,,,,,,,,,,,,,,,,,,,,,,,,,,,,,,,,,,,,,
,,,,,,,-0.322916667,-0.005555556,1,0,0,calibration_square,0,9,9,6,1,-0.33,0,42,001,2024-11-28_12h26.31.398,Attention_exp_legacy,2023.1.0,Win32,59.88023952,,,,,,,,,,,,,,,,,,,,,,,,,,,,,,,,,,,,,,,,,,,,
,,,,,,,0.333333333,0.327777778,1,0,0,calibration_square,0,10,10,17,1,0.33,0.33,42,001,2024-11-28_12h26.31.398,Attention_exp_legacy,2023.1.0,Win32,59.88023952,,,,,,,,,,,,,,,,,,,,,,,,,,,,,,,,,,,,,,,,,,,,
,,,,,,,-0.333333333,0.668518519,1,0,0,calibration_square,0,11,11,8,1,-0.33,0.67,42,001,2024-11-28_12h26.31.398,Attention_exp_legacy,2023.1.0,Win32,59.88023952,,,,,,,,,,,,,,,,,,,,,,,,,,,,,,,,,,,,,,,,,,,,
,,,,,,,-0.016666667,0.007407407,1,0,0,,0,12,12,11,1,0,0,42,001,2024-11-28_12h26.31.398,Attention_exp_legacy,2023.1.0,Win32,59.88023952,,,,,,,,,,,,,,,,,,,,,,,,,,,,,,,,,,,,,,,,,,,,
,,,,,,,0.327083333,-0.32962963,1,0,0,calibration_square,0,13,13,15,1,0.33,-0.33,42,001,2024-11-28_12h26.31.398,Attention_exp_legacy,2023.1.0,Win32,59.88023952,,,,,,,,,,,,,,,,,,,,,,,,,,,,,,,,,,,,,,,,,,,,
,,,,,,,-0.33125,0.333333333,1,0,0,calibration_square,0,14,14,7,1,-0.33,0.33,42,001,2024-11-28_12h26.31.398,Attention_exp_legacy,2023.1.0,Win32,59.88023952,,,,,,,,,,,,,,,,,,,,,,,,,,,,,,,,,,,,,,,,,,,,
,,,,,,,-0.005208333,0.327777778,1,0,0,calibration_square,0,15,15,12,1,0,0.33,42,001,2024-11-28_12h26.31.398,Attention_exp_legacy,2023.1.0,Win32,59.88023952,,,,,,,,,,,,,,,,,,,,,,,,,,,,,,,,,,,,,,,,,,,,
,,,,,,,-0.330208333,-0.318518519,1,0,0,,0,16,16,5,1,-0.33,-0.33,42,001,2024-11-28_12h26.31.398,Attention_exp_legacy,2023.1.0,Win32,59.88023952,,,,,,,,,,,,,,,,,,,,,,,,,,,,,,,,,,,,,,,,,,,,
,,,,,,,-0.671875,-0.672222222,1,0,0,calibration_square,0,17,17,0,1,-0.67,-0.67,42,001,2024-11-28_12h26.31.398,Attention_exp_legacy,2023.1.0,Win32,59.88023952,,,,,,,,,,,,,,,,,,,,,,,,,,,,,,,,,,,,,,,,,,,,
,,,,,,,0.329166667,0.662962963,1,0,0,calibration_square,0,18,18,18,1,0.33,0.67,42,001,2024-11-28_12h26.31.398,Attention_exp_legacy,2023.1.0,Win32,59.88023952,,,,,,,,,,,,,,,,,,,,,,,,,,,,,,,,,,,,,,,,,,,,
,,,,,,,-0.664583333,0.001851852,1,0,0,calibration_square,0,19,19,2,1,-0.67,0,42,001,2024-11-28_12h26.31.398,Attention_exp_legacy,2023.1.0,Win32,59.88023952,,,,,,,,,,,,,,,,,,,,,,,,,,,,,,,,,,,,,,,,,,,,
,,,,,,,0.001041667,-0.322222222,1,0,0,calibration_square,0,20,20,10,1,0,-0.33,42,001,2024-11-28_12h26.31.398,Attention_exp_legacy,2023.1.0,Win32,59.88023952,,,,,,,,,,,,,,,,,,,,,,,,,,,,,,,,,,,,,,,,,,,,
,,,,,,,,,,,,,,,,,,,,42,001,2024-11-28_12h26.31.398,Attention_exp_legacy,2023.1.0,Win32,59.88023952,"[1920,1080]","[640,480]",[0.022916666666666665],[-0.4888888888888889],[1],[0],[0],[6.180700000017879],"[""StartButton""]","[0.0875,0.0020833333333333333,0.0020833333333333333,0.0020833333333333333]","[0.3333333333333333,0.35555555555555557,0.35555555555555557,0.35555555555555557]","[1,1,1,1]","[0,0,0,0]","[0,0,0,0]","[0.35899999999999466,0.956100000023838,1.072499999999998,1.224600000023841]","[""Option1_label"",""Option1_label"",""Option1_label"",""Option1_label""]",Option1_label,1,1.3705,"[[0.16041666666666668,0.30185185185185187],[0.14895833333333333,0.2962962962962963],[0.14895833333333333,0.2962962962962963],[0.146875,0.2962962962962963],[0.14375,0.2962962962962963],[0.14270833333333333,0.2962962962962963],[0.140625,0.2962962962962963],[0.13958333333333334,0.2962962962962963],[0.13645833333333332,0.2962962962962963],[0.13645833333333332,0.2962962962962963],[0.13333333333333333,0.2962962962962963],[0.13020833333333334,0.2962962962962963],[0.121875,0.29814814814814816],[0.11666666666666667,0.30185185185185187],[0.10104166666666667,0.31851851851851853],[0.09583333333333334,0.32407407407407407],[0.0875,0.3333333333333333],[0.0875,0.3333333333333333],[0.0875,0.3333333333333333],[0.0875,0.3333333333333333],[0.0875,0.3333333333333333],[0.0875,0.3333333333333333],[0.0875,0.3333333333333333],[0.0875,0.3333333333333333],[0.0875,0.3333333333333333],[0.0875,0.3333333333333333],[0.0875,0.3333333333333333],[0.0875,0.3333333333333333],[0.0875,0.3333333333333333],[0.0875,0.3333333333333333],[0.0875,0.3333333333333333],[0.0875,0.3333333333333333],[0.0875,0.3333333333333333],[0.0875,0.3333333333333333],[0.0875,0.3333333333333333],[0.0875,0.3333333333333333],[0.0875,0.3333333333333333],[0.0875,0.3333333333333333],[0.0875,0.3333333333333333],[0.084375,0.3333333333333333],[0.08229166666666667,0.3333333333333333],[0.07395833333333333,0.3333333333333333],[0.07083333333333333,0.3333333333333333],[0.05416666666666667,0.3333333333333333],[0.04895833333333333,0.3333333333333333],[0.020833333333333332,0.34074074074074073],[0.017708333333333333,0.34074074074074073],[0.011458333333333333,0.34629629629629627],[0.010416666666666666,0.34814814814814815],[0.005208333333333333,0.3537037037037037],[0.004166666666666667,0.3537037037037037],[0.0020833333333333333,0.35555555555555557],[0.0020833333333333333,0.35555555555555557],[0.0020833333333333333,0.35555555555555557],[0.0020833333333333333,0.35555555555555557],[0.0020833333333333333,0.35555555555555557],[0.0020833333333333333,0.35555555555555557],[0.0020833333333333333,0.35555555555555557],[0.0020833333333333333,0.35555555555555557],[0.0020833333333333333,0.35555555555555557],[0.0020833333333333333,0.35555555555555557],[0.0020833333333333333,0.35555555555555557],[0.0020833333333333333,0.35555555555555557],[0.0020833333333333333,0.35555555555555557],[0.0020833333333333333,0.35555555555555557],[0.0020833333333333333,0.35555555555555557],[0.0020833333333333333,0.35555555555555557],[0.0020833333333333333,0.35555555555555557],[0.0020833333333333333,0.35555555555555557],[0.0020833333333333333,0.35555555555555557],[0.0020833333333333333,0.35555555555555557],[0.0020833333333333333,0.35555555555555557],[0.0020833333333333333,0.35555555555555557],[0.0020833333333333333,0.35555555555555557],[0.0020833333333333333,0.35555555555555557],[0.0020833333333333333,0.35555555555555557],[0.0020833333333333333,0.35555555555555557],[0.0020833333333333333,0.35555555555555557],[0.0020833333333333333,0.35555555555555557],[0.0010416666666666667,0.35555555555555557],[0.0010416666666666667,0.35555555555555557],[0.0010416666666666667,0.35555555555555557]]","[[0.16739583333333338,-0.6951851851851851],[0.16739583333333338,-0.6951851851851851],[0.16281249999999994,-0.6487037037037037],[0.14187500000000006,-0.647037037037037],[0.14187500000000006,-0.647037037037037],[0.14093749999999997,-0.6259259259259259],[0.18010416666666676,-0.5570370370370371],[0.18322916666666675,-0.48259259259259263],[0.20354166666666676,-0.39592592592592596],[0.20354166666666676,-0.39592592592592596],[0.18583333333333343,-0.337037037037037],[0.18583333333333343,-0.337037037037037],[0.15479166666666658,-0.2607407407407408],[0.15479166666666658,-0.2607407407407408],[0.11979166666666667,-0.2844444444444445],[0.11979166666666667,-0.2844444444444445],[0.14572916666666677,-0.2140740740740741],[0.14572916666666677,-0.2140740740740741],[0.16760416666666675,-0.19666666666666666],[0.16760416666666675,-0.19666666666666666],[0.16760416666666675,-0.19666666666666666],[0.16760416666666675,-0.19666666666666666],[0.16760416666666675,-0.19666666666666666],[0.16760416666666675,-0.19666666666666666],[0.16760416666666675,-0.19666666666666666],[0.1837500000000001,-0.16648148148148145],[0.1837500000000001,-0.16648148148148145],[0.1837500000000001,-0.16648148148148145],[0.1837500000000001,-0.16648148148148145],[0.19885416666666675,-0.1844444444444445],[0.19885416666666675,-0.1844444444444445],[0.19885416666666675,-0.1844444444444445],[0.19885416666666675,-0.1844444444444445],[0.1779166666666666,-0.19018518518518515],[0.1779166666666666,-0.19018518518518515],[0.18125,-0.21296296296296297],[0.18125,-0.21296296296296297],[0.18125,-0.21296296296296297],[0.18125,-0.21296296296296297],[0.1642708333333334,-0.22925925925925927],[0.1642708333333334,-0.22925925925925927],[0.11958333333333329,-0.2190740740740741],[0.11958333333333329,-0.2190740740740741],[0.11979166666666667,-0.21962962962962967],[0.11979166666666667,-0.21962962962962967],[0.15166666666666656,-0.2346296296296296],[0.15166666666666656,-0.2346296296296296],[0.11875,-0.2524074074074074],[0.11875,-0.2524074074074074],[0.06843750000000005,-0.3190740740740741],[0.06843750000000005,-0.3190740740740741],[0.09739583333333333,-0.3272222222222222],[0.09739583333333333,-0.3272222222222222],[0.035520833333333356,-0.29370370370370374],[0.035520833333333356,-0.29370370370370374],[0.035520833333333356,-0.29370370370370374],[0.03229166666666667,-0.3096296296296296],[0.03229166666666667,-0.3096296296296296],[0.011874999999999976,-0.2862962962962963],[0.011874999999999976,-0.2862962962962963],[0.011874999999999976,-0.2862962962962963],[0.011874999999999976,-0.2862962962962963],[0.011874999999999976,-0.2862962962962963],[0.0046875,-0.2737037037037037],[0.0046875,-0.2737037037037037],[0.0046875,-0.2737037037037037],[0.041666666666666664,-0.3562962962962963],[0.041666666666666664,-0.3562962962962963],[0.024166666666666715,-0.3562962962962963],[0.024166666666666715,-0.3562962962962963],[0.024166666666666715,-0.3562962962962963],[0.024166666666666715,-0.3562962962962963],[-0.12333333333333331,-0.3087037037037037],[-0.12333333333333331,-0.3087037037037037],[-0.2501041666666667,-0.4014814814814815],[-0.2501041666666667,-0.4014814814814815],[-0.2501041666666667,-0.4014814814814815],[-0.2501041666666667,-0.4014814814814815],[-0.3467708333333333,-0.40796296296296297],[-0.3467708333333333,-0.40796296296296297],[-0.4466666666666666,-0.4131481481481482],[-0.4466666666666666,-0.4131481481481482]]","[[0.16739583333333338,-0.6951851851851851,0.00009999999403476068],[0.16739583333333338,-0.6951851851851851,0.03539999997615695],[0.16281249999999994,-0.6487037037037037,0.04629999998211787],[0.14187500000000006,-0.647037037037037,0.06569999998807674],[0.14187500000000006,-0.647037037037037,0.07600000000000051],[0.14093749999999997,-0.6259259259259259,0.09269999998807776],[0.18010416666666676,-0.5570370370370371,0.10929999998211315],[0.18322916666666675,-0.48259259259259263,0.13100000000000023],[0.20354166666666676,-0.39592592592592596,0.1475999999940356],[0.20354166666666676,-0.39592592592592596,0.15919999998807555],[0.18583333333333343,-0.337037037037037,0.1986999999880794],[0.18583333333333343,-0.337037037037037,0.20579999998211918],[0.15479166666666658,-0.2607407407407408,0.2283999999761548],[0.15479166666666658,-0.2607407407407408,0.2427999999821182],[0.11979166666666667,-0.2844444444444445,0.26139999997615604],[0.11979166666666667,-0.2844444444444445,0.2705999999940403],[0.14572916666666677,-0.2140740740740741,0.2956999999880736],[0.14572916666666677,-0.2140740740740741,0.3027999999821134],[0.16760416666666675,-0.19666666666666666,0.3292999999821191],[0.16760416666666675,-0.19666666666666666,0.34009999999403817],[0.16760416666666675,-0.19666666666666666,0.3429999999999964],[0.16760416666666675,-0.19666666666666666,0.3633999999761528],[0.16760416666666675,-0.19666666666666666,0.3766999999880767],[0.16760416666666675,-0.19666666666666666,0.39339999997615394],[0.16760416666666675,-0.19666666666666666,0.40989999997615456],[0.1837500000000001,-0.16648148148148145,0.4451999999880769],[0.1837500000000001,-0.16648148148148145,0.45250000000000057],[0.1837500000000001,-0.16648148148148145,0.45909999999403794],[0.1837500000000001,-0.16648148148148145,0.49449999999999505],[0.19885416666666675,-0.1844444444444445,0.5108999999761537],[0.19885416666666675,-0.1844444444444445,0.519999999999996],[0.19885416666666675,-0.1844444444444445,0.5257999999821195],[0.19885416666666675,-0.1844444444444445,0.5431999999880759],[0.1779166666666666,-0.19018518518518515,0.5763999999761538],[0.1779166666666666,-0.19018518518518515,0.5835000000000008],[0.18125,-0.21296296296296297,0.6123999999761551],[0.18125,-0.21296296296296297,0.6192999999821183],[0.18125,-0.21296296296296297,0.6257999999821138],[0.18125,-0.21296296296296297,0.6433999999761539],[0.1642708333333334,-0.22925925925925927,0.681899999976153],[0.1642708333333334,-0.22925925925925927,0.6893999999761533],[0.11958333333333329,-0.2190740740740741,0.7107999999821146],[0.11958333333333329,-0.2190740740740741,0.7181999999880802],[0.11979166666666667,-0.21962962962962967,0.7455999999940346],[0.11979166666666667,-0.21962962962962967,0.7528999999761581],[0.15166666666666656,-0.2346296296296296,0.7800000000000011],[0.15166666666666656,-0.2346296296296296,0.7880999999940386],[0.11875,-0.2524074074074074,0.8132999999821138],[0.11875,-0.2524074074074074,0.8202999999821188],[0.06843750000000005,-0.3190740740740741,0.8449999999999989],[0.06843750000000005,-0.3190740740740741,0.8548999999761548],[0.09739583333333333,-0.3272222222222222,0.8789999999999978],[0.09739583333333333,-0.3272222222222222,0.8864999999999981],[0.035520833333333356,-0.29370370370370374,0.9110000000000014],[0.035520833333333356,-0.29370370370370374,0.9246999999880785],[0.035520833333333356,-0.29370370370370374,0.9278999999761552],[0.03229166666666667,-0.3096296296296296,0.9604999999999961],[0.03229166666666667,-0.3096296296296296,0.9696999999880802],[0.011874999999999976,-0.2862962962962963,0.992899999976153],[0.011874999999999976,-0.2862962962962963,1.0000999999940348],[0.011874999999999976,-0.2862962962962963,1.02919999998808],[0.011874999999999976,-0.2862962962962963,1.0304999999999964],[0.011874999999999976,-0.2862962962962963,1.0432999999821178],[0.0046875,-0.2737037037037037,1.0767999999821143],[0.0046875,-0.2737037037037037,1.0866999999880775],[0.0046875,-0.2737037037037037,1.093299999982115],[0.041666666666666664,-0.3562962962962963,1.126399999976158],[0.041666666666666664,-0.3562962962962963,1.1337999999821164],[0.024166666666666715,-0.3562962962962963,1.1613999999761546],[0.024166666666666715,-0.3562962962962963,1.1691999999880736],[0.024166666666666715,-0.3562962962962963,1.195999999999998],[0.024166666666666715,-0.3562962962962963,1.197399999976156],[-0.12333333333333331,-0.3087037037037037,1.2288999999761572],[-0.12333333333333331,-0.3087037037037037,1.2356999999880784],[-0.2501041666666667,-0.4014814814814815,1.2612999999821142],[-0.2501041666666667,-0.4014814814814815,1.2701999999880798],[-0.2501041666666667,-0.4014814814814815,1.2758999999761542],[-0.2501041666666667,-0.4014814814814815,1.2933999999761596],[-0.3467708333333333,-0.40796296296296297,1.3290000000000006],[-0.3467708333333333,-0.40796296296296297,1.3428999999761544],[-0.4466666666666666,-0.4131481481481482,1.363299999982118],[-0.4466666666666666,-0.4131481481481482,1.3704999999999998]]","[0.00009999999403476068,0.03539999997615695,0.04629999998211787,0.06569999998807674,0.07600000000000051,0.09269999998807776,0.10929999998211315,0.13100000000000023,0.1475999999940356,0.15919999998807555,0.1986999999880794,0.20579999998211918,0.2283999999761548,0.2427999999821182,0.26139999997615604,0.2705999999940403,0.2956999999880736,0.3027999999821134,0.3292999999821191,0.34009999999403817,0.3429999999999964,0.3633999999761528,0.3766999999880767,0.39339999997615394,0.40989999997615456,0.4451999999880769,0.45250000000000057,0.45909999999403794,0.49449999999999505,0.5108999999761537,0.519999999999996,0.5257999999821195,0.5431999999880759,0.5763999999761538,0.5835000000000008,0.6123999999761551,0.6192999999821183,0.6257999999821138,0.6433999999761539,0.681899999976153,0.6893999999761533,0.7107999999821146,0.7181999999880802,0.7455999999940346,0.7528999999761581,0.7800000000000011,0.7880999999940386,0.8132999999821138,0.8202999999821188,0.8449999999999989,0.8548999999761548,0.8789999999999978,0.8864999999999981,0.9110000000000014,0.9246999999880785,0.9278999999761552,0.9604999999999961,0.9696999999880802,0.992899999976153,1.0000999999940348,1.02919999998808,1.0304999999999964,1.0432999999821178,1.0767999999821143,1.0866999999880775,1.093299999982115,1.126399999976158,1.1337999999821164,1.1613999999761546,1.1691999999880736,1.195999999999998,1.197399999976156,1.2288999999761572,1.2356999999880784,1.2612999999821142,1.2701999999880798,1.2758999999761542,1.2933999999761596,1.3290000000000006,1.3428999999761544,1.363299999982118,1.3704999999999998]","[1732768039763,1732768039794,1732768039805,1732768039824,1732768039834,1732768039851,1732768039868,1732768039889,1732768039906,1732768039918,1732768039957,1732768039964,1732768039987,1732768040001,1732768040020,1732768040029,1732768040054,1732768040061,1732768040088,1732768040099,1732768040102,1732768040122,1732768040135,1732768040152,1732768040168,1732768040204,1732768040211,1732768040218,1732768040253,1732768040269,1732768040278,1732768040284,1732768040302,1732768040335,1732768040342,1732768040371,1732768040378,1732768040384,1732768040402,1732768040440,1732768040448,1732768040469,1732768040477,1732768040504,1732768040511,1732768040538,1732768040547,1732768040572,1732768040579,1732768040603,1732768040614,1732768040638,1732768040645,1732768040669,1732768040683,1732768040686,1732768040719,1732768040728,1732768040751,1732768040759,1732768040788,1732768040789,1732768040802,1732768040835,1732768040845,1732768040852,1732768040885,1732768040892,1732768040920,1732768040928,1732768040954,1732768040956,1732768040987,1732768040994,1732768041020,1732768041029,1732768041034,1732768041052,1732768041087,1732768041101,1732768041122,1732768041129]","[[1120.7,164.6],[1120.7,164.6],[1116.3,189.7],[1096.2,190.6],[1096.2,190.6],[1095.3,202],[1132.9,239.2],[1135.9,279.4],[1155.4,326.2],[1155.4,326.2],[1138.4,358],[1138.4,358],[1108.6,399.2],[1108.6,399.2],[1075,386.4],[1075,386.4],[1099.9,424.4],[1099.9,424.4],[1120.9,433.8],[1120.9,433.8],[1120.9,433.8],[1120.9,433.8],[1120.9,433.8],[1120.9,433.8],[1120.9,433.8],[1136.4,450.1],[1136.4,450.1],[1136.4,450.1],[1136.4,450.1],[1150.9,440.4],[1150.9,440.4],[1150.9,440.4],[1150.9,440.4],[1130.8,437.3],[1130.8,437.3],[1134,425],[1134,425],[1134,425],[1134,425],[1117.7,416.2],[1117.7,416.2],[1074.8,421.7],[1074.8,421.7],[1075,421.4],[1075,421.4],[1105.6,413.3],[1105.6,413.3],[1074,403.7],[1074,403.7],[1025.7,367.7],[1025.7,367.7],[1053.5,363.3],[1053.5,363.3],[994.1,381.4],[994.1,381.4],[994.1,381.4],[991,372.8],[991,372.8],[971.4,385.4],[971.4,385.4],[971.4,385.4],[971.4,385.4],[971.4,385.4],[964.5,392.2],[964.5,392.2],[964.5,392.2],[1000,347.6],[1000,347.6],[983.2,347.6],[983.2,347.6],[983.2,347.6],[983.2,347.6],[841.6,373.3],[841.6,373.3],[719.9,323.2],[719.9,323.2],[719.9,323.2],[719.9,323.2],[627.1,319.7],[627.1,319.7],[531.2,316.9],[531.2,316.9]]","[0,0.37864299999999995]","[0.37864299999999995,0.37864299999999995]","[-0.37864299999999995,0]","[-0.37864299999999995,-0.37864299999999995]","[0,0]","[0.37864299999999995,0]","[0,-0.37864299999999995]","[0.37864299999999995,-0.37864299999999995]",0,0,0,0,1,2,Laptop,7,1,11,9
,,,,,,,,,,,,,,,,,,,,42,001,2024-11-28_12h26.31.398,Attention_exp_legacy,2023.1.0,Win32,59.88023952,,,,,,,,,,[0.05625],[0.3611111111111111],[1],[0],[0],[3.347999999999999],"[""Option1_label""]",Option1_label,2,4.3647,"[[-0.003125,0.24074074074074073],[-0.003125,0.24074074074074073],[-0.003125,0.24074074074074073],[-0.003125,0.24074074074074073],[-0.003125,0.24074074074074073],[-0.003125,0.24074074074074073],[-0.003125,0.24074074074074073],[-0.003125,0.24074074074074073],[-0.003125,0.24074074074074073],[-0.003125,0.2388888888888889],[-0.003125,0.2388888888888889],[-0.003125,0.2388888888888889],[-0.003125,0.2388888888888889],[-0.003125,0.2388888888888889],[-0.003125,0.2388888888888889],[-0.003125,0.2388888888888889],[-0.003125,0.2388888888888889],[-0.003125,0.2388888888888889],[-0.003125,0.2388888888888889],[-0.003125,0.2388888888888889],[-0.003125,0.2388888888888889],[-0.003125,0.2388888888888889],[-0.003125,0.2388888888888889],[-0.003125,0.2388888888888889],[-0.003125,0.2388888888888889],[-0.003125,0.2388888888888889],[-0.015625,0.2574074074074074],[-0.027083333333333334,0.26851851851851855],[-0.04375,0.2796296296296296],[-0.06354166666666666,0.29074074074074074],[-0.08645833333333333,0.30185185185185187],[-0.09895833333333333,0.3074074074074074],[-0.11458333333333333,0.30925925925925923],[-0.121875,0.30925925925925923],[-0.14270833333333333,0.3074074074074074],[-0.17083333333333334,0.2833333333333333],[-0.17083333333333334,0.2833333333333333],[-0.23645833333333333,0.15],[-0.26979166666666665,0.06481481481481481],[-0.3,-0.011111111111111112],[-0.315625,-0.05185185185185185],[-0.32395833333333335,-0.06851851851851852],[-0.32916666666666666,-0.08518518518518518],[-0.3333333333333333,-0.0962962962962963],[-0.33645833333333336,-0.10740740740740741],[-0.33645833333333336,-0.10925925925925926],[-0.33645833333333336,-0.10925925925925926],[-0.33541666666666664,-0.1111111111111111],[-0.334375,-0.11481481481481481],[-0.3333333333333333,-0.11481481481481481],[-0.32708333333333334,-0.11666666666666667],[-0.3145833333333333,-0.13148148148148148],[-0.29375,-0.14629629629629629],[-0.2708333333333333,-0.1648148148148148],[-0.25,-0.1814814814814815],[-0.23125,-0.1962962962962963],[-0.21666666666666667,-0.2074074074074074],[-0.19895833333333332,-0.21851851851851853],[-0.19166666666666668,-0.2222222222222222],[-0.18125,-0.22777777777777777],[-0.17083333333333334,-0.23333333333333334],[-0.159375,-0.24074074074074073],[-0.15104166666666666,-0.24444444444444444],[-0.14375,-0.24814814814814815],[-0.13541666666666666,-0.2518518518518518],[-0.12708333333333333,-0.2518518518518518],[-0.11770833333333333,-0.25555555555555554],[-0.109375,-0.25555555555555554],[-0.09479166666666666,-0.25555555555555554],[-0.07708333333333334,-0.25555555555555554],[-0.051041666666666666,-0.25555555555555554],[-0.041666666666666664,-0.25925925925925924],[-0.026041666666666668,-0.2611111111111111],[-0.00625,-0.26296296296296295],[0.0020833333333333333,-0.26296296296296295],[0.013541666666666667,-0.26296296296296295],[0.027083333333333334,-0.26296296296296295],[0.046875,-0.26296296296296295],[0.06875,-0.26296296296296295],[0.09479166666666666,-0.26296296296296295],[0.12395833333333334,-0.26296296296296295],[0.14895833333333333,-0.26296296296296295],[0.184375,-0.26296296296296295],[0.19479166666666667,-0.26296296296296295],[0.21666666666666667,-0.26296296296296295],[0.23854166666666668,-0.26296296296296295],[0.271875,-0.26296296296296295],[0.29583333333333334,-0.26296296296296295],[0.31875,-0.26296296296296295],[0.34791666666666665,-0.26296296296296295],[0.37604166666666666,-0.2611111111111111],[0.4,-0.25555555555555554],[0.4270833333333333,-0.24074074074074073],[0.43125,-0.2388888888888889],[0.4375,-0.22592592592592592],[0.440625,-0.22037037037037038],[0.44166666666666665,-0.21296296296296297],[0.44375,-0.20185185185185187],[0.44375,-0.18888888888888888],[0.44375,-0.1685185185185185],[0.4427083333333333,-0.15185185185185185],[0.43645833333333334,-0.13518518518518519],[0.42916666666666664,-0.11481481481481481],[0.421875,-0.0962962962962963],[0.4125,-0.08148148148148149],[0.4,-0.06111111111111111],[0.396875,-0.05555555555555555],[0.390625,-0.05185185185185185],[0.384375,-0.046296296296296294],[0.36770833333333336,-0.037037037037037035],[0.36354166666666665,-0.03518518518518519],[0.35,-0.027777777777777776],[0.3416666666666667,-0.027777777777777776],[0.3333333333333333,-0.024074074074074074],[0.321875,-0.022222222222222223],[0.3020833333333333,-0.018518518518518517],[0.28125,-0.014814814814814815],[0.2604166666666667,-0.011111111111111112],[0.24583333333333332,-0.003703703703703704],[0.22604166666666667,-0.003703703703703704],[0.21145833333333333,-0.003703703703703704],[0.19166666666666668,-0.003703703703703704],[0.16770833333333332,-0.003703703703703704],[0.14166666666666666,-0.003703703703703704],[0.11666666666666667,-0.003703703703703704],[0.09479166666666666,-0.003703703703703704],[0.07395833333333333,-0.003703703703703704],[0.05416666666666667,-0.003703703703703704],[0.035416666666666666,-0.003703703703703704],[0.019791666666666666,-0.003703703703703704],[0.003125,-0.003703703703703704],[-0.009375,-0.003703703703703704],[-0.016666666666666666,-0.003703703703703704],[-0.022916666666666665,-0.007407407407407408],[-0.03229166666666667,-0.012962962962962963],[-0.04375,-0.018518518518518517],[-0.05520833333333333,-0.020370370370370372],[-0.06041666666666667,-0.022222222222222223],[-0.0625,-0.022222222222222223],[-0.0625,-0.022222222222222223],[-0.0625,-0.022222222222222223],[-0.0625,-0.022222222222222223],[-0.0625,-0.022222222222222223],[-0.0625,-0.022222222222222223],[-0.0625,-0.022222222222222223],[-0.0625,-0.022222222222222223],[-0.0625,-0.022222222222222223],[-0.059375,-0.022222222222222223],[-0.05520833333333333,-0.020370370370370372],[-0.046875,-0.016666666666666666],[-0.034375,-0.007407407407407408],[-0.01875,0.007407407407407408],[0.0020833333333333333,0.022222222222222223],[0.027083333333333334,0.04259259259259259],[0.06354166666666666,0.08518518518518518],[0.06979166666666667,0.0962962962962963],[0.078125,0.12777777777777777],[0.08229166666666667,0.17962962962962964],[0.08229166666666667,0.22592592592592592],[0.078125,0.2740740740740741],[0.07604166666666666,0.28703703703703703],[0.07395833333333333,0.3037037037037037],[0.071875,0.32222222222222224],[0.06979166666666667,0.3333333333333333],[0.06666666666666667,0.34444444444444444],[0.06354166666666666,0.34814814814814815],[0.0625,0.35185185185185186],[0.0625,0.35185185185185186],[0.06145833333333333,0.3537037037037037],[0.06041666666666667,0.3574074074074074],[0.058333333333333334,0.3592592592592593],[0.058333333333333334,0.3611111111111111],[0.058333333333333334,0.3611111111111111],[0.058333333333333334,0.3611111111111111],[0.058333333333333334,0.3611111111111111],[0.058333333333333334,0.3611111111111111],[0.058333333333333334,0.3611111111111111],[0.058333333333333334,0.3611111111111111],[0.058333333333333334,0.3611111111111111],[0.058333333333333334,0.3611111111111111],[0.058333333333333334,0.3611111111111111],[0.058333333333333334,0.3611111111111111],[0.058333333333333334,0.3611111111111111],[0.058333333333333334,0.3611111111111111],[0.058333333333333334,0.3611111111111111],[0.058333333333333334,0.3611111111111111],[0.058333333333333334,0.3611111111111111],[0.058333333333333334,0.3611111111111111],[0.058333333333333334,0.3611111111111111],[0.057291666666666664,0.3611111111111111],[0.057291666666666664,0.3611111111111111],[0.057291666666666664,0.3611111111111111],[0.057291666666666664,0.3611111111111111],[0.057291666666666664,0.3611111111111111],[0.057291666666666664,0.3611111111111111],[0.057291666666666664,0.3611111111111111],[0.057291666666666664,0.3611111111111111],[0.05625,0.3611111111111111],[0.05625,0.3611111111111111],[0.05625,0.3611111111111111],[0.05625,0.3611111111111111],[0.05625,0.3611111111111111],[0.05625,0.3611111111111111],[0.05625,0.3611111111111111],[0.05625,0.3611111111111111],[0.05625,0.3611111111111111],[0.05625,0.3611111111111111],[0.05625,0.3611111111111111],[0.05625,0.3611111111111111],[0.05625,0.3611111111111111],[0.05625,0.3611111111111111],[0.05625,0.3611111111111111],[0.05625,0.3611111111111111],[0.05625,0.3611111111111111],[0.05625,0.3611111111111111],[0.05625,0.3611111111111111],[0.05625,0.3611111111111111],[0.05625,0.3611111111111111],[0.05625,0.3611111111111111],[0.05625,0.3611111111111111],[0.05625,0.3611111111111111],[0.05625,0.3611111111111111],[0.05625,0.3611111111111111],[0.05625,0.3611111111111111],[0.05625,0.3611111111111111],[0.05625,0.3611111111111111],[0.05625,0.3611111111111111],[0.05625,0.3611111111111111],[0.05625,0.3611111111111111],[0.05625,0.3611111111111111],[0.05625,0.3611111111111111],[0.05625,0.3611111111111111],[0.05625,0.3611111111111111],[0.05625,0.3611111111111111],[0.05416666666666667,0.3592592592592593],[0.051041666666666666,0.35555555555555557],[0.05,0.35555555555555557],[0.04895833333333333,0.3537037037037037],[0.04479166666666667,0.35185185185185186],[0.042708333333333334,0.35],[0.041666666666666664,0.35],[0.041666666666666664,0.35],[0.041666666666666664,0.35],[0.041666666666666664,0.35],[0.041666666666666664,0.35],[0.041666666666666664,0.35],[0.041666666666666664,0.35],[0.041666666666666664,0.35],[0.03958333333333333,0.35],[0.029166666666666667,0.35],[0.014583333333333334,0.35],[0,0.35],[-0.013541666666666667,0.35],[-0.027083333333333334,0.35],[-0.03229166666666667,0.35185185185185186],[-0.03333333333333333,0.3537037037037037],[-0.03333333333333333,0.3537037037037037],[-0.03333333333333333,0.3537037037037037],[-0.03333333333333333,0.3537037037037037],[-0.03333333333333333,0.3537037037037037],[-0.03333333333333333,0.3537037037037037],[-0.03333333333333333,0.3537037037037037],[-0.03333333333333333,0.3537037037037037]]","[[-0.04874999999999995,-0.15166666666666662],[-0.04874999999999995,-0.15166666666666662],[-0.033958333333333354,-0.1714814814814815],[-0.033958333333333354,-0.1714814814814815],[-0.04635416666666667,-0.2537037037037037],[-0.04635416666666667,-0.2537037037037037],[-0.0012500000000000473,-0.26777777777777784],[-0.0012500000000000473,-0.26777777777777784],[-0.029375000000000047,-0.2535185185185185],[-0.029375000000000047,-0.2535185185185185],[-0.022812499999999975,-0.27611111111111114],[-0.022812499999999975,-0.27611111111111114],[-0.022812499999999975,-0.27611111111111114],[-0.022812499999999975,-0.27611111111111114],[0.017708333333333333,-0.24074074074074073],[0.017708333333333333,-0.24074074074074073],[0.021249999999999977,-0.23148148148148148],[0.021249999999999977,-0.23148148148148148],[0.05020833333333338,-0.3272222222222222],[0.05020833333333338,-0.3272222222222222],[0.0421875,-0.4033333333333334],[0.0421875,-0.4033333333333334],[0.03916666666666669,-0.3598148148148148],[0.03916666666666669,-0.3598148148148148],[0.03916666666666669,-0.3598148148148148],[0.03916666666666669,-0.3598148148148148],[-0.025729166666666713,-0.3979629629629629],[-0.025729166666666713,-0.3979629629629629],[-0.11052083333333336,-0.3668518518518519],[-0.11052083333333336,-0.3668518518518519],[-0.12447916666666667,-0.3883333333333333],[-0.12447916666666667,-0.3883333333333333],[-0.09333333333333335,-0.322037037037037],[-0.09333333333333335,-0.322037037037037],[-0.16239583333333332,-0.287962962962963],[-0.16239583333333332,-0.287962962962963],[-0.16239583333333332,-0.287962962962963],[-0.23374999999999999,-0.33111111111111113],[-0.23374999999999999,-0.33111111111111113],[-0.26968749999999997,-0.29666666666666663],[-0.32749999999999996,-0.2935185185185185],[-0.32749999999999996,-0.2935185185185185],[-0.36052083333333335,-0.2146296296296296],[-0.35041666666666665,-0.18759259259259262],[-0.3094791666666667,-0.07259259259259257],[-0.3094791666666667,-0.07259259259259257],[-0.2947916666666667,-0.09092592592592597],[-0.3168750000000001,-0.0544444444444444],[-0.3458333333333333,-0.08648148148148146],[-0.3458333333333333,-0.08648148148148146],[-0.3047916666666667,-0.056296296296296254],[-0.3047916666666667,-0.056296296296296254],[-0.23020833333333332,0.04759259259259268],[-0.23020833333333332,0.04759259259259268],[-0.2016666666666667,0.03148148148148148],[-0.17052083333333337,0.04611111111111107],[-0.18791666666666665,0.05648148148148148],[-0.21385416666666662,0.0301851851851851],[-0.21385416666666662,0.0301851851851851],[-0.2296875,-0.002777777777777778],[-0.23427083333333332,-0.006111111111111027],[-0.21124999999999997,-0.002777777777777778],[-0.18822916666666673,0.0005555555555554713],[-0.17052083333333337,-0.03981481481481482],[-0.17052083333333337,-0.03981481481481482],[-0.20625,-0.05962962962962961],[-0.17604166666666668,-0.006481481481481481],[-0.17604166666666668,-0.006481481481481481],[-0.13958333333333334,0.07537037037037045],[-0.0625,0.03537037037037041],[-0.01729166666666669,-0.005000000000000084],[-0.01729166666666669,-0.005000000000000084],[0.007083333333333286,0.013888888888888888],[0.0709374999999999,0.10444444444444441],[0.0709374999999999,0.10444444444444441],[0.0834374999999999,0.2205555555555556],[0.11916666666666677,0.2507407407407407],[0.12635416666666663,0.2911111111111112],[0.12635416666666663,0.2911111111111112],[0.16479166666666673,0.28055555555555556],[0.18854166666666666,0.26074074074074066],[0.2241666666666667,0.2462962962962963],[0.215625,0.29240740740740734],[0.215625,0.29240740740740734],[0.21020833333333327,0.3557407407407408],[0.20864583333333328,0.32518518518518524],[0.20666666666666675,0.2948148148148149],[0.20197916666666677,0.2381481481481482],[0.18333333333333332,0.2433333333333333],[0.18333333333333332,0.2433333333333333],[0.18468749999999995,0.2198148148148149],[0.1820833333333333,0.22444444444444453],[0.1662499999999999,0.21999999999999992],[0.1662499999999999,0.21999999999999992],[0.16156249999999991,0.2338888888888888],[0.16156249999999991,0.2338888888888888],[0.20750000000000005,0.14870370370370362],[0.20750000000000005,0.14870370370370362],[0.23947916666666677,0.12629629629629638],[0.1974999999999999,0.069074074074074],[0.1974999999999999,0.069074074074074],[0.15229166666666671,-0.01722222222222214],[0.16156249999999991,-0.05722222222222218],[0.19677083333333342,-0.06629629629629631],[0.1834374999999999,-0.04537037037037037],[0.1710416666666667,-0.05333333333333336],[0.1710416666666667,-0.05333333333333336],[0.18947916666666675,-0.06592592592592597],[0.16833333333333325,-0.10833333333333334],[0.16656250000000009,-0.04462962962962967],[0.16656250000000009,-0.04462962962962967],[0.15333333333333338,-0.06222222222222226],[0.15760416666666663,-0.013518518518518435],[0.15760416666666663,-0.013518518518518435],[0.16270833333333337,0.040370370370370286],[0.15895833333333323,0.025185185185185227],[0.12000000000000005,0.0031481481481482323],[0.12000000000000005,0.0031481481481482323],[0.09260416666666677,0.026666666666666623],[0.04812500000000005,0.04259259259259259],[0.014687500000000023,0.012407407407407492],[0.009687499999999953,-0.006296296296296254],[-0.042916666666666714,-0.03518518518518519],[-0.042916666666666714,-0.03518518518518519],[-0.10604166666666662,-0.06259259259259262],[-0.10604166666666662,-0.06259259259259262],[-0.06124999999999995,-0.05537037037037033],[-0.06124999999999995,-0.05537037037037033],[-0.04895833333333333,-0.03685185185185181],[-0.06177083333333329,-0.03037037037037033],[-0.06177083333333329,-0.03037037037037033],[-0.06375000000000004,-0.019444444444444445],[-0.03166666666666664,-0.07740740740740742],[0.04593750000000003,-0.030000000000000086],[0.033958333333333354,-0.056666666666666705],[0.033958333333333354,-0.056666666666666705],[0.01854166666666662,-0.03981481481481482],[0.01854166666666662,-0.03981481481481482],[0.04583333333333333,-0.04462962962962967],[0.07781250000000005,-0.038703703703703664],[0.05291666666666662,-0.08925925925925923],[0.030104166666666644,-0.11203703703703703],[0.012187500000000047,-0.11833333333333329],[0.009895833333333333,-0.13370370370370369],[0.027499999999999976,-0.10499999999999998],[-0.005729166666666666,-0.21666666666666667],[0.03864583333333336,-0.16314814814814818],[0.08645833333333333,-0.15314814814814812],[0.08645833333333333,-0.15314814814814812],[0.04791666666666667,-0.07981481481481485],[0.01854166666666662,-0.04537037037037037],[0.04354166666666662,0.018518518518518517],[0.04354166666666662,0.018518518518518517],[0.046875,0.02833333333333325],[0.03802083333333333,0.04407407407407399],[0.03802083333333333,0.04407407407407399],[0.03875000000000005,0.0455555555555556],[0.06177083333333329,0.044444444444444446],[0.06177083333333329,0.044444444444444446],[0.10072916666666672,0.08037037037037033],[0.10072916666666672,0.08037037037037033],[0.09322916666666667,0.07351851851851861],[0.0787499999999999,0.050370370370370454],[0.10968749999999995,-0.0020370370370370794],[0.14854166666666657,-0.027962962962963005],[0.16708333333333342,-0.06592592592592597],[0.1974999999999999,-0.08703703703703704],[0.1974999999999999,-0.08703703703703704],[0.28885416666666663,-0.0668518518518519],[0.32802083333333343,-0.04222222222222214],[0.3238541666666668,-0.04611111111111107],[0.2855208333333332,-0.02166666666666675],[0.26375000000000004,0.005185185185185101],[0.2775000000000001,0.03185185185185194],[0.2690624999999999,0.023148148148148147],[0.2716666666666666,0.01592592592592597],[0.3016666666666666,0.05129629629629638],[0.32864583333333336,0.0772222222222223],[0.3297916666666666,0.07018518518518514],[0.29145833333333326,0.04203703703703712],[0.24468750000000009,-0.025925925925925925],[0.20708333333333329,-0.07111111111111107],[0.1694791666666667,-0.11629629629629631],[0.12770833333333323,-0.12018518518518514],[0.12770833333333323,-0.12018518518518514],[0.10635416666666657,-0.10111111111111115],[0.06864583333333343,-0.06833333333333329],[-0.005104166666666643,-0.16500000000000004],[-0.06666666666666667,-0.22018518518518515],[-0.11312500000000002,-0.27611111111111114],[-0.11312500000000002,-0.27611111111111114],[-0.10854166666666672,-0.29500000000000004],[-0.07364583333333338,-0.23425925925925925],[0.025520833333333333,-0.21481481481481482],[0.12614583333333323,-0.19388888888888886],[0.2133333333333333,-0.19425925925925921],[0.17958333333333343,-0.21296296296296297],[0.21385416666666662,-0.20759259259259263],[0.2538541666666667,-0.175],[0.29093749999999996,-0.11351851851851855],[0.36843750000000003,-0.10203703703703708],[0.43739583333333343,-0.102962962962963],[0.47374999999999995,-0.13277777777777774],[0.47374999999999995,-0.13277777777777774],[0.4483333333333334,-0.21240740740740738],[0.4144791666666668,-0.29814814814814816],[0.33656249999999993,-0.33648148148148144],[0.3710416666666667,-0.3925925925925926],[0.3462500000000001,-0.4396296296296296],[0.32229166666666675,-0.43277777777777776],[0.31197916666666664,-0.48203703703703704],[0.3103125000000001,-0.4418518518518519],[0.29416666666666674,-0.43555555555555553],[0.29416666666666674,-0.43555555555555553],[0.22354166666666658,-0.46296296296296297],[0.22354166666666658,-0.46296296296296297],[0.21343750000000009,-0.4203703703703704],[0.19895833333333332,-0.36148148148148146],[0.22947916666666662,-0.33055555555555555],[0.24874999999999994,-0.28888888888888886],[0.30354166666666677,-0.2518518518518518],[0.28572916666666665,-0.23648148148148146],[0.31614583333333335,-0.20999999999999996],[0.2708333333333333,-0.25277777777777777],[0.2234375,-0.26777777777777784],[0.23052083333333329,-0.2490740740740741],[0.20604166666666662,-0.2548148148148149],[0.20750000000000005,-0.27388888888888885],[0.1970833333333334,-0.31592592592592594],[0.2181250000000001,-0.30092592592592593],[0.21124999999999997,-0.32814814814814813],[0.23989583333333328,-0.3453703703703704],[0.21208333333333323,-0.34296296296296297],[0.21302083333333333,-0.3588888888888889],[0.21124999999999997,-0.3351851851851852],[0.21124999999999997,-0.3351851851851852],[0.18447916666666658,-0.3587037037037037],[0.16708333333333342,-0.39000000000000007],[0.13510416666666672,-0.4196296296296297],[0.10656249999999995,-0.43629629629629635],[0.043958333333333384,-0.49370370370370376],[0.008229166666666643,-0.5325925925925926],[0.010312499999999976,-0.5322222222222222],[-0.019687499999999976,-0.5827777777777777],[-0.0546875,-0.592037037037037],[-0.0546875,-0.592037037037037],[-0.057291666666666664,-0.6238888888888888],[-0.03927083333333338,-0.5494444444444444],[-0.06833333333333336,-0.5211111111111111],[-0.02677083333333338,-0.46944444444444444],[-0.02677083333333338,-0.46944444444444444],[-0.02010416666666662,-0.44055555555555553],[0.012187500000000047,-0.4198148148148148],[0.06114583333333338,-0.40499999999999997],[0.11822916666666666,-0.40481481481481485],[0.175,-0.40629629629629627],[0.175,-0.40629629629629627],[0.1648958333333333,-0.38796296296296295],[0.17177083333333343,-0.3562962962962963],[0.1990624999999999,-0.41629629629629633],[0.1990624999999999,-0.41629629629629633],[0.2640625,-0.42240740740740745],[0.1984375,-0.39962962962962967]]","[[-0.04874999999999995,-0.15166666666666662,0],[-0.04874999999999995,-0.15166666666666662,0.009899999976155982],[-0.033958333333333354,-0.1714814814814815,0.031999999999996476],[-0.033958333333333354,-0.1714814814814815,0.04099999999999682],[-0.04635416666666667,-0.2537037037037037,0.06539999997615809],[-0.04635416666666667,-0.2537037037037037,0.07359999999403755],[-0.0012500000000000473,-0.26777777777777784,0.09689999997615217],[-0.0012500000000000473,-0.26777777777777784,0.10469999998807822],[-0.029375000000000047,-0.2535185185185185,0.13279999998211878],[-0.029375000000000047,-0.2535185185185185,0.1478999999761541],[-0.022812499999999975,-0.27611111111111114,0.1664999999999992],[-0.022812499999999975,-0.27611111111111114,0.17459999999403664],[-0.022812499999999975,-0.27611111111111114,0.17969999998807396],[-0.022812499999999975,-0.27611111111111114,0.1977999999821165],[0.017708333333333333,-0.24074074074074073,0.23199999999999932],[0.017708333333333333,-0.24074074074074073,0.23909999999403908],[0.021249999999999977,-0.23148148148148148,0.26389999997615377],[0.021249999999999977,-0.23148148148148148,0.27249999999999375],[0.05020833333333338,-0.3272222222222222,0.30119999998807856],[0.05020833333333338,-0.3272222222222222,0.3096999999880765],[0.0421875,-0.4033333333333334,0.3328999999761564],[0.0421875,-0.4033333333333334,0.34089999997615195],[0.03916666666666669,-0.3598148148148148,0.36589999997615763],[0.03916666666666669,-0.3598148148148148,0.37509999999403476],[0.03916666666666669,-0.3598148148148148,0.38049999999999784],[0.03916666666666669,-0.3598148148148148,0.3973999999761588],[-0.025729166666666713,-0.3979629629629629,0.43809999999403715],[-0.025729166666666713,-0.3979629629629629,0.4460999999940398],[-0.11052083333333336,-0.3668518518518519,0.4682999999821149],[-0.11052083333333336,-0.3668518518518519,0.4782999999821129],[-0.12447916666666667,-0.3883333333333333,0.5027999999821162],[-0.12447916666666667,-0.3883333333333333,0.5127999999821142],[-0.09333333333333335,-0.322037037037037,0.5356999999880756],[-0.09333333333333335,-0.322037037037037,0.5451999999880783],[-0.16239583333333332,-0.287962962962963,0.5702999999821188],[-0.16239583333333332,-0.287962962962963,0.5776999999880772],[-0.16239583333333332,-0.287962962962963,0.5803999999761587],[-0.23374999999999999,-0.33111111111111113,0.621799999982116],[-0.23374999999999999,-0.33111111111111113,0.6303999999761558],[-0.26968749999999997,-0.29666666666666663,0.6464999999999961],[-0.32749999999999996,-0.2935185185185185,0.667299999982113],[-0.32749999999999996,-0.2935185185185185,0.6829999999999998],[-0.36052083333333335,-0.2146296296296296,0.6965999999940351],[-0.35041666666666665,-0.18759259259259262,0.7175999999940359],[-0.3094791666666667,-0.07259259259259257,0.7374999999999972],[-0.3094791666666667,-0.07259259259259257,0.7465999999940394],[-0.2947916666666667,-0.09092592592592597,0.76309999999404],[-0.3168750000000001,-0.0544444444444444,0.779899999976152],[-0.3458333333333333,-0.08648148148148146,0.8031999999880739],[-0.3458333333333333,-0.08648148148148146,0.813199999988079],[-0.3047916666666667,-0.056296296296296254,0.8298999999761563],[-0.3047916666666667,-0.056296296296296254,0.8464999999999989],[-0.23020833333333332,0.04759259259259268,0.868699999988074],[-0.23020833333333332,0.04759259259259268,0.8797999999821187],[-0.2016666666666667,0.03148148148148148,0.8965999999940379],[-0.17052083333333337,0.04611111111111107,0.9131999999880733],[-0.18791666666666665,0.05648148148148148,0.9333999999761531],[-0.21385416666666662,0.0301851851851851,0.9517999999821143],[-0.21385416666666662,0.0301851851851851,0.9634999999999962],[-0.2296875,-0.002777777777777778,0.9798999999761548],[-0.23427083333333332,-0.006111111111111027,0.9994999999999976],[-0.21124999999999997,-0.002777777777777778,1.0167999999821191],[-0.18822916666666673,0.0005555555555554713,1.0348999999761546],[-0.17052083333333337,-0.03981481481481482,1.0526999999880786],[-0.17052083333333337,-0.03981481481481482,1.063199999988079],[-0.20625,-0.05962962962962961,1.0798999999761563],[-0.17604166666666668,-0.006481481481481481,1.1059999999999945],[-0.17604166666666668,-0.006481481481481481,1.1133999999761528],[-0.13958333333333334,0.07537037037037045,1.1300999999940373],[-0.0625,0.03537037037037041,1.1486999999880751],[-0.01729166666666669,-0.005000000000000084,1.170299999982113],[-0.01729166666666669,-0.005000000000000084,1.1798999999761577],[0.007083333333333286,0.013888888888888888,1.196699999988077],[0.0709374999999999,0.10444444444444441,1.2195999999940383],[0.0709374999999999,0.10444444444444441,1.2298999999761548],[0.0834374999999999,0.2205555555555556,1.2464999999999975],[0.11916666666666677,0.2507407407407407,1.2642999999821143],[0.12635416666666663,0.2911111111111112,1.2878999999761547],[0.12635416666666663,0.2911111111111112,1.2964999999999947],[0.16479166666666673,0.28055555555555556,1.313199999988079],[0.18854166666666666,0.26074074074074066,1.3298999999761563],[0.2241666666666667,0.2462962962962963,1.3498999999761523],[0.215625,0.29240740740740734,1.3688999999761577],[0.215625,0.29240740740740734,1.3798999999761534],[0.21020833333333327,0.3557407407407408,1.396599999994038],[0.20864583333333328,0.32518518518518524,1.4163999999761572],[0.20666666666666675,0.2948148148148149,1.4322999999821135],[0.20197916666666677,0.2381481481481482,1.4483999999761537],[0.18333333333333332,0.2433333333333333,1.471399999976157],[0.18333333333333332,0.2433333333333333,1.479799999982113],[0.18468749999999995,0.2198148148148149,1.4965999999940394],[0.1820833333333333,0.22444444444444453,1.5135999999940353],[0.1662499999999999,0.21999999999999992,1.5406999999880782],[0.1662499999999999,0.21999999999999992,1.5504999999999995],[0.16156249999999991,0.2338888888888888,1.5664999999999978],[0.16156249999999991,0.2338888888888888,1.5798999999761563],[0.20750000000000005,0.14870370370370362,1.6004999999999967],[0.20750000000000005,0.14870370370370362,1.6130999999940343],[0.23947916666666677,0.12629629629629638,1.6298999999761534],[0.1974999999999999,0.069074074074074,1.651899999976152],[0.1974999999999999,0.069074074074074,1.6635999999940339],[0.15229166666666671,-0.01722222222222214,1.6798999999761577],[0.16156249999999991,-0.05722222222222218,1.7025999999940353],[0.19677083333333342,-0.06629629629629631,1.7171999999880754],[0.1834374999999999,-0.04537037037037037,1.7335999999940341],[0.1710416666666667,-0.05333333333333336,1.7522999999821138],[0.1710416666666667,-0.05333333333333336,1.7639999999999958],[0.18947916666666675,-0.06592592592592597,1.779899999976152],[0.16833333333333325,-0.10833333333333334,1.7965999999940365],[0.16656250000000009,-0.04462962962962967,1.8160999999940373],[0.16656250000000009,-0.04462962962962967,1.8298999999761563],[0.15333333333333338,-0.06222222222222226,1.846499999999999],[0.15760416666666663,-0.013518518518518435,1.870199999988074],[0.15760416666666663,-0.013518518518518435,1.8798999999761534],[0.16270833333333337,0.040370370370370286,1.896499999999996],[0.15895833333333323,0.025185185185185227,1.9131999999880733],[0.12000000000000005,0.0031481481481482323,1.9329999999999998],[0.12000000000000005,0.0031481481481482323,1.9465000000000003],[0.09260416666666677,0.026666666666666623,1.9632999999821124],[0.04812500000000005,0.04259259259259259,1.983699999988076],[0.014687500000000023,0.012407407407407492,2.0010999999940395],[0.009687499999999953,-0.006296296296296254,2.0156999999880796],[-0.042916666666666714,-0.03518518518518519,2.031699999988078],[-0.042916666666666714,-0.03518518518518519,2.0512999999821133],[-0.10604166666666662,-0.06259259259259262,2.0634999999999977],[-0.10604166666666662,-0.06259259259259262,2.0799999999999983],[-0.06124999999999995,-0.05537037037037033,2.1005999999940386],[-0.06124999999999995,-0.05537037037037033,2.113199999988076],[-0.04895833333333333,-0.03685185185185181,2.1297999999821187],[-0.06177083333333329,-0.03037037037037033,2.1521999999880776],[-0.06177083333333329,-0.03037037037037033,2.1631999999880733],[-0.06375000000000004,-0.019444444444444445,2.179799999982116],[-0.03166666666666664,-0.07740740740740742,2.1965000000000003],[0.04593750000000003,-0.030000000000000086,2.2165999999940382],[0.033958333333333354,-0.056666666666666705,2.232199999988076],[0.033958333333333354,-0.056666666666666705,2.2464999999999975],[0.01854166666666662,-0.03981481481481482,2.267799999982117],[0.01854166666666662,-0.03981481481481482,2.2797999999821172],[0.04583333333333333,-0.04462962962962967,2.2965999999940365],[0.07781250000000005,-0.038703703703703664,2.3134999999999977],[0.05291666666666662,-0.08925925925925923,2.3299999999999983],[0.030104166666666644,-0.11203703703703703,2.3496999999880757],[0.012187500000000047,-0.11833333333333329,2.368099999994037],[0.009895833333333333,-0.13370370370370369,2.3837999999821164],[0.027499999999999976,-0.10499999999999998,2.399699999988073],[-0.005729166666666666,-0.21666666666666667,2.4176999999880735],[0.03864583333333336,-0.16314814814814818,2.433499999999995],[0.08645833333333333,-0.15314814814814812,2.452699999988077],[0.08645833333333333,-0.15314814814814812,2.4632999999821124],[0.04791666666666667,-0.07981481481481485,2.479899999976155],[0.01854166666666662,-0.04537037037037037,2.5003999999761533],[0.04354166666666662,0.018518518518518517,2.5165999999940354],[0.04354166666666662,0.018518518518518517,2.532499999999999],[0.046875,0.02833333333333325,2.5466999999880784],[0.03802083333333333,0.04407407407407399,2.5712999999821164],[0.03802083333333333,0.04407407407407399,2.579899999976149],[0.03875000000000005,0.0455555555555556,2.596499999999992],[0.06177083333333329,0.044444444444444446,2.6150999999940296],[0.06177083333333329,0.044444444444444446,2.649599999994038],[0.10072916666666672,0.08037037037037033,2.6560999999940407],[0.10072916666666672,0.08037037037037033,2.668799999982113],[0.09322916666666667,0.07351851851851861,2.6797999999821087],[0.0787499999999999,0.050370370370370454,2.701499999999996],[0.10968749999999995,-0.0020370370370370794,2.7164999999999964],[0.14854166666666657,-0.027962962962963005,2.7300999999940387],[0.16708333333333342,-0.06592592592592597,2.7464999999999975],[0.1974999999999999,-0.08703703703703704,2.768399999976154],[0.1974999999999999,-0.08703703703703704,2.7795999999940335],[0.28885416666666663,-0.0668518518518519,2.7966999999880784],[0.32802083333333343,-0.04222222222222214,2.8133999999761556],[0.3238541666666668,-0.04611111111111107,2.8326999999880798],[0.2855208333333332,-0.02166666666666675,2.84789999997615],[0.26375000000000004,0.005185185185185101,2.863299999982118],[0.2775000000000001,0.03185185185185194,2.8797999999821116],[0.2690624999999999,0.023148148148148147,2.8982999999821146],[0.2716666666666666,0.01592592592592597,2.9129999999999967],[0.3016666666666666,0.05129629629629638,2.929599999994039],[0.32864583333333336,0.0772222222222223,2.9462999999821164],[0.3297916666666666,0.07018518518518514,2.962999999999994],[0.29145833333333326,0.04203703703703712,2.980000000000004],[0.24468750000000009,-0.025925925925925925,2.9962999999821136],[0.20708333333333329,-0.07111111111111107,3.012899999976156],[0.1694791666666667,-0.11629629629629631,3.0295999999940335],[0.12770833333333323,-0.12018518518518514,3.0504999999999995],[0.12770833333333323,-0.12018518518518514,3.063199999988072],[0.10635416666666657,-0.10111111111111115,3.0795999999940307],[0.06864583333333343,-0.06833333333333329,3.099499999999992],[-0.005104166666666643,-0.16500000000000004,3.11789999997616],[-0.06666666666666667,-0.22018518518518515,3.1331999999880793],[-0.11312500000000002,-0.27611111111111114,3.149699999988073],[-0.11312500000000002,-0.27611111111111114,3.1630999999940315],[-0.10854166666666672,-0.29500000000000004,3.179599999994039],[-0.07364583333333338,-0.23425925925925925,3.1962999999821164],[0.025520833333333333,-0.21481481481481482,3.212999999999994],[0.12614583333333323,-0.19388888888888886,3.22979999998212],[0.2133333333333333,-0.19425925925925921,3.2503999999761533],[0.17958333333333343,-0.21296296296296297,3.2663999999761586],[0.21385416666666662,-0.20759259259259263,3.2819999999999965],[0.2538541666666667,-0.175,3.3004999999999995],[0.29093749999999996,-0.11351851851851855,3.3141999999880767],[0.36843750000000003,-0.10203703703703708,3.3296999999880796],[0.43739583333333343,-0.102962962962963,3.349399999976157],[0.47374999999999995,-0.13277777777777774,3.3688999999761506],[0.47374999999999995,-0.13277777777777774,3.3797999999821116],[0.4483333333333334,-0.21240740740740738,3.396399999976154],[0.4144791666666668,-0.29814814814814816,3.4129999999999967],[0.33656249999999993,-0.33648148148148144,3.429699999988074],[0.3710416666666667,-0.3925925925925926,3.446399999976151],[0.3462500000000001,-0.4396296296296296,3.462999999999994],[0.32229166666666675,-0.43277777777777776,3.4810999999940435],[0.31197916666666664,-0.48203703703703704,3.4962999999821136],[0.3103125000000001,-0.4418518518518519,3.5164999999999935],[0.29416666666666674,-0.43555555555555553,3.5347999999821127],[0.29416666666666674,-0.43555555555555553,3.5462999999821108],[0.22354166666666658,-0.46296296296296297,3.563099999994037],[0.22354166666666658,-0.46296296296296297,3.5796999999880796],[0.21343750000000009,-0.4203703703703704,3.596399999976157],[0.19895833333333332,-0.36148148148148146,3.6129999999999995],[0.22947916666666662,-0.33055555555555555,3.629599999994042],[0.24874999999999994,-0.28888888888888886,3.646399999976154],[0.30354166666666677,-0.2518518518518518,3.663599999994034],[0.28572916666666665,-0.23648148148148146,3.680299999982111],[0.31614583333333335,-0.20999999999999996,3.6962999999821164],[0.2708333333333333,-0.25277777777777777,3.713099999994043],[0.2234375,-0.26777777777777784,3.7308999999761596],[0.23052083333333329,-0.2490740740740741,3.7462999999821136],[0.20604166666666662,-0.2548148148148149,3.7642999999821143],[0.20750000000000005,-0.27388888888888885,3.7795999999940335],[0.1970833333333334,-0.31592592592592594,3.7963999999761597],[0.2181250000000001,-0.30092592592592593,3.8130000000000024],[0.21124999999999997,-0.32814814814814813,3.8297999999821144],[0.23989583333333328,-0.3453703703703704,3.846299999982122],[0.21208333333333323,-0.34296296296296297,3.863299999982118],[0.21302083333333333,-0.3588888888888889,3.8837999999821164],[0.21124999999999997,-0.3351851851851852,3.899399999976154],[0.21124999999999997,-0.3351851851851852,3.913299999982115],[0.18447916666666658,-0.3587037037037037,3.9298999999761577],[0.16708333333333342,-0.39000000000000007,3.9465000000000003],[0.13510416666666672,-0.4196296296296297,3.9670999999940335],[0.10656249999999995,-0.43629629629629635,3.981299999982113],[0.043958333333333384,-0.49370370370370376,3.9965999999940323],[0.008229166666666643,-0.5325925925925926,4.015999999999991],[0.010312499999999976,-0.5322222222222222,4.030199999988071],[-0.019687499999999976,-0.5827777777777777,4.04639999997616],[-0.0546875,-0.592037037037037,4.0660000000000025],[-0.0546875,-0.592037037037037,4.079599999994031],[-0.057291666666666664,-0.6238888888888888,4.096399999976157],[-0.03927083333333338,-0.5494444444444444,4.113199999988083],[-0.06833333333333336,-0.5211111111111111,4.134500000000003],[-0.02677083333333338,-0.46944444444444444,4.149299999982119],[-0.02677083333333338,-0.46944444444444444,4.16339999997615],[-0.02010416666666662,-0.44055555555555553,4.179899999976158],[0.012187500000000047,-0.4198148148148148,4.198899999976149],[0.06114583333333338,-0.40499999999999997,4.2171999999880825],[0.11822916666666666,-0.40481481481481485,4.2325999999940365],[0.175,-0.40629629629629627,4.251499999999993],[0.175,-0.40629629629629627,4.26309999999404],[0.1648958333333333,-0.38796296296296295,4.2795999999940335],[0.17177083333333343,-0.3562962962962963,4.29639999997616],[0.1990624999999999,-0.41629629629629633,4.3155],[0.1990624999999999,-0.41629629629629633,4.329599999994031],[0.2640625,-0.42240740740740745,4.346299999982122],[0.1984375,-0.39962962962962967,4.364699999988076]]","[0,0.009899999976155982,0.031999999999996476,0.04099999999999682,0.06539999997615809,0.07359999999403755,0.09689999997615217,0.10469999998807822,0.13279999998211878,0.1478999999761541,0.1664999999999992,0.17459999999403664,0.17969999998807396,0.1977999999821165,0.23199999999999932,0.23909999999403908,0.26389999997615377,0.27249999999999375,0.30119999998807856,0.3096999999880765,0.3328999999761564,0.34089999997615195,0.36589999997615763,0.37509999999403476,0.38049999999999784,0.3973999999761588,0.43809999999403715,0.4460999999940398,0.4682999999821149,0.4782999999821129,0.5027999999821162,0.5127999999821142,0.5356999999880756,0.5451999999880783,0.5702999999821188,0.5776999999880772,0.5803999999761587,0.621799999982116,0.6303999999761558,0.6464999999999961,0.667299999982113,0.6829999999999998,0.6965999999940351,0.7175999999940359,0.7374999999999972,0.7465999999940394,0.76309999999404,0.779899999976152,0.8031999999880739,0.813199999988079,0.8298999999761563,0.8464999999999989,0.868699999988074,0.8797999999821187,0.8965999999940379,0.9131999999880733,0.9333999999761531,0.9517999999821143,0.9634999999999962,0.9798999999761548,0.9994999999999976,1.0167999999821191,1.0348999999761546,1.0526999999880786,1.063199999988079,1.0798999999761563,1.1059999999999945,1.1133999999761528,1.1300999999940373,1.1486999999880751,1.170299999982113,1.1798999999761577,1.196699999988077,1.2195999999940383,1.2298999999761548,1.2464999999999975,1.2642999999821143,1.2878999999761547,1.2964999999999947,1.313199999988079,1.3298999999761563,1.3498999999761523,1.3688999999761577,1.3798999999761534,1.396599999994038,1.4163999999761572,1.4322999999821135,1.4483999999761537,1.471399999976157,1.479799999982113,1.4965999999940394,1.5135999999940353,1.5406999999880782,1.5504999999999995,1.5664999999999978,1.5798999999761563,1.6004999999999967,1.6130999999940343,1.6298999999761534,1.651899999976152,1.6635999999940339,1.6798999999761577,1.7025999999940353,1.7171999999880754,1.7335999999940341,1.7522999999821138,1.7639999999999958,1.779899999976152,1.7965999999940365,1.8160999999940373,1.8298999999761563,1.846499999999999,1.870199999988074,1.8798999999761534,1.896499999999996,1.9131999999880733,1.9329999999999998,1.9465000000000003,1.9632999999821124,1.983699999988076,2.0010999999940395,2.0156999999880796,2.031699999988078,2.0512999999821133,2.0634999999999977,2.0799999999999983,2.1005999999940386,2.113199999988076,2.1297999999821187,2.1521999999880776,2.1631999999880733,2.179799999982116,2.1965000000000003,2.2165999999940382,2.232199999988076,2.2464999999999975,2.267799999982117,2.2797999999821172,2.2965999999940365,2.3134999999999977,2.3299999999999983,2.3496999999880757,2.368099999994037,2.3837999999821164,2.399699999988073,2.4176999999880735,2.433499999999995,2.452699999988077,2.4632999999821124,2.479899999976155,2.5003999999761533,2.5165999999940354,2.532499999999999,2.5466999999880784,2.5712999999821164,2.579899999976149,2.596499999999992,2.6150999999940296,2.649599999994038,2.6560999999940407,2.668799999982113,2.6797999999821087,2.701499999999996,2.7164999999999964,2.7300999999940387,2.7464999999999975,2.768399999976154,2.7795999999940335,2.7966999999880784,2.8133999999761556,2.8326999999880798,2.84789999997615,2.863299999982118,2.8797999999821116,2.8982999999821146,2.9129999999999967,2.929599999994039,2.9462999999821164,2.962999999999994,2.980000000000004,2.9962999999821136,3.012899999976156,3.0295999999940335,3.0504999999999995,3.063199999988072,3.0795999999940307,3.099499999999992,3.11789999997616,3.1331999999880793,3.149699999988073,3.1630999999940315,3.179599999994039,3.1962999999821164,3.212999999999994,3.22979999998212,3.2503999999761533,3.2663999999761586,3.2819999999999965,3.3004999999999995,3.3141999999880767,3.3296999999880796,3.349399999976157,3.3688999999761506,3.3797999999821116,3.396399999976154,3.4129999999999967,3.429699999988074,3.446399999976151,3.462999999999994,3.4810999999940435,3.4962999999821136,3.5164999999999935,3.5347999999821127,3.5462999999821108,3.563099999994037,3.5796999999880796,3.596399999976157,3.6129999999999995,3.629599999994042,3.646399999976154,3.663599999994034,3.680299999982111,3.6962999999821164,3.713099999994043,3.7308999999761596,3.7462999999821136,3.7642999999821143,3.7795999999940335,3.7963999999761597,3.8130000000000024,3.8297999999821144,3.846299999982122,3.863299999982118,3.8837999999821164,3.899399999976154,3.913299999982115,3.9298999999761577,3.9465000000000003,3.9670999999940335,3.981299999982113,3.9965999999940323,4.015999999999991,4.030199999988071,4.04639999997616,4.0660000000000025,4.079599999994031,4.096399999976157,4.113199999988083,4.134500000000003,4.149299999982119,4.16339999997615,4.179899999976158,4.198899999976149,4.2171999999880825,4.2325999999940365,4.251499999999993,4.26309999999404,4.2795999999940335,4.29639999997616,4.3155,4.329599999994031,4.346299999982122,4.364699999988076]","[1732768042156,1732768042164,1732768042187,1732768042195,1732768042220,1732768042228,1732768042251,1732768042259,1732768042287,1732768042302,1732768042321,1732768042329,1732768042334,1732768042352,1732768042386,1732768042394,1732768042418,1732768042427,1732768042456,1732768042464,1732768042487,1732768042495,1732768042520,1732768042530,1732768042535,1732768042552,1732768042593,1732768042601,1732768042623,1732768042633,1732768042657,1732768042667,1732768042690,1732768042700,1732768042725,1732768042732,1732768042735,1732768042776,1732768042785,1732768042801,1732768042822,1732768042837,1732768042851,1732768042872,1732768042892,1732768042901,1732768042918,1732768042934,1732768042958,1732768042968,1732768042984,1732768043001,1732768043023,1732768043034,1732768043051,1732768043068,1732768043088,1732768043106,1732768043118,1732768043134,1732768043154,1732768043171,1732768043189,1732768043207,1732768043218,1732768043234,1732768043260,1732768043268,1732768043285,1732768043303,1732768043325,1732768043334,1732768043351,1732768043374,1732768043384,1732768043401,1732768043419,1732768043442,1732768043451,1732768043468,1732768043484,1732768043504,1732768043523,1732768043534,1732768043551,1732768043571,1732768043587,1732768043603,1732768043626,1732768043634,1732768043651,1732768043668,1732768043695,1732768043705,1732768043721,1732768043734,1732768043755,1732768043768,1732768043784,1732768043806,1732768043818,1732768043834,1732768043857,1732768043872,1732768043888,1732768043907,1732768043919,1732768043934,1732768043951,1732768043971,1732768043984,1732768044001,1732768044025,1732768044034,1732768044051,1732768044068,1732768044087,1732768044101,1732768044118,1732768044138,1732768044156,1732768044170,1732768044186,1732768044206,1732768044218,1732768044234,1732768044255,1732768044268,1732768044284,1732768044307,1732768044318,1732768044334,1732768044351,1732768044371,1732768044387,1732768044401,1732768044422,1732768044434,1732768044451,1732768044468,1732768044485,1732768044504,1732768044523,1732768044538,1732768044554,1732768044572,1732768044588,1732768044607,1732768044618,1732768044634,1732768044655,1732768044671,1732768044687,1732768044701,1732768044726,1732768044734,1732768044751,1732768044770,1732768044804,1732768044811,1732768044823,1732768044834,1732768044856,1732768044871,1732768044885,1732768044901,1732768044923,1732768044934,1732768044951,1732768044968,1732768044987,1732768045002,1732768045018,1732768045034,1732768045053,1732768045068,1732768045084,1732768045101,1732768045118,1732768045134,1732768045151,1732768045167,1732768045184,1732768045205,1732768045218,1732768045234,1732768045254,1732768045272,1732768045288,1732768045304,1732768045318,1732768045334,1732768045351,1732768045367,1732768045384,1732768045405,1732768045421,1732768045436,1732768045455,1732768045469,1732768045484,1732768045504,1732768045523,1732768045534,1732768045551,1732768045567,1732768045584,1732768045601,1732768045618,1732768045636,1732768045651,1732768045671,1732768045689,1732768045701,1732768045718,1732768045734,1732768045751,1732768045767,1732768045784,1732768045801,1732768045818,1732768045835,1732768045851,1732768045868,1732768045885,1732768045901,1732768045919,1732768045934,1732768045951,1732768045968,1732768045984,1732768046001,1732768046018,1732768046038,1732768046054,1732768046068,1732768046084,1732768046101,1732768046122,1732768046136,1732768046151,1732768046170,1732768046185,1732768046201,1732768046221,1732768046234,1732768046251,1732768046268,1732768046289,1732768046304,1732768046318,1732768046334,1732768046353,1732768046372,1732768046387,1732768046406,1732768046418,1732768046434,1732768046451,1732768046470,1732768046484,1732768046501,1732768046519]","[[913.2,458.1],[913.2,458.1],[927.4,447.4],[927.4,447.4],[915.5,403],[915.5,403],[958.8,395.4],[958.8,395.4],[931.8,403.1],[931.8,403.1],[938.1,390.9],[938.1,390.9],[938.1,390.9],[938.1,390.9],[977,410],[977,410],[980.4,415],[980.4,415],[1008.2,363.3],[1008.2,363.3],[1000.5,322.2],[1000.5,322.2],[997.6,345.7],[997.6,345.7],[997.6,345.7],[997.6,345.7],[935.3,325.1],[935.3,325.1],[853.9,341.9],[853.9,341.9],[840.5,330.3],[840.5,330.3],[870.4,366.1],[870.4,366.1],[804.1,384.5],[804.1,384.5],[804.1,384.5],[735.6,361.2],[735.6,361.2],[701.1,379.8],[645.6,381.5],[645.6,381.5],[613.9,424.1],[623.6,438.7],[662.9,500.8],[662.9,500.8],[677,490.9],[655.8,510.6],[628,493.3],[628,493.3],[667.4,509.6],[667.4,509.6],[739,565.7],[739,565.7],[766.4,557],[796.3,564.9],[779.6,570.5],[754.7,556.3],[754.7,556.3],[739.5,538.5],[735.1,536.7],[757.2,538.5],[779.3,540.3],[796.3,518.5],[796.3,518.5],[762,507.8],[791,536.5],[791,536.5],[826,580.7],[900,559.1],[943.4,537.3],[943.4,537.3],[966.8,547.5],[1028.1,596.4],[1028.1,596.4],[1040.1,659.1],[1074.4,675.4],[1081.3,697.2],[1081.3,697.2],[1118.2,691.5],[1141,680.8],[1175.2,673],[1167,697.9],[1167,697.9],[1161.8,732.1],[1160.3,715.6],[1158.4,699.2],[1153.9,668.6],[1136,671.4],[1136,671.4],[1137.3,658.7],[1134.8,661.2],[1119.6,658.8],[1119.6,658.8],[1115.1,666.3],[1115.1,666.3],[1159.2,620.3],[1159.2,620.3],[1189.9,608.2],[1149.6,577.3],[1149.6,577.3],[1106.2,530.7],[1115.1,509.1],[1148.9,504.2],[1136.1,515.5],[1124.2,511.2],[1124.2,511.2],[1141.9,504.4],[1121.6,481.5],[1119.9,515.9],[1119.9,515.9],[1107.2,506.4],[1111.3,532.7],[1111.3,532.7],[1116.2,561.8],[1112.6,553.6],[1075.2,541.7],[1075.2,541.7],[1048.9,554.4],[1006.2,563],[974.1,546.7],[969.3,536.6],[918.8,521],[918.8,521],[858.2,506.2],[858.2,506.2],[901.2,510.1],[901.2,510.1],[913,520.1],[900.7,523.6],[900.7,523.6],[898.8,529.5],[929.6,498.2],[1004.1,523.8],[992.6,509.4],[992.6,509.4],[977.8,518.5],[977.8,518.5],[1004,515.9],[1034.7,519.1],[1010.8,491.8],[988.9,479.5],[971.7,476.1],[969.5,467.8],[986.4,483.3],[954.5,423],[997.1,451.9],[1043,457.3],[1043,457.3],[1006,496.9],[977.8,515.5],[1001.8,550],[1001.8,550],[1005,555.3],[996.5,563.8],[996.5,563.8],[997.2,564.6],[1019.3,564],[1019.3,564],[1056.7,583.4],[1056.7,583.4],[1049.5,579.7],[1035.6,567.2],[1065.3,538.9],[1102.6,524.9],[1120.4,504.4],[1149.6,493],[1149.6,493],[1237.3,503.9],[1274.9,517.2],[1270.9,515.1],[1234.1,528.3],[1213.2,542.8],[1226.4,557.2],[1218.3,552.5],[1220.8,548.6],[1249.6,567.7],[1275.5,581.7],[1276.6,577.9],[1239.8,562.7],[1194.9,526],[1158.8,501.6],[1122.7,477.2],[1082.6,475.1],[1082.6,475.1],[1062.1,485.4],[1025.9,503.1],[955.1,450.9],[896,421.1],[851.4,390.9],[851.4,390.9],[855.8,380.7],[889.3,413.5],[984.5,424],[1081.1,435.3],[1164.8,435.1],[1132.4,425],[1165.3,427.9],[1203.7,445.5],[1239.3,478.7],[1313.7,484.9],[1379.9,484.4],[1414.8,468.3],[1414.8,468.3],[1390.4,425.3],[1357.9,379],[1283.1,358.3],[1316.2,328],[1292.4,302.6],[1269.4,306.3],[1259.5,279.7],[1257.9,301.4],[1242.4,304.8],[1242.4,304.8],[1174.6,290],[1174.6,290],[1164.9,313],[1151,344.8],[1180.3,361.5],[1198.8,384],[1251.4,404],[1234.3,412.3],[1263.5,426.6],[1220,403.5],[1174.5,395.4],[1181.3,405.5],[1157.8,402.4],[1159.2,392.1],[1149.2,369.4],[1169.4,377.5],[1162.8,362.8],[1190.3,353.5],[1163.6,354.8],[1164.5,346.2],[1162.8,359],[1162.8,359],[1137.1,346.3],[1120.4,329.4],[1089.7,313.4],[1062.3,304.4],[1002.2,273.4],[967.9,252.4],[969.9,252.6],[941.1,225.3],[907.5,220.3],[907.5,220.3],[905,203.1],[922.3,243.3],[894.4,258.6],[934.3,286.5],[934.3,286.5],[940.7,302.1],[971.7,313.3],[1018.7,321.3],[1073.5,321.4],[1128,320.6],[1128,320.6],[1118.3,330.5],[1124.9,347.6],[1151.1,315.2],[1151.1,315.2],[1213.5,311.9],[1150.5,324.2]]","[0,0.37864299999999995]","[0.37864299999999995,0.37864299999999995]","[-0.37864299999999995,-0.37864299999999995]","[-0.37864299999999995,0]","[0,-0.37864299999999995]","[0.37864299999999995,-0.37864299999999995]","[0,0]","[0.37864299999999995,0]",0,1,1,1,1,2,Laptop,13,7,11,1
