inst1_resp.keys,inst1_resp.rt,calibrationMouse.x,calibrationMouse.y,calibrationMouse.leftButton,calibrationMouse.midButton,calibrationMouse.rightButton,calibrationClick.x,calibrationClick.y,calibrationClick.leftButton,calibrationClick.midButton,calibrationClick.rightButton,calibrationClick.clicked_name,trialsc.thisRepN,trialsc.thisTrialN,trialsc.thisN,trialsc.thisIndex,trialsc.ran,calibration_x,calibration_y,participant,session,date,expName,psychopyVersion,OS,frameRate,ScreenRes_pixels,Camera_pixels,mouse_2.x,mouse_2.y,mouse_2.leftButton,mouse_2.midButton,mouse_2.rightButton,mouse_2.time,mouse_2.clicked_name,mouse.x,mouse.y,mouse.leftButton,mouse.midButton,mouse.rightButton,mouse.time,mouse.clicked_name,Choice,Trial,TrialDuration,MOUSE_GAZE,ET_GAZE,ET_GAZE_x_T,time,unixTime,ET_GAZE_NF,Loc_Option1_label,Loc_Option2_label,Loc_Cost_label,Loc_Qual_label,Loc_Option1_cost,Loc_Option2_cost,Loc_Option1_quality,Loc_Option2_quality,trials.thisRepN,trials.thisTrialN,trials.thisN,trials.thisIndex,trials.ran,Block,Device,cost1,qual1,cost2,qual2
space,2.8816,-0.366666667,-0.177777778,1,0,0,-0.001041667,0.664814815,1,0,0,calibration_square,0,0,0,13,1,0,0.67,32,001,2024-12-01_14h59.44.943,Attention_exp_legacy,2023.1.0,Win32,60.24096386,,,,,,,,,,,,,,,,,,,,,,,,,,,,,,,,,,,,,,,,,,,,
,,,,,,,0.003125,0.333333333,1,0,0,calibration_square,0,1,1,12,1,0,0.33,32,001,2024-12-01_14h59.44.943,Attention_exp_legacy,2023.1.0,Win32,60.24096386,,,,,,,,,,,,,,,,,,,,,,,,,,,,,,,,,,,,,,,,,,,,
,,,,,,,0.326041667,0.009259259,1,0,0,calibration_square,0,2,2,16,1,0.33,0,32,001,2024-12-01_14h59.44.943,Attention_exp_legacy,2023.1.0,Win32,60.24096386,,,,,,,,,,,,,,,,,,,,,,,,,,,,,,,,,,,,,,,,,,,,
,,,,,,,-0.667708333,0.324074074,1,0,0,calibration_square,0,3,3,3,1,-0.67,0.33,32,001,2024-12-01_14h59.44.943,Attention_exp_legacy,2023.1.0,Win32,60.24096386,,,,,,,,,,,,,,,,,,,,,,,,,,,,,,,,,,,,,,,,,,,,
,,,,,,,-0.325,-0.672222222,1,0,0,calibration_square,0,4,4,4,1,-0.33,-0.67,32,001,2024-12-01_14h59.44.943,Attention_exp_legacy,2023.1.0,Win32,60.24096386,,,,,,,,,,,,,,,,,,,,,,,,,,,,,,,,,,,,,,,,,,,,
,,,,,,,0,-0.677777778,1,0,0,calibration_square,0,5,5,9,1,0,-0.67,32,001,2024-12-01_14h59.44.943,Attention_exp_legacy,2023.1.0,Win32,60.24096386,,,,,,,,,,,,,,,,,,,,,,,,,,,,,,,,,,,,,,,,,,,,
,,,,,,,0.671875,0.668518519,1,0,0,calibration_square,0,6,6,19,1,0.67,0.67,32,001,2024-12-01_14h59.44.943,Attention_exp_legacy,2023.1.0,Win32,60.24096386,,,,,,,,,,,,,,,,,,,,,,,,,,,,,,,,,,,,,,,,,,,,
,,,,,,,-0.667708333,0.003703704,1,0,0,calibration_square,0,7,7,2,1,-0.67,0,32,001,2024-12-01_14h59.44.943,Attention_exp_legacy,2023.1.0,Win32,60.24096386,,,,,,,,,,,,,,,,,,,,,,,,,,,,,,,,,,,,,,,,,,,,
,,,,,,,-0.669791667,-0.67962963,1,0,0,calibration_square,0,8,8,0,1,-0.67,-0.67,32,001,2024-12-01_14h59.44.943,Attention_exp_legacy,2023.1.0,Win32,60.24096386,,,,,,,,,,,,,,,,,,,,,,,,,,,,,,,,,,,,,,,,,,,,
,,,,,,,-0.333333333,0.333333333,1,0,0,calibration_square,0,9,9,7,1,-0.33,0.33,32,001,2024-12-01_14h59.44.943,Attention_exp_legacy,2023.1.0,Win32,60.24096386,,,,,,,,,,,,,,,,,,,,,,,,,,,,,,,,,,,,,,,,,,,,
,,,,,,,0.329166667,0.324074074,1,0,0,calibration_square,0,10,10,17,1,0.33,0.33,32,001,2024-12-01_14h59.44.943,Attention_exp_legacy,2023.1.0,Win32,60.24096386,,,,,,,,,,,,,,,,,,,,,,,,,,,,,,,,,,,,,,,,,,,,
,,,,,,,-0.322916667,0.668518519,1,0,0,calibration_square,0,11,11,8,1,-0.33,0.67,32,001,2024-12-01_14h59.44.943,Attention_exp_legacy,2023.1.0,Win32,60.24096386,,,,,,,,,,,,,,,,,,,,,,,,,,,,,,,,,,,,,,,,,,,,
,,,,,,,0.328125,0.67037037,1,0,0,calibration_square,0,12,12,18,1,0.33,0.67,32,001,2024-12-01_14h59.44.943,Attention_exp_legacy,2023.1.0,Win32,60.24096386,,,,,,,,,,,,,,,,,,,,,,,,,,,,,,,,,,,,,,,,,,,,
,,,,,,,-0.667708333,-0.32962963,1,0,0,calibration_square,0,13,13,1,1,-0.67,-0.33,32,001,2024-12-01_14h59.44.943,Attention_exp_legacy,2023.1.0,Win32,60.24096386,,,,,,,,,,,,,,,,,,,,,,,,,,,,,,,,,,,,,,,,,,,,
,,,,,,,0.669791667,-0.672222222,1,0,0,calibration_square,0,14,14,20,1,0.67,-0.67,32,001,2024-12-01_14h59.44.943,Attention_exp_legacy,2023.1.0,Win32,60.24096386,,,,,,,,,,,,,,,,,,,,,,,,,,,,,,,,,,,,,,,,,,,,
,,,,,,,0.333333333,-0.327777778,1,0,0,calibration_square,0,15,15,15,1,0.33,-0.33,32,001,2024-12-01_14h59.44.943,Attention_exp_legacy,2023.1.0,Win32,60.24096386,,,,,,,,,,,,,,,,,,,,,,,,,,,,,,,,,,,,,,,,,,,,
,,,,,,,0.002083333,-0.331481481,1,0,0,calibration_square,0,16,16,10,1,0,-0.33,32,001,2024-12-01_14h59.44.943,Attention_exp_legacy,2023.1.0,Win32,60.24096386,,,,,,,,,,,,,,,,,,,,,,,,,,,,,,,,,,,,,,,,,,,,
,,,,,,,-0.327083333,-0.335185185,1,0,0,calibration_square,0,17,17,5,1,-0.33,-0.33,32,001,2024-12-01_14h59.44.943,Attention_exp_legacy,2023.1.0,Win32,60.24096386,,,,,,,,,,,,,,,,,,,,,,,,,,,,,,,,,,,,,,,,,,,,
,,,,,,,-0.325,-0.005555556,1,0,0,calibration_square,0,18,18,6,1,-0.33,0,32,001,2024-12-01_14h59.44.943,Attention_exp_legacy,2023.1.0,Win32,60.24096386,,,,,,,,,,,,,,,,,,,,,,,,,,,,,,,,,,,,,,,,,,,,
,,,,,,,0.333333333,-0.662962963,1,0,0,calibration_square,0,19,19,14,1,0.33,-0.67,32,001,2024-12-01_14h59.44.943,Attention_exp_legacy,2023.1.0,Win32,60.24096386,,,,,,,,,,,,,,,,,,,,,,,,,,,,,,,,,,,,,,,,,,,,
,,,,,,,-0.002083333,0,1,0,0,calibration_square,0,20,20,11,1,0,0,32,001,2024-12-01_14h59.44.943,Attention_exp_legacy,2023.1.0,Win32,60.24096386,,,,,,,,,,,,,,,,,,,,,,,,,,,,,,,,,,,,,,,,,,,,
,,,,,,,,,,,,,,,,,,,,32,001,2024-12-01_14h59.44.943,Attention_exp_legacy,2023.1.0,Win32,60.24096386,"[1920,1080]","[640,480]",[0.023958333333333335],[-0.49074074074074076],[1],[0],[0],[5.964199999988075],"[""StartButton""]",[0.015625],[0.32222222222222224],[1],[0],[0],[2.353600000023846],"[""Option1_label""]",Option1_label,1,3.362,"[[0.071875,-0.4777777777777778],[0.071875,-0.4777777777777778],[0.071875,-0.4777777777777778],[0.071875,-0.4777777777777778],[0.071875,-0.4777777777777778],[0.071875,-0.4777777777777778],[0.071875,-0.4777777777777778],[0.071875,-0.4777777777777778],[0.071875,-0.4777777777777778],[0.071875,-0.4777777777777778],[0.071875,-0.4777777777777778],[0.071875,-0.4777777777777778],[0.071875,-0.4777777777777778],[0.071875,-0.4777777777777778],[0.071875,-0.4777777777777778],[0.071875,-0.4777777777777778],[0.071875,-0.4777777777777778],[0.071875,-0.4777777777777778],[0.071875,-0.4777777777777778],[0.071875,-0.4777777777777778],[0.071875,-0.4777777777777778],[0.071875,-0.4777777777777778],[0.071875,-0.4777777777777778],[0.071875,-0.4777777777777778],[0.071875,-0.4777777777777778],[0.071875,-0.4777777777777778],[0.071875,-0.4777777777777778],[0.071875,-0.4777777777777778],[0.071875,-0.4777777777777778],[0.071875,-0.4777777777777778],[0.071875,-0.4777777777777778],[0.071875,-0.4777777777777778],[0.071875,-0.4777777777777778],[0.071875,-0.4777777777777778],[0.07083333333333333,-0.47962962962962963],[0.06770833333333333,-0.48518518518518516],[0.06458333333333334,-0.49444444444444446],[0.06145833333333333,-0.5],[0.06041666666666667,-0.5037037037037037],[0.058333333333333334,-0.5074074074074074],[0.057291666666666664,-0.5111111111111111],[0.05416666666666667,-0.5148148148148148],[0.052083333333333336,-0.5166666666666667],[0.05,-0.5203703703703704],[0.04791666666666667,-0.5222222222222223],[0.04375,-0.5277777777777778],[0.042708333333333334,-0.5296296296296297],[0.040625,-0.5333333333333333],[0.03958333333333333,-0.5351851851851852],[0.0375,-0.5388888888888889],[0.036458333333333336,-0.5407407407407407],[0.034375,-0.5444444444444444],[0.03125,-0.5537037037037037],[0.028125,-0.5611111111111111],[0.027083333333333334,-0.5648148148148148],[0.026041666666666668,-0.5685185185185185],[0.025,-0.5703703703703704],[0.022916666666666665,-0.575925925925926],[0.020833333333333332,-0.5814814814814815],[0.019791666666666666,-0.5833333333333334],[0.019791666666666666,-0.587037037037037],[0.01875,-0.5907407407407408],[0.017708333333333333,-0.5907407407407408],[0.017708333333333333,-0.5944444444444444],[0.016666666666666666,-0.5981481481481481],[0.016666666666666666,-0.6018518518518519],[0.014583333333333334,-0.6037037037037037],[0.014583333333333334,-0.6055555555555555],[0.014583333333333334,-0.6055555555555555],[0.014583333333333334,-0.6074074074074074],[0.014583333333333334,-0.6074074074074074],[0.013541666666666667,-0.6074074074074074],[0.013541666666666667,-0.6074074074074074],[0.013541666666666667,-0.6074074074074074],[0.013541666666666667,-0.6074074074074074],[0.013541666666666667,-0.6074074074074074],[0.013541666666666667,-0.6074074074074074],[0.013541666666666667,-0.6074074074074074],[0.013541666666666667,-0.6074074074074074],[0.013541666666666667,-0.6074074074074074],[0.013541666666666667,-0.6074074074074074],[0.013541666666666667,-0.6074074074074074],[0.013541666666666667,-0.6074074074074074],[0.013541666666666667,-0.6074074074074074],[0.013541666666666667,-0.6074074074074074],[0.013541666666666667,-0.6074074074074074],[0.013541666666666667,-0.6074074074074074],[0.013541666666666667,-0.6074074074074074],[0.013541666666666667,-0.6074074074074074],[0.013541666666666667,-0.6074074074074074],[0.013541666666666667,-0.6074074074074074],[0.013541666666666667,-0.6074074074074074],[0.013541666666666667,-0.6074074074074074],[0.013541666666666667,-0.6074074074074074],[0.013541666666666667,-0.6074074074074074],[0.013541666666666667,-0.6074074074074074],[0.013541666666666667,-0.6074074074074074],[0.013541666666666667,-0.6074074074074074],[0.013541666666666667,-0.6074074074074074],[0.013541666666666667,-0.6074074074074074],[0.013541666666666667,-0.6074074074074074],[0.013541666666666667,-0.6074074074074074],[0.013541666666666667,-0.6074074074074074],[0.013541666666666667,-0.6074074074074074],[0.013541666666666667,-0.6074074074074074],[0.013541666666666667,-0.6074074074074074],[0.013541666666666667,-0.6074074074074074],[0.013541666666666667,-0.6074074074074074],[0.013541666666666667,-0.6074074074074074],[0.013541666666666667,-0.6074074074074074],[0.013541666666666667,-0.6074074074074074],[0.013541666666666667,-0.6074074074074074],[0.013541666666666667,-0.6074074074074074],[0.013541666666666667,-0.6074074074074074],[0.013541666666666667,-0.5981481481481481],[0.013541666666666667,-0.5722222222222222],[0.013541666666666667,-0.5537037037037037],[0.015625,-0.47962962962962963],[0.015625,-0.4388888888888889],[0.015625,-0.3962962962962963],[0.015625,-0.35555555555555557],[0.015625,-0.3],[0.015625,-0.2351851851851852],[0.015625,-0.1685185185185185],[0.015625,-0.1111111111111111],[0.015625,-0.05],[0.015625,0.005555555555555556],[0.015625,0.05740740740740741],[0.015625,0.0962962962962963],[0.015625,0.1648148148148148],[0.015625,0.2074074074074074],[0.015625,0.23703703703703705],[0.015625,0.2518518518518518],[0.015625,0.26851851851851855],[0.015625,0.2833333333333333],[0.015625,0.29444444444444445],[0.015625,0.30185185185185187],[0.015625,0.30925925925925923],[0.015625,0.3148148148148148],[0.015625,0.32037037037037036],[0.015625,0.32222222222222224],[0.015625,0.32222222222222224],[0.015625,0.32222222222222224],[0.015625,0.32222222222222224],[0.015625,0.32222222222222224],[0.015625,0.32222222222222224],[0.015625,0.32222222222222224],[0.015625,0.32222222222222224],[0.015625,0.32222222222222224],[0.015625,0.32222222222222224],[0.015625,0.32222222222222224],[0.015625,0.32222222222222224],[0.015625,0.32222222222222224],[0.015625,0.32222222222222224],[0.015625,0.32222222222222224],[0.014583333333333334,0.32037037037037036],[0.008333333333333333,0.29259259259259257],[-0.0020833333333333333,0.25],[-0.01875,0.17962962962962964],[-0.0375,0.1],[-0.046875,0.02962962962962963],[-0.057291666666666664,-0.027777777777777776],[-0.07291666666666667,-0.12777777777777777],[-0.08333333333333333,-0.19444444444444445],[-0.09270833333333334,-0.2518518518518518],[-0.09791666666666667,-0.2833333333333333],[-0.10833333333333334,-0.3592592592592593],[-0.11145833333333334,-0.40370370370370373],[-0.11666666666666667,-0.4425925925925926],[-0.11979166666666667,-0.48333333333333334],[-0.12395833333333334,-0.5203703703703704],[-0.12604166666666666,-0.5518518518518518],[-0.12708333333333333,-0.5740740740740741],[-0.12708333333333333,-0.5851851851851851],[-0.12708333333333333,-0.5944444444444444],[-0.12708333333333333,-0.6018518518518519],[-0.12708333333333333,-0.6111111111111112],[-0.12708333333333333,-0.6148148148148148],[-0.12708333333333333,-0.6148148148148148],[-0.12708333333333333,-0.6148148148148148],[-0.12708333333333333,-0.6148148148148148],[-0.12708333333333333,-0.6166666666666667],[-0.12708333333333333,-0.6166666666666667],[-0.12708333333333333,-0.6185185185185185],[-0.12708333333333333,-0.6185185185185185],[-0.12708333333333333,-0.6185185185185185],[-0.12708333333333333,-0.6185185185185185],[-0.12708333333333333,-0.6185185185185185],[-0.12708333333333333,-0.6185185185185185],[-0.12708333333333333,-0.6185185185185185],[-0.12708333333333333,-0.6185185185185185],[-0.12708333333333333,-0.6185185185185185],[-0.12708333333333333,-0.6185185185185185],[-0.12708333333333333,-0.6185185185185185],[-0.12708333333333333,-0.6185185185185185],[-0.12708333333333333,-0.6185185185185185],[-0.12708333333333333,-0.6185185185185185],[-0.12708333333333333,-0.6185185185185185],[-0.12708333333333333,-0.6185185185185185],[-0.12708333333333333,-0.6185185185185185],[-0.12708333333333333,-0.6185185185185185],[-0.12708333333333333,-0.6185185185185185]]","[[0.052291666666666715,0.13796296296296295],[0.052291666666666715,0.13796296296296295],[0.05552083333333328,0.12185185185185177],[0.07062499999999995,0.1655555555555555],[0.07062499999999995,0.1655555555555555],[0.08572916666666662,0.20925925925925926],[0.07114583333333328,0.22870370370370371],[0.06447916666666664,0.21185185185185182],[0.04885416666666664,0.2222222222222222],[0.06312500000000003,0.20481481481481487],[0.07791666666666662,0.26592592592592595],[0.07197916666666657,0.30333333333333323],[0.06822916666666666,0.34074074074074073],[0.051770833333333384,0.3077777777777779],[0.03125,0.21092592592592588],[0.01072916666666662,0.11407407407407412],[0.013020833333333334,0.026851851851851852],[-0.0068750000000000235,-0.01444444444444436],[-0.0068750000000000235,-0.01444444444444436],[-0.005729166666666666,-0.03129629629629625],[-0.016354166666666715,-0.03925925925925934],[-0.016354166666666715,-0.03925925925925934],[-0.04083333333333338,-0.07666666666666662],[-0.04083333333333338,-0.07666666666666662],[-0.06427083333333337,-0.13277777777777774],[-0.08718750000000004,-0.13055555555555556],[-0.09291666666666672,-0.12685185185185185],[-0.1014583333333333,-0.09129629629629632],[-0.11000000000000003,-0.055740740740740785],[-0.11229166666666662,-0.0294444444444444],[-0.11947916666666672,0.00851851851851856],[-0.11697916666666662,0.07111111111111107],[-0.09750000000000002,0.10222222222222231],[-0.08479166666666664,0.10759259259259263],[-0.05249999999999998,0.16796296296296304],[-0.03770833333333338,0.15629629629629627],[-0.03312499999999995,0.20925925925925926],[-0.02822916666666669,0.22685185185185186],[-0.022291666666666644,0.2548148148148149],[0.0010416666666666667,0.2572222222222222],[0.016666666666666666,0.2433333333333333],[0.027499999999999976,0.19314814814814807],[0.019583333333333286,0.22740740740740734],[0.03093750000000005,0.2272222222222223],[0.02510416666666669,0.2192592592592592],[0.05302083333333331,0.22888888888888892],[0.04552083333333338,0.24055555555555552],[0.050520833333333334,0.272037037037037],[0.06354166666666666,0.2912962962962962],[0.09677083333333343,0.28722222222222227],[0.12843749999999995,0.2957407407407408],[0.15177083333333338,0.294074074074074],[0.17614583333333325,0.24055555555555552],[0.18677083333333327,0.23796296296296296],[0.1820833333333333,0.28481481481481474],[0.18135416666666657,0.26796296296296307],[0.22937500000000005,0.19129629629629621],[0.26104166666666656,0.19129629629629621],[0.2989583333333333,0.2022222222222223],[0.29145833333333326,0.2616666666666666],[0.29145833333333326,0.2616666666666666],[0.2504166666666668,0.26222222222222225],[0.2504166666666668,0.26222222222222225],[0.2179166666666667,0.26500000000000007],[0.17416666666666672,0.3205555555555556],[0.13354166666666673,0.3661111111111112],[0.11677083333333324,0.3635185185185184],[0.09604166666666672,0.3933333333333333],[0.09604166666666672,0.3933333333333333],[0.08250000000000005,0.43870370370370365],[0.051041666666666666,0.3992592592592593],[-0.00947916666666669,0.3888888888888889],[-0.06187499999999998,0.4335185185185186],[-0.08562500000000005,0.4503703703703705],[-0.10958333333333338,0.4751851851851852],[-0.11770833333333333,0.42888888888888893],[-0.1258333333333333,0.38259259259259265],[-0.1330208333333334,0.32462962962962955],[-0.14979166666666663,0.3412962962962962],[-0.1860416666666667,0.3001851851851852],[-0.19468749999999999,0.31740740740740736],[-0.20302083333333332,0.24666666666666676],[-0.21947916666666673,0.12092592592592584],[-0.21427083333333338,0.09796296296296292],[-0.21427083333333338,0.09796296296296292],[-0.20114583333333336,0.11092592592592589],[-0.20520833333333333,0.1257407407407407],[-0.21281249999999996,0.14870370370370362],[-0.19375,0.19425925925925921],[-0.1703125,0.19685185185185178],[-0.1430208333333333,0.24370370370370376],[-0.13239583333333335,0.29555555555555557],[-0.11229166666666662,0.40666666666666673],[-0.10760416666666663,0.4875925925925925],[-0.11041666666666666,0.556111111111111],[-0.09458333333333328,0.5709259259259258],[-0.09458333333333328,0.5709259259259258],[-0.05291666666666662,0.581851851851852],[-0.0390625,0.6196296296296296],[-0.0453125,0.6288888888888889],[-0.0453125,0.6288888888888889],[-0.06604166666666664,0.6142592592592594],[-0.060000000000000026,0.6388888888888888],[-0.028645833333333332,0.5535185185185185],[0.006666666666666643,0.4587037037037038],[0.04729166666666664,0.4372222222222223],[0.11989583333333324,0.3874074074074075],[0.140625,0.37592592592592594],[0.13229166666666667,0.4046296296296296],[0.1553124999999999,0.3983333333333334],[0.16875,0.4140740740740741],[0.18406250000000005,0.4581481481481481],[0.16749999999999995,0.4398148148148148],[0.1421875,0.48499999999999993],[0.12666666666666657,0.5516666666666666],[0.11624999999999991,0.5348148148148147],[0.11624999999999991,0.5348148148148147],[0.07520833333333338,0.5238888888888888],[0.04562499999999995,0.5055555555555555],[0.04010416666666667,0.48777777777777775],[0.04010416666666667,0.48777777777777775],[0.049583333333333354,0.4655555555555555],[0.049583333333333354,0.4655555555555555],[0.051041666666666666,0.3851851851851852],[0.041875000000000044,0.3198148148148149],[0.04125000000000002,0.2718518518518518],[0.040625,0.22388888888888886],[0.03291666666666669,0.22629629629629638],[0.03291666666666669,0.22629629629629638],[0.028541666666666642,0.18407407407407403],[0.016770833333333356,0.1844444444444445],[0.01885416666666669,0.17166666666666675],[0.01885416666666669,0.17166666666666675],[-0.009375,0.12555555555555548],[-0.034166666666666616,0.07833333333333325],[-0.04052083333333331,0.06796296296296304],[-0.04052083333333331,0.06796296296296304],[-0.043124999999999976,0.05592592592592601],[-0.0390625,0.03333333333333333],[-0.05322916666666669,0.012777777777777735],[-0.07010416666666662,-0.07962962962962963],[-0.08270833333333331,-0.05962962962962961],[-0.08927083333333338,-0.059814814814814835],[-0.09416666666666665,-0.08962962962962959],[-0.07697916666666664,-0.10648148148148148],[-0.058749999999999976,-0.13092592592592592],[-0.04885416666666664,-0.13851851851851854],[-0.03791666666666664,-0.16203703703703703],[-0.03791666666666664,-0.16203703703703703],[-0.04239583333333338,-0.18129629629629626],[-0.03166666666666664,-0.18907407407407412],[-0.02833333333333338,-0.1809259259259259],[-0.027604166666666666,-0.20018518518518522],[-0.027604166666666666,-0.20018518518518522],[-0.01260416666666669,-0.2681481481481482],[0.0016666666666666904,-0.31351851851851853],[0.004270833333333357,-0.33907407407407414],[-0.01260416666666669,-0.3514814814814815],[-0.03239583333333336,-0.37166666666666665],[-0.050312499999999954,-0.3388888888888889],[-0.05322916666666669,-0.31203703703703706],[-0.053125,-0.29870370370370375],[-0.04854166666666669,-0.28722222222222227],[-0.04562499999999995,-0.2801851851851852],[-0.05697916666666671,-0.22444444444444442],[-0.05697916666666671,-0.22444444444444442],[-0.06124999999999995,-0.18277777777777776],[-0.06593749999999995,-0.12611111111111115],[-0.07062499999999995,-0.06944444444444445],[-0.07062499999999995,-0.06944444444444445],[-0.06333333333333328,-0.014074074074074116],[-0.06333333333333328,-0.014074074074074116],[-0.05791666666666669,-0.009074074074074031],[-0.05791666666666669,-0.009074074074074031],[-0.07145833333333336,0.07148148148148152],[-0.090625,0.06314814814814819],[-0.07885416666666671,0.051666666666666625],[-0.07885416666666671,0.051666666666666625],[-0.08447916666666669,0.07407407407407407],[-0.08447916666666669,0.07407407407407407],[-0.08447916666666669,0.06796296296296304],[-0.09156249999999998,0.10185185185185185],[-0.09156249999999998,0.10185185185185185],[-0.08979166666666671,0.09907407407407408],[-0.08947916666666664,0.11870370370370374],[-0.09822916666666662,0.14740740740740746],[-0.10229166666666671,0.16740740740740737],[-0.09270833333333334,0.15592592592592602],[-0.07749999999999997,0.23333333333333334],[-0.09114583333333333,0.26666666666666666],[-0.09114583333333333,0.26666666666666666],[-0.08572916666666662,0.2705555555555556],[-0.0860416666666667,0.3077777777777779],[-0.08708333333333336,0.3146296296296296],[-0.08708333333333336,0.3146296296296296],[-0.08489583333333334,0.32333333333333336],[-0.09322916666666667,0.30462962962962964],[-0.0907291666666667,0.32685185185185184],[-0.0907291666666667,0.32685185185185184],[-0.08822916666666672,0.3490740740740741],[-0.0921875,0.3118518518518518],[-0.1015625,0.32407407407407407]]","[[0.052291666666666715,0.13796296296296295,0.00029999995231833054],[0.052291666666666715,0.13796296296296295,0.03989999997615712],[0.05552083333333328,0.12185185185185177,0.04669999998807839],[0.07062499999999995,0.1655555555555555,0.06329999995231361],[0.07062499999999995,0.1655555555555555,0.07679999995231412],[0.08572916666666662,0.20925925925925926,0.09359999996424051],[0.07114583333333328,0.22870370370370371,0.11159999996424119],[0.06447916666666664,0.21185185185185182,0.12959999996423477],[0.04885416666666664,0.2222222222222222,0.14629999995231913],[0.06312500000000003,0.20481481481481487,0.16459999996423846],[0.07791666666666662,0.26592592592592595,0.18129999995231572],[0.07197916666666657,0.30333333333333323,0.19739999997615598],[0.06822916666666666,0.34074074074074073,0.2131999999880776],[0.051770833333333384,0.3077777777777779,0.23049999999999926],[0.03125,0.21092592592592588,0.24689999997615786],[0.01072916666666662,0.11407407407407412,0.26279999995231407],[0.013020833333333334,0.026851851851851852,0.2797999999523171],[-0.0068750000000000235,-0.01444444444444436,0.2985999999642388],[-0.0068750000000000235,-0.01444444444444436,0.3103999999761555],[-0.005729166666666666,-0.03129629629629625,0.3269999999999982],[-0.016354166666666715,-0.03925925925925934,0.34669999998808265],[-0.016354166666666715,-0.03925925925925934,0.36069999998807845],[-0.04083333333333338,-0.07666666666666662,0.38009999996423716],[-0.04083333333333338,-0.07666666666666662,0.39350000000000307],[-0.06427083333333337,-0.13277777777777774,0.4101999999880803],[-0.08718750000000004,-0.13055555555555556,0.42679999995231555],[-0.09291666666666672,-0.12685185185185185,0.447399999976156],[-0.1014583333333333,-0.09129629629629632,0.4615000000000009],[-0.11000000000000003,-0.055740740740740785,0.47689999997616184],[-0.11229166666666662,-0.0294444444444444,0.4934999999999974],[-0.11947916666666672,0.00851851851851856,0.5145999999642399],[-0.11697916666666662,0.07111111111111107,0.5301999999880778],[-0.09750000000000002,0.10222222222222231,0.5440999999642386],[-0.08479166666666664,0.10759259259259263,0.5607999999523159],[-0.05249999999999998,0.16796296296296304,0.5805000000000007],[-0.03770833333333338,0.15629629629629627,0.5956999999880779],[-0.03312499999999995,0.20925925925925926,0.6102999999523178],[-0.02822916666666669,0.22685185185185186,0.6270000000000024],[-0.022291666666666644,0.2548148148148149,0.6460999999642354],[0.0010416666666666667,0.2572222222222222,0.6605999999642407],[0.016666666666666666,0.2433333333333333,0.6768999999761576],[0.027499999999999976,0.19314814814814807,0.6958999999761559],[0.019583333333333286,0.22740740740740734,0.7102999999523192],[0.03093750000000005,0.2272222222222223,0.7268999999761618],[0.02510416666666669,0.2192592592592592,0.7452999999523158],[0.05302083333333331,0.22888888888888892,0.7607999999523187],[0.04552083333333338,0.24055555555555552,0.777000000000001],[0.050520833333333334,0.272037037037037,0.7957999999523153],[0.06354166666666666,0.2912962962962962,0.8102999999523135],[0.09677083333333343,0.28722222222222227,0.8268999999761562],[0.12843749999999995,0.2957407407407408,0.8466999999880827],[0.15177083333333338,0.294074074074074,0.8616999999880832],[0.17614583333333325,0.24055555555555552,0.8770000000000024],[0.18677083333333327,0.23796296296296296,0.8960000000000008],[0.1820833333333333,0.28481481481481474,0.910299999952322],[0.18135416666666657,0.26796296296296307,0.9268999999761647],[0.22937500000000005,0.19129629629629621,0.9462999999523234],[0.26104166666666656,0.19129629629629621,0.9618999999761613],[0.2989583333333333,0.2022222222222223,0.9778999999761524],[0.29145833333333326,0.2616666666666666,0.9985999999642345],[0.29145833333333326,0.2616666666666666,1.0111999999880865],[0.2504166666666668,0.26222222222222225,1.0271999999880776],[0.2504166666666668,0.26222222222222225,1.0436999999880854],[0.2179166666666667,0.26500000000000007,1.0626999999880766],[0.17416666666666672,0.3205555555555556,1.0771999999880748],[0.13354166666666673,0.3661111111111112,1.0935999999642334],[0.11677083333333324,0.3635185185185184,1.1102999999523107],[0.09604166666666672,0.3933333333333333,1.1313999999761606],[0.09604166666666672,0.3933333333333333,1.143399999976161],[0.08250000000000005,0.43870370370370365,1.160500000000006],[0.051041666666666666,0.3992592592592593,1.1767999999523155],[-0.00947916666666669,0.3888888888888889,1.197499999999998],[-0.06187499999999998,0.4335185185185186,1.2115999999642426],[-0.08562500000000005,0.4503703703703705,1.2267999999523127],[-0.10958333333333338,0.4751851851851852,1.2435000000000045],[-0.11770833333333333,0.42888888888888893,1.2630999999642327],[-0.1258333333333333,0.38259259259259265,1.2780999999642333],[-0.1330208333333334,0.32462962962962955,1.2935000000000016],[-0.14979166666666663,0.3412962962962962,1.310099999964244],[-0.1860416666666667,0.3001851851851852,1.3266999999880866],[-0.19468749999999999,0.31740740740740736,1.3434999999999988],[-0.20302083333333332,0.24666666666666676,1.3600999999642411],[-0.21947916666666673,0.12092592592592584,1.3766999999880838],[-0.21427083333333338,0.09796296296296292,1.393499999999996],[-0.21427083333333338,0.09796296296296292,1.4101999999880732],[-0.20114583333333336,0.11092592592592589,1.4267999999523155],[-0.20520833333333333,0.1257407407407407,1.4435000000000073],[-0.21281249999999996,0.14870370370370362,1.4601999999880846],[-0.19375,0.19425925925925921,1.476699999988078],[-0.1703125,0.19685185185185178,1.4933999999761554],[-0.1430208333333333,0.24370370370370376,1.5101999999880817],[-0.13239583333333335,0.29555555555555557,1.5267999999523099],[-0.11229166666666662,0.40666666666666673,1.5435000000000016],[-0.10760416666666663,0.4875925925925925,1.560099999964244],[-0.11041666666666666,0.556111111111111,1.5767999999523212],[-0.09458333333333328,0.5709259259259258,1.5934999999999988],[-0.09458333333333328,0.5709259259259258,1.6100999999642411],[-0.05291666666666662,0.581851851851852,1.6267999999523184],[-0.0390625,0.6196296296296296,1.643399999976161],[-0.0453125,0.6288888888888889,1.6651999999880829],[-0.0453125,0.6288888888888889,1.6767999999523155],[-0.06604166666666664,0.6142592592592594,1.6935000000000073],[-0.060000000000000026,0.6388888888888888,1.7101999999880846],[-0.028645833333333332,0.5535185185185185,1.7267999999523127],[0.006666666666666643,0.4587037037037038,1.7435000000000045],[0.04729166666666664,0.4372222222222223,1.7601999999880817],[0.11989583333333324,0.3874074074074075,1.776899999976159],[0.140625,0.37592592592592594,1.7935000000000016],[0.13229166666666667,0.4046296296296296,1.8104999999999976],[0.1553124999999999,0.3983333333333334,1.8267999999523212],[0.16875,0.4140740740740741,1.8434999999999988],[0.18406250000000005,0.4581481481481481,1.8600999999642411],[0.16749999999999995,0.4398148148148148,1.8767999999523184],[0.1421875,0.48499999999999993,1.893399999976161],[0.12666666666666657,0.5516666666666666,1.9130000000000038],[0.11624999999999991,0.5348148148148147,1.929599999964232],[0.11624999999999991,0.5348148148148147,1.943599999964242],[0.07520833333333338,0.5238888888888888,1.9638999999761566],[0.04562499999999995,0.5055555555555555,1.9802999999523152],[0.04010416666666667,0.48777777777777775,1.998399999976165],[0.04010416666666667,0.48777777777777775,2.0147999999523236],[0.049583333333333354,0.4655555555555555,2.026999999999994],[0.049583333333333354,0.4655555555555555,2.0435999999642362],[0.051041666666666666,0.3851851851851852,2.0603999999761626],[0.041875000000000044,0.3198148148148149,2.0804999999999936],[0.04125000000000002,0.2718518518518518,2.094899999976157],[0.040625,0.22388888888888886,2.1102999999523107],[0.03291666666666669,0.22629629629629638,2.127199999988086],[0.03291666666666669,0.22629629629629638,2.147299999952317],[0.028541666666666642,0.18407407407407403,2.160399999976157],[0.016770833333333356,0.1844444444444445,2.178999999999995],[0.01885416666666669,0.17166666666666675,2.1975999999642326],[0.01885416666666669,0.17166666666666675,2.210299999952319],[-0.009375,0.12555555555555548,2.226899999976162],[-0.034166666666666616,0.07833333333333325,2.246199999988086],[-0.04052083333333331,0.06796296296296304,2.2632999999523165],[-0.04052083333333331,0.06796296296296304,2.276999999999994],[-0.043124999999999976,0.05592592592592601,2.2936999999880854],[-0.0390625,0.03333333333333333,2.3132999999523136],[-0.05322916666666669,0.012777777777777735,2.327699999988077],[-0.07010416666666662,-0.07962962962962963,2.343799999952317],[-0.08270833333333331,-0.05962962962962961,2.361799999952318],[-0.08927083333333338,-0.059814814814814835,2.3797999999523185],[-0.09416666666666665,-0.08962962962962959,2.395000000000003],[-0.07697916666666664,-0.10648148148148148,2.4116999999880804],[-0.058749999999999976,-0.13092592592592592,2.4283999999761576],[-0.04885416666666664,-0.13851851851851854,2.443399999976158],[-0.03791666666666664,-0.16203703703703703,2.468799999952317],[-0.03791666666666664,-0.16203703703703703,2.476899999976162],[-0.04239583333333338,-0.18129629629629626,2.4933999999761554],[-0.03166666666666664,-0.18907407407407412,2.5100999999642326],[-0.02833333333333338,-0.1809259259259259,2.52679999995231],[-0.027604166666666666,-0.20018518518518522,2.5433999999761525],[-0.027604166666666666,-0.20018518518518522,2.560199999988079],[-0.01260416666666669,-0.2681481481481482,2.5767999999523212],[0.0016666666666666904,-0.31351851851851853,2.596499999999999],[0.004270833333333357,-0.33907407407407414,2.612699999988074],[-0.01260416666666669,-0.3514814814814815,2.630399999976156],[-0.03239583333333336,-0.37166666666666665,2.6480000000000032],[-0.050312499999999954,-0.3388888888888889,2.662699999988085],[-0.05322916666666669,-0.31203703703703706,2.6776999999880857],[-0.053125,-0.29870370370370375,2.6976999999880817],[-0.04854166666666669,-0.28722222222222227,2.713599999964238],[-0.04562499999999995,-0.2801851851851852,2.728500000000004],[-0.05697916666666671,-0.22444444444444442,2.7438999999761577],[-0.05697916666666671,-0.22444444444444442,2.7642999999523212],[-0.06124999999999995,-0.18277777777777776,2.776999999999994],[-0.06593749999999995,-0.12611111111111115,2.7936999999880854],[-0.07062499999999995,-0.06944444444444445,2.813799999952316],[-0.07062499999999995,-0.06944444444444445,2.8267999999523212],[-0.06333333333333328,-0.014074074074074116,2.8435999999642334],[-0.06333333333333328,-0.014074074074074116,2.8602999999523107],[-0.05791666666666669,-0.009074074074074031,2.8807999999523233],[-0.05791666666666669,-0.009074074074074031,2.8935999999642448],[-0.07145833333333336,0.07148148148148152,2.910299999952322],[-0.090625,0.06314814814814819,2.9308999999761554],[-0.07885416666666671,0.051666666666666625,2.947399999976163],[-0.07885416666666671,0.051666666666666625,2.960299999952319],[-0.08447916666666669,0.07407407407407407,2.9767999999523127],[-0.08447916666666669,0.07407407407407407,2.9935000000000045],[-0.08447916666666669,0.06796296296296304,3.0101999999880817],[-0.09156249999999998,0.10185185185185185,3.036199999988078],[-0.09156249999999998,0.10185185185185185,3.0433999999761525],[-0.08979166666666671,0.09907407407407408,3.0602999999523135],[-0.08947916666666664,0.11870370370370374,3.0767999999523212],[-0.09822916666666662,0.14740740740740746,3.096499999999999],[-0.10229166666666671,0.16740740740740737,3.113199999988076],[-0.09270833333333334,0.15592592592592602,3.127500000000005],[-0.07749999999999997,0.23333333333333334,3.143499999999996],[-0.09114583333333333,0.26666666666666666,3.165599999964236],[-0.09114583333333333,0.26666666666666666,3.1767999999523155],[-0.08572916666666662,0.2705555555555556,3.1935000000000073],[-0.0860416666666667,0.3077777777777779,3.21429999995231],[-0.08708333333333336,0.3146296296296296,3.2323999999761597],[-0.08708333333333336,0.3146296296296296,3.2433999999761554],[-0.08489583333333334,0.32333333333333336,3.2600999999642326],[-0.09322916666666667,0.30462962962962964,3.2785999999642357],[-0.0907291666666667,0.32685185185185184,3.2941999999880736],[-0.0907291666666667,0.32685185185185184,3.310099999964244],[-0.08822916666666672,0.3490740740740741,3.3267999999523212],[-0.0921875,0.3118518518518518,3.3461999999880803],[-0.1015625,0.32407407407407407,3.362000000000002]]","[0.00029999995231833054,0.03989999997615712,0.04669999998807839,0.06329999995231361,0.07679999995231412,0.09359999996424051,0.11159999996424119,0.12959999996423477,0.14629999995231913,0.16459999996423846,0.18129999995231572,0.19739999997615598,0.2131999999880776,0.23049999999999926,0.24689999997615786,0.26279999995231407,0.2797999999523171,0.2985999999642388,0.3103999999761555,0.3269999999999982,0.34669999998808265,0.36069999998807845,0.38009999996423716,0.39350000000000307,0.4101999999880803,0.42679999995231555,0.447399999976156,0.4615000000000009,0.47689999997616184,0.4934999999999974,0.5145999999642399,0.5301999999880778,0.5440999999642386,0.5607999999523159,0.5805000000000007,0.5956999999880779,0.6102999999523178,0.6270000000000024,0.6460999999642354,0.6605999999642407,0.6768999999761576,0.6958999999761559,0.7102999999523192,0.7268999999761618,0.7452999999523158,0.7607999999523187,0.777000000000001,0.7957999999523153,0.8102999999523135,0.8268999999761562,0.8466999999880827,0.8616999999880832,0.8770000000000024,0.8960000000000008,0.910299999952322,0.9268999999761647,0.9462999999523234,0.9618999999761613,0.9778999999761524,0.9985999999642345,1.0111999999880865,1.0271999999880776,1.0436999999880854,1.0626999999880766,1.0771999999880748,1.0935999999642334,1.1102999999523107,1.1313999999761606,1.143399999976161,1.160500000000006,1.1767999999523155,1.197499999999998,1.2115999999642426,1.2267999999523127,1.2435000000000045,1.2630999999642327,1.2780999999642333,1.2935000000000016,1.310099999964244,1.3266999999880866,1.3434999999999988,1.3600999999642411,1.3766999999880838,1.393499999999996,1.4101999999880732,1.4267999999523155,1.4435000000000073,1.4601999999880846,1.476699999988078,1.4933999999761554,1.5101999999880817,1.5267999999523099,1.5435000000000016,1.560099999964244,1.5767999999523212,1.5934999999999988,1.6100999999642411,1.6267999999523184,1.643399999976161,1.6651999999880829,1.6767999999523155,1.6935000000000073,1.7101999999880846,1.7267999999523127,1.7435000000000045,1.7601999999880817,1.776899999976159,1.7935000000000016,1.8104999999999976,1.8267999999523212,1.8434999999999988,1.8600999999642411,1.8767999999523184,1.893399999976161,1.9130000000000038,1.929599999964232,1.943599999964242,1.9638999999761566,1.9802999999523152,1.998399999976165,2.0147999999523236,2.026999999999994,2.0435999999642362,2.0603999999761626,2.0804999999999936,2.094899999976157,2.1102999999523107,2.127199999988086,2.147299999952317,2.160399999976157,2.178999999999995,2.1975999999642326,2.210299999952319,2.226899999976162,2.246199999988086,2.2632999999523165,2.276999999999994,2.2936999999880854,2.3132999999523136,2.327699999988077,2.343799999952317,2.361799999952318,2.3797999999523185,2.395000000000003,2.4116999999880804,2.4283999999761576,2.443399999976158,2.468799999952317,2.476899999976162,2.4933999999761554,2.5100999999642326,2.52679999995231,2.5433999999761525,2.560199999988079,2.5767999999523212,2.596499999999999,2.612699999988074,2.630399999976156,2.6480000000000032,2.662699999988085,2.6776999999880857,2.6976999999880817,2.713599999964238,2.728500000000004,2.7438999999761577,2.7642999999523212,2.776999999999994,2.7936999999880854,2.813799999952316,2.8267999999523212,2.8435999999642334,2.8602999999523107,2.8807999999523233,2.8935999999642448,2.910299999952322,2.9308999999761554,2.947399999976163,2.960299999952319,2.9767999999523127,2.9935000000000045,3.0101999999880817,3.036199999988078,3.0433999999761525,3.0602999999523135,3.0767999999523212,3.096499999999999,3.113199999988076,3.127500000000005,3.143499999999996,3.165599999964236,3.1767999999523155,3.1935000000000073,3.21429999995231,3.2323999999761597,3.2433999999761554,3.2600999999642326,3.2785999999642357,3.2941999999880736,3.310099999964244,3.3267999999523212,3.3461999999880803,3.362000000000002]","[1733036439426,1733036439458,1733036439464,1733036439481,1733036439494,1733036439511,1733036439529,1733036439547,1733036439564,1733036439582,1733036439599,1733036439615,1733036439631,1733036439648,1733036439664,1733036439680,1733036439697,1733036439716,1733036439728,1733036439745,1733036439764,1733036439778,1733036439798,1733036439811,1733036439828,1733036439844,1733036439865,1733036439879,1733036439894,1733036439911,1733036439932,1733036439948,1733036439962,1733036439978,1733036439998,1733036440013,1733036440028,1733036440045,1733036440064,1733036440078,1733036440095,1733036440113,1733036440128,1733036440145,1733036440163,1733036440178,1733036440195,1733036440213,1733036440228,1733036440245,1733036440264,1733036440279,1733036440295,1733036440314,1733036440328,1733036440345,1733036440364,1733036440379,1733036440396,1733036440416,1733036440429,1733036440445,1733036440461,1733036440480,1733036440495,1733036440511,1733036440528,1733036440549,1733036440561,1733036440578,1733036440594,1733036440615,1733036440629,1733036440644,1733036440661,1733036440681,1733036440696,1733036440711,1733036440728,1733036440744,1733036440761,1733036440778,1733036440794,1733036440811,1733036440828,1733036440844,1733036440861,1733036440878,1733036440894,1733036440911,1733036440928,1733036440944,1733036440961,1733036440978,1733036440994,1733036441011,1733036441028,1733036441044,1733036441061,1733036441083,1733036441094,1733036441111,1733036441128,1733036441144,1733036441161,1733036441178,1733036441194,1733036441211,1733036441228,1733036441244,1733036441261,1733036441278,1733036441294,1733036441311,1733036441331,1733036441347,1733036441361,1733036441381,1733036441398,1733036441416,1733036441432,1733036441445,1733036441461,1733036441478,1733036441498,1733036441512,1733036441528,1733036441545,1733036441565,1733036441578,1733036441597,1733036441615,1733036441628,1733036441645,1733036441664,1733036441681,1733036441695,1733036441711,1733036441731,1733036441745,1733036441761,1733036441780,1733036441797,1733036441813,1733036441829,1733036441846,1733036441861,1733036441886,1733036441895,1733036441911,1733036441928,1733036441944,1733036441961,1733036441978,1733036441994,1733036442014,1733036442030,1733036442048,1733036442066,1733036442080,1733036442095,1733036442115,1733036442131,1733036442146,1733036442162,1733036442182,1733036442195,1733036442211,1733036442231,1733036442244,1733036442261,1733036442278,1733036442298,1733036442311,1733036442328,1733036442348,1733036442365,1733036442378,1733036442394,1733036442411,1733036442428,1733036442454,1733036442461,1733036442478,1733036442494,1733036442514,1733036442531,1733036442545,1733036442561,1733036442583,1733036442594,1733036442611,1733036442632,1733036442650,1733036442661,1733036442678,1733036442696,1733036442712,1733036442728,1733036442744,1733036442764,1733036442780]","[[1010.2,614.5],[1010.2,614.5],[1013.3,605.8],[1027.8,629.4],[1027.8,629.4],[1042.3,653],[1028.3,663.5],[1021.9,654.4],[1006.9,660],[1020.6,650.6],[1034.8,683.6],[1029.1,703.8],[1025.5,724],[1009.7,706.2],[990,653.9],[970.3,601.6],[972.5,554.5],[953.4,532.2],[953.4,532.2],[954.5,523.1],[944.3,518.8],[944.3,518.8],[920.8,498.6],[920.8,498.6],[898.3,468.3],[876.3,469.5],[870.8,471.5],[862.6,490.7],[854.4,509.9],[852.2,524.1],[845.3,544.6],[847.7,578.4],[866.4,595.2],[878.6,598.1],[909.6,630.7],[923.8,624.4],[928.2,653],[932.9,662.5],[938.6,677.6],[961,678.9],[976,671.4],[986.4,644.3],[978.8,662.8],[989.7,662.7],[984.1,658.4],[1010.9,663.6],[1003.7,669.9],[1008.5,686.9],[1021,697.3],[1052.9,695.1],[1083.3,699.7],[1105.7,698.8],[1129.1,669.9],[1139.3,668.5],[1134.8,693.8],[1134.1,684.7],[1180.2,643.3],[1210.6,643.3],[1247,649.2],[1239.8,681.3],[1239.8,681.3],[1200.4,681.6],[1200.4,681.6],[1169.2,683.1],[1127.2,713.1],[1088.2,737.7],[1072.1,736.3],[1052.2,752.4],[1052.2,752.4],[1039.2,776.9],[1009,755.6],[950.9,750],[900.6,774.1],[877.8,783.2],[854.8,796.6],[847,771.6],[839.2,746.6],[832.3,715.3],[816.2,724.3],[781.4,702.1],[773.1,711.4],[765.1,673.2],[749.3,605.3],[754.3,592.9],[754.3,592.9],[766.9,599.9],[763,607.9],[755.7,620.3],[774,644.9],[796.5,646.3],[822.7,671.6],[832.9,699.6],[852.2,759.6],[856.7,803.3],[854,840.3],[869.2,848.3],[869.2,848.3],[909.2,854.2],[922.5,874.6],[916.5,879.6],[916.5,879.6],[896.6,871.7],[902.4,885],[932.5,838.9],[966.4,787.7],[1005.4,776.1],[1075.1,749.2],[1095,743],[1087,758.5],[1109.1,755.1],[1122,763.6],[1136.7,787.4],[1120.8,777.5],[1096.5,801.9],[1081.6,837.9],[1071.6,828.8],[1071.6,828.8],[1032.2,822.9],[1003.8,813],[998.5,803.4],[998.5,803.4],[1007.6,791.4],[1007.6,791.4],[1009,748],[1000.2,712.7],[999.6,686.8],[999,660.9],[991.6,662.2],[991.6,662.2],[987.4,639.4],[976.1,639.6],[978.1,632.7],[978.1,632.7],[951,607.8],[927.2,582.3],[921.1,576.7],[921.1,576.7],[918.6,570.2],[922.5,558],[908.9,546.9],[892.7,497],[880.6,507.8],[874.3,507.7],[869.6,491.6],[886.1,482.5],[903.6,469.3],[913.1,465.2],[923.6,452.5],[923.6,452.5],[919.3,442.1],[929.6,437.9],[932.8,442.3],[933.5,431.9],[933.5,431.9],[947.9,395.2],[961.6,370.7],[964.1,356.9],[947.9,350.2],[928.9,339.3],[911.7,357],[908.9,371.5],[909,378.7],[913.4,384.9],[916.2,388.7],[905.3,418.8],[905.3,418.8],[901.2,441.3],[896.7,471.9],[892.2,502.5],[892.2,502.5],[899.2,532.4],[899.2,532.4],[904.4,535.1],[904.4,535.1],[891.4,578.6],[873,574.1],[884.3,567.9],[884.3,567.9],[878.9,580],[878.9,580],[878.9,576.7],[872.1,595],[872.1,595],[873.8,593.5],[874.1,604.1],[865.7,619.6],[861.8,630.4],[871,624.2],[885.6,666],[872.5,684],[872.5,684],[877.7,686.1],[877.4,706.2],[876.4,709.9],[876.4,709.9],[878.5,714.6],[870.5,704.5],[872.9,716.5],[872.9,716.5],[875.3,728.5],[871.5,708.4],[862.5,715]]","[0,0.3527331528]","[0.3527331528,0.3527331528]","[-0.3527331528,0]","[-0.3527331528,-0.3527331528]","[0,0]","[0.3527331528,0]","[0,-0.3527331528]","[0.3527331528,-0.3527331528]",0,0,0,0,1,1,Tablet,7,7,15,9
,,,,,,,,,,,,,,,,,,,,32,001,2024-12-01_14h59.44.943,Attention_exp_legacy,2023.1.0,Win32,60.24096386,,,,,,,,,,[0.35104166666666664],[0.34444444444444444],[1],[0],[0],[2.203700000047675],"[""Option2_label""]",Option2_label,2,3.2164,"[[-0.12708333333333333,-0.6185185185185185],[-0.12708333333333333,-0.6185185185185185],[-0.12708333333333333,-0.6185185185185185],[-0.12708333333333333,-0.6185185185185185],[-0.12708333333333333,-0.6185185185185185],[-0.12708333333333333,-0.6185185185185185],[-0.12708333333333333,-0.6185185185185185],[-0.12708333333333333,-0.6185185185185185],[-0.12708333333333333,-0.6185185185185185],[-0.12708333333333333,-0.6185185185185185],[-0.12708333333333333,-0.6185185185185185],[-0.12708333333333333,-0.6185185185185185],[-0.12708333333333333,-0.6185185185185185],[-0.12708333333333333,-0.6185185185185185],[-0.12708333333333333,-0.6185185185185185],[-0.12708333333333333,-0.6185185185185185],[-0.12708333333333333,-0.6185185185185185],[-0.12708333333333333,-0.6185185185185185],[-0.12708333333333333,-0.6185185185185185],[-0.12708333333333333,-0.6185185185185185],[-0.12708333333333333,-0.6185185185185185],[-0.12708333333333333,-0.6185185185185185],[-0.12708333333333333,-0.6185185185185185],[-0.12708333333333333,-0.6185185185185185],[-0.12708333333333333,-0.6185185185185185],[-0.12708333333333333,-0.6185185185185185],[-0.12708333333333333,-0.6185185185185185],[-0.12708333333333333,-0.6185185185185185],[-0.12708333333333333,-0.6185185185185185],[-0.12708333333333333,-0.6185185185185185],[-0.12708333333333333,-0.6185185185185185],[-0.12708333333333333,-0.6185185185185185],[-0.12708333333333333,-0.6185185185185185],[-0.12708333333333333,-0.6185185185185185],[-0.12708333333333333,-0.6185185185185185],[-0.12708333333333333,-0.6185185185185185],[-0.12708333333333333,-0.6185185185185185],[-0.12708333333333333,-0.6185185185185185],[-0.12708333333333333,-0.6185185185185185],[-0.12708333333333333,-0.6185185185185185],[-0.12708333333333333,-0.6185185185185185],[-0.12708333333333333,-0.6185185185185185],[-0.12708333333333333,-0.6185185185185185],[-0.12708333333333333,-0.6185185185185185],[-0.12708333333333333,-0.6185185185185185],[-0.12708333333333333,-0.6185185185185185],[-0.12708333333333333,-0.6185185185185185],[-0.12708333333333333,-0.6185185185185185],[-0.12708333333333333,-0.6185185185185185],[-0.12708333333333333,-0.6185185185185185],[-0.12708333333333333,-0.6185185185185185],[-0.12708333333333333,-0.6185185185185185],[-0.12708333333333333,-0.6185185185185185],[-0.12708333333333333,-0.6185185185185185],[-0.12708333333333333,-0.6185185185185185],[-0.12708333333333333,-0.6185185185185185],[-0.12708333333333333,-0.6185185185185185],[-0.12708333333333333,-0.6185185185185185],[-0.12708333333333333,-0.6185185185185185],[-0.12708333333333333,-0.6185185185185185],[-0.12708333333333333,-0.6185185185185185],[-0.12708333333333333,-0.6185185185185185],[-0.12708333333333333,-0.6185185185185185],[-0.12708333333333333,-0.6185185185185185],[-0.12708333333333333,-0.6185185185185185],[-0.12708333333333333,-0.6185185185185185],[-0.12708333333333333,-0.6185185185185185],[-0.12708333333333333,-0.6185185185185185],[-0.12708333333333333,-0.6185185185185185],[-0.12708333333333333,-0.6185185185185185],[-0.12708333333333333,-0.6185185185185185],[-0.12708333333333333,-0.6185185185185185],[-0.12708333333333333,-0.6185185185185185],[-0.12708333333333333,-0.6185185185185185],[-0.12708333333333333,-0.6185185185185185],[-0.12708333333333333,-0.6185185185185185],[-0.12708333333333333,-0.6185185185185185],[-0.12708333333333333,-0.6185185185185185],[-0.12708333333333333,-0.6185185185185185],[-0.12708333333333333,-0.6185185185185185],[-0.12708333333333333,-0.6185185185185185],[-0.12708333333333333,-0.6185185185185185],[-0.12708333333333333,-0.6185185185185185],[-0.12708333333333333,-0.6185185185185185],[-0.12708333333333333,-0.6185185185185185],[-0.12708333333333333,-0.6185185185185185],[-0.12708333333333333,-0.6185185185185185],[-0.12708333333333333,-0.6185185185185185],[-0.12708333333333333,-0.6185185185185185],[-0.12708333333333333,-0.6185185185185185],[-0.12708333333333333,-0.6185185185185185],[-0.12708333333333333,-0.6185185185185185],[-0.12708333333333333,-0.6185185185185185],[-0.12708333333333333,-0.6185185185185185],[-0.12708333333333333,-0.6185185185185185],[-0.12708333333333333,-0.6185185185185185],[-0.12708333333333333,-0.6185185185185185],[-0.12083333333333333,-0.6055555555555555],[-0.09375,-0.5648148148148148],[-0.016666666666666666,-0.42777777777777776],[0.09375,-0.2351851851851852],[0.2375,0.016666666666666666],[0.28125,0.09074074074074075],[0.3489583333333333,0.1925925925925926],[0.39895833333333336,0.26666666666666666],[0.42291666666666666,0.3074074074074074],[0.44166666666666665,0.35555555555555557],[0.45416666666666666,0.38333333333333336],[0.4625,0.40370370370370373],[0.4739583333333333,0.42592592592592593],[0.4822916666666667,0.44814814814814813],[0.48541666666666666,0.45925925925925926],[0.4864583333333333,0.46296296296296297],[0.48854166666666665,0.4703703703703704],[0.49583333333333335,0.49444444444444446],[0.4979166666666667,0.5074074074074074],[0.49895833333333334,0.5092592592592593],[0.49895833333333334,0.512962962962963],[0.49895833333333334,0.512962962962963],[0.49895833333333334,0.512962962962963],[0.490625,0.5018518518518519],[0.465625,0.4740740740740741],[0.4270833333333333,0.43703703703703706],[0.3958333333333333,0.4111111111111111],[0.38958333333333334,0.40370370370370373],[0.378125,0.3907407407407407],[0.3697916666666667,0.37962962962962965],[0.3625,0.3685185185185185],[0.35625,0.35555555555555557],[0.353125,0.34814814814814815],[0.35208333333333336,0.34629629629629627],[0.35104166666666664,0.34444444444444444],[0.35104166666666664,0.34444444444444444],[0.35104166666666664,0.34444444444444444],[0.35104166666666664,0.34444444444444444],[0.35104166666666664,0.34444444444444444],[0.35104166666666664,0.34444444444444444],[0.35104166666666664,0.34444444444444444],[0.35104166666666664,0.34444444444444444],[0.35104166666666664,0.34444444444444444],[0.35104166666666664,0.34444444444444444],[0.35104166666666664,0.34444444444444444],[0.35104166666666664,0.34444444444444444],[0.35104166666666664,0.34444444444444444],[0.35104166666666664,0.34444444444444444],[0.34479166666666666,0.337037037037037],[0.3302083333333333,0.32222222222222224],[0.31354166666666666,0.30185185185185187],[0.28229166666666666,0.2611111111111111],[0.26458333333333334,0.23333333333333334],[0.221875,0.16666666666666666],[0.18125,0.09444444444444444],[0.1375,-0.005555555555555556],[0.11458333333333333,-0.06296296296296296],[0.09895833333333333,-0.10555555555555556],[0.08958333333333333,-0.13703703703703704],[0.08020833333333334,-0.17037037037037037],[0.07291666666666667,-0.1962962962962963],[0.06458333333333334,-0.22777777777777777],[0.06145833333333333,-0.24814814814814815],[0.057291666666666664,-0.25925925925925924],[0.05625,-0.27037037037037037],[0.05520833333333333,-0.2777777777777778],[0.053125,-0.29074074074074074],[0.04895833333333333,-0.30925925925925923],[0.04791666666666667,-0.32222222222222224],[0.046875,-0.3296296296296296],[0.04479166666666667,-0.3351851851851852],[0.04479166666666667,-0.3425925925925926],[0.04375,-0.34814814814814815],[0.041666666666666664,-0.3537037037037037],[0.03958333333333333,-0.3648148148148148],[0.036458333333333336,-0.37222222222222223],[0.036458333333333336,-0.37962962962962965],[0.035416666666666666,-0.3851851851851852],[0.035416666666666666,-0.3888888888888889],[0.03333333333333333,-0.39444444444444443],[0.03333333333333333,-0.3962962962962963],[0.03333333333333333,-0.4],[0.03229166666666667,-0.40555555555555556],[0.03229166666666667,-0.40555555555555556],[0.03229166666666667,-0.40555555555555556],[0.03229166666666667,-0.40555555555555556],[0.03229166666666667,-0.40555555555555556],[0.03229166666666667,-0.40555555555555556],[0.03229166666666667,-0.40555555555555556],[0.03229166666666667,-0.40555555555555556],[0.03229166666666667,-0.40555555555555556],[0.03229166666666667,-0.40555555555555556],[0.03229166666666667,-0.40555555555555556],[0.03333333333333333,-0.4074074074074074],[0.036458333333333336,-0.4074074074074074],[0.040625,-0.4074074074074074],[0.04375,-0.4074074074074074]]","[[-0.06531250000000005,0.06462962962962959],[-0.06531250000000005,0.06462962962962959],[-0.06625000000000002,0.09944444444444453],[-0.06656249999999998,0.07981481481481485],[-0.07135416666666666,0.07462962962962955],[-0.07135416666666666,0.07462962962962955],[-0.10416666666666667,0.03481481481481473],[-0.1203125,-0.04314814814814806],[-0.13645833333333332,-0.12111111111111107],[-0.12312500000000005,-0.15981481481481483],[-0.10979166666666665,-0.1985185185185185],[-0.13093750000000004,-0.23296296296296298],[-0.14885416666666665,-0.28111111111111114],[-0.16416666666666668,-0.3244444444444444],[-0.16749999999999995,-0.3588888888888889],[-0.17083333333333334,-0.3933333333333333],[-0.1772916666666667,-0.4111111111111111],[-0.1977083333333333,-0.35851851851851857],[-0.21645833333333328,-0.290925925925926],[-0.24750000000000003,-0.2531481481481481],[-0.27854166666666663,-0.21537037037037038],[-0.299375,-0.20777777777777776],[-0.30885416666666665,-0.1868518518518518],[-0.30885416666666665,-0.1868518518518518],[-0.3186458333333333,-0.17925925925925928],[-0.3228125,-0.17222222222222222],[-0.32697916666666665,-0.16518518518518516],[-0.31843750000000004,-0.16074074074074077],[-0.3098958333333333,-0.15629629629629627],[-0.2952083333333333,-0.21888888888888886],[-0.2805208333333333,-0.2814814814814815],[-0.28250000000000003,-0.3068518518518518],[-0.29125,-0.30333333333333334],[-0.2861458333333334,-0.3183333333333333],[-0.2861458333333334,-0.3183333333333333],[-0.28072916666666664,-0.32],[-0.26968749999999997,-0.3301851851851852],[-0.26968749999999997,-0.3301851851851852],[-0.24427083333333333,-0.32833333333333337],[-0.23156249999999995,-0.3375925925925926],[-0.23156249999999995,-0.3375925925925926],[-0.2202083333333333,-0.32462962962962966],[-0.20979166666666665,-0.24814814814814815],[-0.19937499999999997,-0.17166666666666663],[-0.17229166666666665,-0.13240740740740742],[-0.12374999999999996,-0.12629629629629627],[-0.0890625,-0.10166666666666663],[-0.007500000000000047,-0.10499999999999998],[0.0626041666666667,-0.09666666666666665],[0.11624999999999991,-0.08555555555555554],[0.11624999999999991,-0.08555555555555554],[0.17395833333333333,-0.07166666666666664],[0.23624999999999996,-0.0948148148148148],[0.2921875,-0.1051851851851852],[0.3481250000000001,-0.11555555555555551],[0.40729166666666666,-0.15962962962962962],[0.46239583333333345,-0.14203703703703702],[0.49072916666666655,-0.15629629629629627],[0.4721874999999999,-0.1425925925925926],[0.4680208333333333,-0.12444444444444443],[0.46593749999999995,-0.12111111111111107],[0.4635416666666667,-0.1014814814814815],[0.4609375,-0.08870370370370366],[0.4578125,-0.10018518518518522],[0.46197916666666666,-0.13407407407407404],[0.46687500000000004,-0.10537037037037032],[0.4517708333333334,-0.11259259259259262],[0.4634375000000001,-0.08796296296296297],[0.47510416666666655,-0.06333333333333331],[0.4631249999999999,-0.09351851851851851],[0.45114583333333325,-0.12370370370370372],[0.46156249999999993,-0.1838888888888889],[0.46895833333333337,-0.22240740740740744],[0.43802083333333336,-0.23981481481481481],[0.3853125000000001,-0.22925925925925927],[0.3310416666666666,-0.24833333333333338],[0.2853125000000001,-0.27999999999999997],[0.2853125000000001,-0.27999999999999997],[0.22645833333333343,-0.2946296296296297],[0.17666666666666658,-0.3051851851851852],[0.11375000000000005,-0.2640740740740741],[0.11864583333333342,-0.15462962962962962],[0.1099999999999999,-0.03888888888888889],[0.1099999999999999,-0.03888888888888889],[0.09052083333333343,0.08203703703703695],[0.11791666666666671,0.16870370370370374],[0.20041666666666677,0.19148148148148145],[0.2805208333333333,0.21500000000000005],[0.3497916666666666,0.26703703703703713],[0.4321875000000001,0.3020370370370371],[0.4769791666666668,0.28888888888888886],[0.4769791666666668,0.28888888888888886],[0.5441666666666668,0.27444444444444455],[0.5336458333333333,0.23333333333333334],[0.5251041666666666,0.17833333333333326],[0.5068749999999999,0.11833333333333329],[0.4943749999999999,0.10777777777777786],[0.45979166666666677,0.1527777777777778],[0.45979166666666677,0.1527777777777778],[0.41124999999999995,0.17777777777777778],[0.3733333333333334,0.19888888888888884],[0.3304166666666667,0.19166666666666668],[0.3304166666666667,0.19166666666666668],[0.3177083333333333,0.23833333333333342],[0.30499999999999994,0.285],[0.29958333333333326,0.3098148148148147],[0.29718749999999994,0.33555555555555566],[0.29718749999999994,0.33555555555555566],[0.3140625,0.32981481481481484],[0.33583333333333343,0.21296296296296297],[0.3232291666666666,0.08740740740740749],[0.3232291666666666,0.08740740740740749],[0.33125,-0.018333333333333292],[0.3416666666666667,-0.1557407407407408],[0.3532291666666666,-0.25],[0.3631249999999999,-0.35407407407407404],[0.3631249999999999,-0.35407407407407404],[0.37604166666666666,-0.43203703703703705],[0.3966666666666666,-0.5188888888888888],[0.4084374999999999,-0.554074074074074],[0.41427083333333337,-0.5796296296296296],[0.4283333333333334,-0.5816666666666667],[0.45822916666666674,-0.5722222222222222],[0.4495833333333332,-0.5370370370370371],[0.4495833333333332,-0.5370370370370371],[0.4515625,-0.4951851851851851],[0.4573958333333332,-0.46814814814814815],[0.4587500000000001,-0.40370370370370373],[0.4587500000000001,-0.40370370370370373],[0.45593750000000005,-0.3881481481481482],[0.45593750000000005,-0.3881481481481482],[0.44406249999999997,-0.3853703703703704],[0.43895833333333345,-0.41074074074074074],[0.4410416666666668,-0.41444444444444445],[0.42781250000000004,-0.3990740740740741],[0.40958333333333335,-0.37907407407407406],[0.42843749999999997,-0.37481481481481477],[0.4205208333333334,-0.37537037037037035],[0.4214583333333332,-0.4225925925925926],[0.42687499999999995,-0.5072222222222221],[0.42687499999999995,-0.5072222222222221],[0.4334374999999999,-0.5690740740740741],[0.4502083333333334,-0.6055555555555555],[0.475,-0.6372222222222222],[0.475,-0.6372222222222222],[0.4978125000000001,-0.6644444444444445],[0.49874999999999997,-0.6811111111111111],[0.49229166666666657,-0.667037037037037],[0.4806250000000001,-0.6627777777777777],[0.4806250000000001,-0.6627777777777777],[0.4806250000000001,-0.6124074074074074],[0.47333333333333344,-0.5333333333333333],[0.46604166666666674,-0.4542592592592593],[0.44375,-0.372037037037037],[0.42385416666666675,-0.31851851851851853],[0.39260416666666675,-0.2794444444444444],[0.39260416666666675,-0.2794444444444444],[0.34562499999999996,-0.2490740740740741],[0.28541666666666665,-0.1853703703703704],[0.2548958333333334,-0.16518518518518516],[0.2548958333333334,-0.16518518518518516],[0.21375000000000005,-0.07370370370370373],[0.1834374999999999,-0.08648148148148146],[0.13614583333333338,-0.012037037037037037],[0.11916666666666677,-0.008148148148148106],[0.078125,-0.021481481481481525],[0.028437499999999952,-0.02962962962962963],[0.028437499999999952,-0.02962962962962963],[-0.013229166666666714,0.07166666666666675],[-0.02947916666666662,0.16500000000000004],[-0.022708333333333285,0.24666666666666676],[-0.04874999999999995,0.2861111111111111],[-0.07145833333333336,0.29074074074074074],[-0.07625000000000005,0.3611111111111111],[-0.06385416666666661,0.34018518518518526],[-0.09770833333333329,0.39740740740740743],[-0.09249999999999996,0.46870370370370373],[-0.09249999999999996,0.46870370370370373],[-0.09083333333333338,0.497037037037037],[-0.10562499999999998,0.38944444444444437],[-0.10583333333333336,0.31425925925925935],[-0.10604166666666662,0.2390740740740741],[-0.09593750000000002,0.19740740740740745],[-0.09729166666666664,0.1479629629629629],[-0.11385416666666662,0.08148148148148149],[-0.11302083333333333,0.07277777777777769],[-0.0938541666666667,-0.02111111111111107],[-0.07468750000000005,-0.11500000000000005],[-0.051979166666666646,-0.16592592592592598],[-0.07364583333333338,-0.15259259259259256],[-0.12000000000000005,-0.13407407407407404],[-0.1622916666666666,-0.15703703703703706],[-0.20083333333333328,-0.17166666666666663],[-0.20083333333333328,-0.17166666666666663]]","[[-0.06531250000000005,0.06462962962962959,0],[-0.06531250000000005,0.06462962962962959,0.01650000000000773],[-0.06625000000000002,0.09944444444444453,0.033100000023836174],[-0.06656249999999998,0.07981481481481485,0.049800000011927636],[-0.07135416666666666,0.07462962962962955,0.06910000002383754],[-0.07135416666666666,0.07462962962962955,0.08319999998808214],[-0.10416666666666667,0.03481481481481473,0.0998000000119248],[-0.1203125,-0.04314814814814806,0.11650000000000205],[-0.13645833333333332,-0.12111111111111107,0.13299999999999557],[-0.12312500000000005,-0.15981481481481483,0.14960000002383822],[-0.10979166666666665,-0.1985185185185185,0.16630000001191547],[-0.13093750000000004,-0.23296296296296298,0.18610000002384197],[-0.14885416666666665,-0.28111111111111114,0.20250000000000057],[-0.16416666666666668,-0.3244444444444444,0.2166000000238455],[-0.16749999999999995,-0.3588888888888889,0.23310000002383902],[-0.17083333333333334,-0.3933333333333333,0.24960000002384675],[-0.1772916666666667,-0.4111111111111111,0.266300000011924],[-0.1977083333333333,-0.35851851851851857,0.28300000000000125],[-0.21645833333333328,-0.290925925925926,0.2996999999880785],[-0.24750000000000003,-0.2531481481481481,0.31630000001192116],[-0.27854166666666663,-0.21537037037037038,0.3329000000357638],[-0.299375,-0.20777777777777776,0.34969999998807566],[-0.30885416666666665,-0.1868518518518518,0.36650000000000205],[-0.30885416666666665,-0.1868518518518518,0.38299999999999557],[-0.3186458333333333,-0.17925925925925928,0.3996000000238382],[-0.3228125,-0.17222222222222222,0.4164000000357646],[-0.32697916666666665,-0.16518518518518516,0.43300000000000693],[-0.31843750000000004,-0.16074074074074077,0.4496999999880842],[-0.3098958333333333,-0.15629629629629627,0.46630000001192684],[-0.2952083333333333,-0.21888888888888886,0.48699999999999477],[-0.2805208333333333,-0.2814814814814815,0.5019999999999953],[-0.28250000000000003,-0.3068518518518518,0.516300000011924],[-0.29125,-0.30333333333333334,0.5331000000238362],[-0.2861458333333334,-0.3183333333333333,0.5496000000238439],[-0.2861458333333334,-0.3183333333333333,0.5664000000357703],[-0.28072916666666664,-0.32,0.5829999999999984],[-0.26968749999999997,-0.3301851851851852,0.5999999999999943],[-0.26968749999999997,-0.3301851851851852,0.6163000000119183],[-0.24427083333333333,-0.32833333333333337,0.6331000000238447],[-0.23156249999999995,-0.3375925925925926,0.6511000000238454],[-0.23156249999999995,-0.3375925925925926,0.6663000000119155],[-0.2202083333333333,-0.32462962962962966,0.6830000000000069],[-0.20979166666666665,-0.24814814814814815,0.7021999999880819],[-0.19937499999999997,-0.17166666666666663,0.7164000000357618],[-0.17229166666666665,-0.13240740740740742,0.7330000000000041],[-0.12374999999999996,-0.12629629629629627,0.7496000000238467],[-0.0890625,-0.10166666666666663,0.769400000035759],[-0.007500000000000047,-0.10499999999999998,0.7844999999999942],[0.0626041666666667,-0.09666666666666665,0.8029999999999973],[0.11624999999999991,-0.08555555555555554,0.8188000000119189],[0.11624999999999991,-0.08555555555555554,0.8333000000119171],[0.17395833333333333,-0.07166666666666664,0.8496999999880757],[0.23624999999999996,-0.0948148148148148,0.8663000000119183],[0.2921875,-0.1051851851851852,0.8829999999999956],[0.3481250000000001,-0.11555555555555551,0.8996999999880728],[0.40729166666666666,-0.15962962962962962,0.9163000000119155],[0.46239583333333345,-0.14203703703703702,0.9329000000357581],[0.49072916666666655,-0.15629629629629627,0.9496000000238496],[0.4721874999999999,-0.1425925925925926,0.9663000000119268],[0.4680208333333333,-0.12444444444444443,0.983100000023839],[0.46593749999999995,-0.12111111111111107,0.9996000000238467],[0.4635416666666667,-0.1014814814814815,1.016300000011924],[0.4609375,-0.08870370370370366,1.0330000000000013],[0.4578125,-0.10018518518518522,1.049600000023844],[0.46197916666666666,-0.13407407407407404,1.0663000000119212],[0.46687500000000004,-0.10537037037037032,1.0829999999999984],[0.4517708333333334,-0.11259259259259262,1.0998000000119248],[0.4634375000000001,-0.08796296296296297,1.1168000000119207],[0.47510416666666655,-0.06333333333333331,1.1329999999999956],[0.4631249999999999,-0.09351851851851851,1.1496999999880728],[0.45114583333333325,-0.12370370370370372,1.1663000000119155],[0.46156249999999993,-0.1838888888888889,1.1836999999880788],[0.46895833333333337,-0.22240740740740744,1.1996999999880842],[0.43802083333333336,-0.23981481481481481,1.2163000000119268],[0.3853125000000001,-0.22925925925925927,1.233000000000004],[0.3310416666666666,-0.24833333333333338,1.2496999999880813],[0.2853125000000001,-0.27999999999999997,1.266300000011924],[0.2853125000000001,-0.27999999999999997,1.2830000000000013],[0.22645833333333343,-0.2946296296296297,1.2996999999880785],[0.17666666666666658,-0.3051851851851852,1.3161999999880862],[0.11375000000000005,-0.2640740740740741,1.3329000000357638],[0.11864583333333342,-0.15462962962962962,1.349600000023841],[0.1099999999999999,-0.03888888888888889,1.366600000023837],[0.1099999999999999,-0.03888888888888889,1.3829999999999956],[0.09052083333333343,0.08203703703703695,1.3996999999880728],[0.11791666666666671,0.16870370370370374,1.4164000000357646],[0.20041666666666677,0.19148148148148145,1.433000000000007],[0.2805208333333333,0.21500000000000005,1.4496000000238496],[0.3497916666666666,0.26703703703703713,1.4663000000119268],[0.4321875000000001,0.3020370370370371,1.483000000000004],[0.4769791666666668,0.28888888888888886,1.4996000000238467],[0.4769791666666668,0.28888888888888886,1.516300000011924],[0.5441666666666668,0.27444444444444455,1.5330000000000013],[0.5336458333333333,0.23333333333333334,1.549600000023844],[0.5251041666666666,0.17833333333333326,1.5663000000119212],[0.5068749999999999,0.11833333333333329,1.5876000000238406],[0.4943749999999999,0.10777777777777786,1.6041000000238483],[0.45979166666666677,0.1527777777777778,1.6256999999880861],[0.45979166666666677,0.1527777777777778,1.63510000002384],[0.41124999999999995,0.17777777777777778,1.6499000000357569],[0.3733333333333334,0.19888888888888884,1.6664000000357646],[0.3304166666666667,0.19166666666666668,1.689699999988079],[0.3304166666666667,0.19166666666666668,1.699800000011919],[0.3177083333333333,0.23833333333333342,1.7164999999999964],[0.30499999999999994,0.285,1.733100000023839],[0.29958333333333326,0.3098148148148147,1.7531999999880838],[0.29718749999999994,0.33555555555555566,1.7686999999880868],[0.29718749999999994,0.33555555555555566,1.783199999988085],[0.3140625,0.32981481481481484,1.803400000035765],[0.33583333333333343,0.21296296296296297,1.8199000000357586],[0.3232291666666666,0.08740740740740749,1.8369000000357687],[0.3232291666666666,0.08740740740740749,1.8496999999880757],[0.33125,-0.018333333333333292,1.8700000000000045],[0.3416666666666667,-0.1557407407407408,1.8866000000238472],[0.3532291666666666,-0.25,1.904300000011915],[0.3631249999999999,-0.35407407407407404,1.9241000000238415],[0.3631249999999999,-0.35407407407407404,1.9331000000238419],[0.37604166666666666,-0.43203703703703705,1.949800000011919],[0.3966666666666666,-0.5188888888888888,1.9663000000119268],[0.4084374999999999,-0.554074074074074,1.9860000000000042],[0.41427083333333337,-0.5796296296296296,2.005499999999998],[0.4283333333333334,-0.5816666666666667,2.021000000000001],[0.45822916666666674,-0.5722222222222222,2.037100000023841],[0.4495833333333332,-0.5370370370370371,2.0606000000238396],[0.4495833333333332,-0.5370370370370371,2.067300000011926],[0.4515625,-0.4951851851851851,2.083199999988082],[0.4573958333333332,-0.46814814814814815,2.100300000011927],[0.4587500000000001,-0.40370370370370373,2.122800000011921],[0.4587500000000001,-0.40370370370370373,2.1331000000238447],[0.45593750000000005,-0.3881481481481482,2.149800000011922],[0.45593750000000005,-0.3881481481481482,2.1700000000000017],[0.44406249999999997,-0.3853703703703704,2.1831999999880765],[0.43895833333333345,-0.41074074074074074,2.2043000000119264],[0.4410416666666668,-0.41444444444444445,2.2201999999880826],[0.42781250000000004,-0.3990740740740741,2.2356999999880856],[0.40958333333333335,-0.37907407407407406,2.250100000023849],[0.42843749999999997,-0.37481481481481477,2.267699999988082],[0.4205208333333334,-0.37537037037037035,2.287000000000006],[0.4214583333333332,-0.4225925925925926,2.303400000035765],[0.42687499999999995,-0.5072222222222221,2.3181999999880816],[0.42687499999999995,-0.5072222222222221,2.3329999999999984],[0.4334374999999999,-0.5690740740740741,2.349600000023841],[0.4502083333333334,-0.6055555555555555,2.3664000000357674],[0.475,-0.6372222222222222,2.3845000000000027],[0.475,-0.6372222222222222,2.399600000023838],[0.4978125000000001,-0.6644444444444445,2.4193000000119156],[0.49874999999999997,-0.6811111111111111,2.435199999988086],[0.49229166666666657,-0.667037037037037,2.4503000000119215],[0.4806250000000001,-0.6627777777777777,2.472999999999999],[0.4806250000000001,-0.6627777777777777,2.483100000023839],[0.4806250000000001,-0.6124074074074074,2.4998000000119163],[0.47333333333333344,-0.5333333333333333,2.5165000000000077],[0.46604166666666674,-0.4542592592592593,2.53930000001192],[0.44375,-0.372037037037037,2.5539000000357674],[0.42385416666666675,-0.31851851851851853,2.5699000000357586],[0.39260416666666675,-0.2794444444444444,2.5861999999880823],[0.39260416666666675,-0.2794444444444444,2.6053000000119226],[0.34562499999999996,-0.2490740740740741,2.616600000023837],[0.28541666666666665,-0.1853703703703704,2.636499999999998],[0.2548958333333334,-0.16518518518518516,2.6566000000238432],[0.2548958333333334,-0.16518518518518516,2.6664000000357646],[0.21375000000000005,-0.07370370370370373,2.683100000023842],[0.1834374999999999,-0.08648148148148146,2.699699999988084],[0.13614583333333338,-0.012037037037037037,2.719300000011927],[0.11916666666666677,-0.008148148148148106,2.736699999988076],[0.078125,-0.021481481481481525,2.752199999988079],[0.028437499999999952,-0.02962962962962963,2.771600000023838],[0.028437499999999952,-0.02962962962962963,2.783199999988085],[-0.013229166666666714,0.07166666666666675,2.7998000000119276],[-0.02947916666666662,0.16500000000000004,2.8166999999880744],[-0.022708333333333285,0.24666666666666676,2.835900000035764],[-0.04874999999999995,0.2861111111111111,2.851199999988083],[-0.07145833333333336,0.29074074074074074,2.8670000000000044],[-0.07625000000000005,0.3611111111111111,2.8870000000000005],[-0.06385416666666661,0.34018518518518526,2.9033000000119245],[-0.09770833333333329,0.39740740740740743,2.9186000000238437],[-0.09249999999999996,0.46870370370370373,2.9403000000119164],[-0.09249999999999996,0.46870370370370373,2.949699999988084],[-0.09083333333333338,0.497037037037037,2.9664999999999964],[-0.10562499999999998,0.38944444444444437,2.983699999988076],[-0.10583333333333336,0.31425925925925935,3.0011000000238397],[-0.10604166666666662,0.2390740740740741,3.0191000000238404],[-0.09593750000000002,0.19740740740740745,3.034499999999994],[-0.09729166666666664,0.1479629629629629,3.0504999999999995],[-0.11385416666666662,0.08148148148148149,3.066300000011921],[-0.11302083333333333,0.07277777777777769,3.08569999998808],[-0.0938541666666667,-0.02111111111111107,3.1001000000238434],[-0.07468750000000005,-0.11500000000000005,3.1163000000119183],[-0.051979166666666646,-0.16592592592592598,3.1329999999999956],[-0.07364583333333338,-0.15259259259259256,3.153000000000006],[-0.12000000000000005,-0.13407407407407404,3.1708000000119227],[-0.1622916666666666,-0.15703703703703706,3.1869999999999976],[-0.20083333333333328,-0.17166666666666663,3.2031999999880867],[-0.20083333333333328,-0.17166666666666663,3.2164000000357618]]","[0,0.01650000000000773,0.033100000023836174,0.049800000011927636,0.06910000002383754,0.08319999998808214,0.0998000000119248,0.11650000000000205,0.13299999999999557,0.14960000002383822,0.16630000001191547,0.18610000002384197,0.20250000000000057,0.2166000000238455,0.23310000002383902,0.24960000002384675,0.266300000011924,0.28300000000000125,0.2996999999880785,0.31630000001192116,0.3329000000357638,0.34969999998807566,0.36650000000000205,0.38299999999999557,0.3996000000238382,0.4164000000357646,0.43300000000000693,0.4496999999880842,0.46630000001192684,0.48699999999999477,0.5019999999999953,0.516300000011924,0.5331000000238362,0.5496000000238439,0.5664000000357703,0.5829999999999984,0.5999999999999943,0.6163000000119183,0.6331000000238447,0.6511000000238454,0.6663000000119155,0.6830000000000069,0.7021999999880819,0.7164000000357618,0.7330000000000041,0.7496000000238467,0.769400000035759,0.7844999999999942,0.8029999999999973,0.8188000000119189,0.8333000000119171,0.8496999999880757,0.8663000000119183,0.8829999999999956,0.8996999999880728,0.9163000000119155,0.9329000000357581,0.9496000000238496,0.9663000000119268,0.983100000023839,0.9996000000238467,1.016300000011924,1.0330000000000013,1.049600000023844,1.0663000000119212,1.0829999999999984,1.0998000000119248,1.1168000000119207,1.1329999999999956,1.1496999999880728,1.1663000000119155,1.1836999999880788,1.1996999999880842,1.2163000000119268,1.233000000000004,1.2496999999880813,1.266300000011924,1.2830000000000013,1.2996999999880785,1.3161999999880862,1.3329000000357638,1.349600000023841,1.366600000023837,1.3829999999999956,1.3996999999880728,1.4164000000357646,1.433000000000007,1.4496000000238496,1.4663000000119268,1.483000000000004,1.4996000000238467,1.516300000011924,1.5330000000000013,1.549600000023844,1.5663000000119212,1.5876000000238406,1.6041000000238483,1.6256999999880861,1.63510000002384,1.6499000000357569,1.6664000000357646,1.689699999988079,1.699800000011919,1.7164999999999964,1.733100000023839,1.7531999999880838,1.7686999999880868,1.783199999988085,1.803400000035765,1.8199000000357586,1.8369000000357687,1.8496999999880757,1.8700000000000045,1.8866000000238472,1.904300000011915,1.9241000000238415,1.9331000000238419,1.949800000011919,1.9663000000119268,1.9860000000000042,2.005499999999998,2.021000000000001,2.037100000023841,2.0606000000238396,2.067300000011926,2.083199999988082,2.100300000011927,2.122800000011921,2.1331000000238447,2.149800000011922,2.1700000000000017,2.1831999999880765,2.2043000000119264,2.2201999999880826,2.2356999999880856,2.250100000023849,2.267699999988082,2.287000000000006,2.303400000035765,2.3181999999880816,2.3329999999999984,2.349600000023841,2.3664000000357674,2.3845000000000027,2.399600000023838,2.4193000000119156,2.435199999988086,2.4503000000119215,2.472999999999999,2.483100000023839,2.4998000000119163,2.5165000000000077,2.53930000001192,2.5539000000357674,2.5699000000357586,2.5861999999880823,2.6053000000119226,2.616600000023837,2.636499999999998,2.6566000000238432,2.6664000000357646,2.683100000023842,2.699699999988084,2.719300000011927,2.736699999988076,2.752199999988079,2.771600000023838,2.783199999988085,2.7998000000119276,2.8166999999880744,2.835900000035764,2.851199999988083,2.8670000000000044,2.8870000000000005,2.9033000000119245,2.9186000000238437,2.9403000000119164,2.949699999988084,2.9664999999999964,2.983699999988076,3.0011000000238397,3.0191000000238404,3.034499999999994,3.0504999999999995,3.066300000011921,3.08569999998808,3.1001000000238434,3.1163000000119183,3.1329999999999956,3.153000000000006,3.1708000000119227,3.1869999999999976,3.2031999999880867,3.2164000000357618]","[1733036443795,1733036443811,1733036443828,1733036443845,1733036443864,1733036443878,1733036443894,1733036443911,1733036443928,1733036443944,1733036443961,1733036443981,1733036443997,1733036444011,1733036444028,1733036444044,1733036444061,1733036444078,1733036444094,1733036444111,1733036444128,1733036444144,1733036444161,1733036444178,1733036444194,1733036444211,1733036444228,1733036444244,1733036444261,1733036444282,1733036444297,1733036444311,1733036444328,1733036444344,1733036444361,1733036444378,1733036444395,1733036444411,1733036444428,1733036444446,1733036444461,1733036444478,1733036444497,1733036444511,1733036444528,1733036444544,1733036444564,1733036444579,1733036444598,1733036444614,1733036444628,1733036444644,1733036444661,1733036444678,1733036444694,1733036444711,1733036444728,1733036444744,1733036444761,1733036444778,1733036444794,1733036444811,1733036444828,1733036444844,1733036444861,1733036444878,1733036444894,1733036444911,1733036444928,1733036444944,1733036444961,1733036444978,1733036444994,1733036445011,1733036445028,1733036445044,1733036445061,1733036445078,1733036445094,1733036445111,1733036445128,1733036445144,1733036445161,1733036445178,1733036445194,1733036445211,1733036445228,1733036445244,1733036445261,1733036445278,1733036445294,1733036445311,1733036445328,1733036445344,1733036445361,1733036445382,1733036445399,1733036445420,1733036445430,1733036445445,1733036445461,1733036445484,1733036445494,1733036445511,1733036445528,1733036445548,1733036445563,1733036445578,1733036445598,1733036445615,1733036445632,1733036445644,1733036445665,1733036445681,1733036445699,1733036445719,1733036445728,1733036445744,1733036445761,1733036445781,1733036445800,1733036445816,1733036445832,1733036445855,1733036445862,1733036445878,1733036445895,1733036445918,1733036445928,1733036445944,1733036445965,1733036445978,1733036445999,1733036446015,1733036446030,1733036446045,1733036446062,1733036446082,1733036446098,1733036446113,1733036446128,1733036446144,1733036446161,1733036446179,1733036446194,1733036446214,1733036446230,1733036446245,1733036446268,1733036446278,1733036446295,1733036446311,1733036446334,1733036446349,1733036446365,1733036446381,1733036446400,1733036446411,1733036446431,1733036446451,1733036446461,1733036446478,1733036446494,1733036446514,1733036446531,1733036446547,1733036446566,1733036446578,1733036446595,1733036446611,1733036446631,1733036446646,1733036446662,1733036446682,1733036446698,1733036446713,1733036446735,1733036446744,1733036446761,1733036446779,1733036446796,1733036446814,1733036446829,1733036446845,1733036446861,1733036446880,1733036446895,1733036446911,1733036446928,1733036446948,1733036446965,1733036446982,1733036446998,1733036447011]","[[897.3,574.9],[897.3,574.9],[896.4,593.7],[896.1,583.1],[891.5,580.3],[891.5,580.3],[860,558.8],[844.5,516.7],[829,474.6],[841.8,453.7],[854.6,432.8],[834.3,414.2],[817.1,388.2],[802.4,364.8],[799.2,346.2],[796,327.6],[789.8,318],[770.2,346.4],[752.2,382.9],[722.4,403.3],[692.6,423.7],[672.6,427.8],[663.5,439.1],[663.5,439.1],[654.1,443.2],[650.1,447],[646.1,450.8],[654.3,453.2],[662.5,455.6],[676.6,421.8],[690.7,388],[688.8,374.3],[680.4,376.2],[685.3,368.1],[685.3,368.1],[690.5,367.2],[701.1,361.7],[701.1,361.7],[725.5,362.7],[737.7,357.7],[737.7,357.7],[748.6,364.7],[758.6,406],[768.6,447.3],[794.6,468.5],[841.2,471.8],[874.5,485.1],[952.8,483.3],[1020.1,487.8],[1071.6,493.8],[1071.6,493.8],[1127,501.3],[1186.8,488.8],[1240.5,483.2],[1294.2,477.6],[1351,453.8],[1403.9,463.3],[1431.1,455.6],[1413.3,463],[1409.3,472.8],[1407.3,474.6],[1405,485.2],[1402.5,492.1],[1399.5,485.9],[1403.5,467.6],[1408.2,483.1],[1393.7,479.2],[1404.9,492.5],[1416.1,505.8],[1404.6,489.5],[1393.1,473.2],[1403.1,440.7],[1410.2,419.9],[1380.5,410.5],[1329.9,416.2],[1277.8,405.9],[1233.9,388.8],[1233.9,388.8],[1177.4,380.9],[1129.6,375.2],[1069.2,397.4],[1073.9,456.5],[1065.6,519],[1065.6,519],[1046.9,584.3],[1073.2,631.1],[1152.4,643.4],[1229.3,656.1],[1295.8,684.2],[1374.9,703.1],[1417.9,696],[1417.9,696],[1482.4,688.2],[1472.3,666],[1464.1,636.3],[1446.6,603.9],[1434.6,598.2],[1401.4,622.5],[1401.4,622.5],[1354.8,636],[1318.4,647.4],[1277.2,643.5],[1277.2,643.5],[1265,668.7],[1252.8,693.9],[1247.6,707.3],[1245.3,721.2],[1245.3,721.2],[1261.5,718.1],[1282.4,655],[1270.3,587.2],[1270.3,587.2],[1278,530.1],[1288,455.9],[1299.1,405],[1308.6,348.8],[1308.6,348.8],[1321,306.7],[1340.8,259.8],[1352.1,240.8],[1357.7,227],[1371.2,225.9],[1399.9,231],[1391.6,250],[1391.6,250],[1393.5,272.6],[1399.1,287.2],[1400.4,322],[1400.4,322],[1397.7,330.4],[1397.7,330.4],[1386.3,331.9],[1381.4,318.2],[1383.4,316.2],[1370.7,324.5],[1353.2,335.3],[1371.3,337.6],[1363.7,337.3],[1364.6,311.8],[1369.8,266.1],[1369.8,266.1],[1376.1,232.7],[1392.2,213],[1416,195.9],[1416,195.9],[1437.9,181.2],[1438.8,172.2],[1432.6,179.8],[1421.4,182.1],[1421.4,182.1],[1421.4,209.3],[1414.4,252],[1407.4,294.7],[1386,339.1],[1366.9,368],[1336.9,389.1],[1336.9,389.1],[1291.8,405.5],[1234,439.9],[1204.7,450.8],[1204.7,450.8],[1165.2,500.2],[1136.1,493.3],[1090.7,533.5],[1074.4,535.6],[1035,528.4],[987.3,524],[987.3,524],[947.3,578.7],[931.7,629.1],[938.2,673.2],[913.2,694.5],[891.4,697],[886.8,735],[898.7,723.7],[866.2,754.6],[871.2,793.1],[871.2,793.1],[872.8,808.4],[858.6,750.3],[858.4,709.7],[858.2,669.1],[867.9,646.6],[866.6,619.9],[850.7,584],[851.5,579.3],[869.9,528.6],[888.3,477.9],[910.1,450.4],[889.3,457.6],[844.8,467.6],[804.2,455.2],[767.2,447.3],[767.2,447.3]]","[0,0.3527331528]","[0.3527331528,0.3527331528]","[-0.3527331528,0]","[-0.3527331528,-0.3527331528]","[0,0]","[0.3527331528,0]","[0,-0.3527331528]","[0.3527331528,-0.3527331528]",0,1,1,1,1,1,Tablet,9,1,11,5
