inst1_resp.keys,inst1_resp.rt,calibrationMouse.x,calibrationMouse.y,calibrationMouse.leftButton,calibrationMouse.midButton,calibrationMouse.rightButton,calibrationClick.x,calibrationClick.y,calibrationClick.leftButton,calibrationClick.midButton,calibrationClick.rightButton,calibrationClick.clicked_name,trialsc.thisRepN,trialsc.thisTrialN,trialsc.thisN,trialsc.thisIndex,trialsc.ran,calibration_x,calibration_y,participant,session,date,expName,psychopyVersion,OS,frameRate,ScreenRes_pixels,Camera_pixels,mouse_2.x,mouse_2.y,mouse_2.leftButton,mouse_2.midButton,mouse_2.rightButton,mouse_2.time,mouse_2.clicked_name,mouse.x,mouse.y,mouse.leftButton,mouse.midButton,mouse.rightButton,mouse.time,mouse.clicked_name,Choice,Trial,TrialDuration,MOUSE_GAZE,ET_GAZE,ET_GAZE_x_T,time,unixTime,ET_GAZE_NF,Loc_Option1_label,Loc_Option2_label,Loc_Cost_label,Loc_Qual_label,Loc_Option1_cost,Loc_Option2_cost,Loc_Option1_quality,Loc_Option2_quality,trials.thisRepN,trials.thisTrialN,trials.thisN,trials.thisIndex,trials.ran,Block,Device,cost1,qual1,cost2,qual2
space,3.1471,-0.432291667,-0.335185185,1,0,0,0.670833333,0.67037037,1,0,0,calibration_square,0,0,0,19,1,0.67,0.67,24,001,2024-12-01_15h03.26.815,Attention_exp_legacy,2023.1.0,Win32,60.24096386,,,,,,,,,,,,,,,,,,,,,,,,,,,,,,,,,,,,,,,,,,,,
,,,,,,,-0.665625,-0.668518519,1,0,0,calibration_square,0,1,1,0,1,-0.67,-0.67,24,001,2024-12-01_15h03.26.815,Attention_exp_legacy,2023.1.0,Win32,60.24096386,,,,,,,,,,,,,,,,,,,,,,,,,,,,,,,,,,,,,,,,,,,,
,,,,,,,0.003125,-0.331481481,1,0,0,calibration_square,0,2,2,10,1,0,-0.33,24,001,2024-12-01_15h03.26.815,Attention_exp_legacy,2023.1.0,Win32,60.24096386,,,,,,,,,,,,,,,,,,,,,,,,,,,,,,,,,,,,,,,,,,,,
,,,,,,,-0.327083333,0.003703704,1,0,0,calibration_square,0,3,3,6,1,-0.33,0,24,001,2024-12-01_15h03.26.815,Attention_exp_legacy,2023.1.0,Win32,60.24096386,,,,,,,,,,,,,,,,,,,,,,,,,,,,,,,,,,,,,,,,,,,,
,,,,,,,-0.66875,-0.32962963,1,0,0,calibration_square,0,4,4,1,1,-0.67,-0.33,24,001,2024-12-01_15h03.26.815,Attention_exp_legacy,2023.1.0,Win32,60.24096386,,,,,,,,,,,,,,,,,,,,,,,,,,,,,,,,,,,,,,,,,,,,
,,,,,,,-0.334375,-0.333333333,1,0,0,calibration_square,0,5,5,5,1,-0.33,-0.33,24,001,2024-12-01_15h03.26.815,Attention_exp_legacy,2023.1.0,Win32,60.24096386,,,,,,,,,,,,,,,,,,,,,,,,,,,,,,,,,,,,,,,,,,,,
,,,,,,,-0.661458333,-0.003703704,1,0,0,calibration_square,0,6,6,2,1,-0.67,0,24,001,2024-12-01_15h03.26.815,Attention_exp_legacy,2023.1.0,Win32,60.24096386,,,,,,,,,,,,,,,,,,,,,,,,,,,,,,,,,,,,,,,,,,,,
,,,,,,,-0.338541667,0.325925926,1,0,0,calibration_square,0,7,7,7,1,-0.33,0.33,24,001,2024-12-01_15h03.26.815,Attention_exp_legacy,2023.1.0,Win32,60.24096386,,,,,,,,,,,,,,,,,,,,,,,,,,,,,,,,,,,,,,,,,,,,
,,,,,,,-0.001041667,0.001851852,1,0,0,calibration_square,0,8,8,11,1,0,0,24,001,2024-12-01_15h03.26.815,Attention_exp_legacy,2023.1.0,Win32,60.24096386,,,,,,,,,,,,,,,,,,,,,,,,,,,,,,,,,,,,,,,,,,,,
,,,,,,,0.001041667,0.668518519,1,0,0,calibration_square,0,9,9,13,1,0,0.67,24,001,2024-12-01_15h03.26.815,Attention_exp_legacy,2023.1.0,Win32,60.24096386,,,,,,,,,,,,,,,,,,,,,,,,,,,,,,,,,,,,,,,,,,,,
,,,,,,,-0.321875,0.675925926,1,0,0,calibration_square,0,10,10,8,1,-0.33,0.67,24,001,2024-12-01_15h03.26.815,Attention_exp_legacy,2023.1.0,Win32,60.24096386,,,,,,,,,,,,,,,,,,,,,,,,,,,,,,,,,,,,,,,,,,,,
,,,,,,,0.004166667,0.333333333,1,0,0,calibration_square,0,11,11,12,1,0,0.33,24,001,2024-12-01_15h03.26.815,Attention_exp_legacy,2023.1.0,Win32,60.24096386,,,,,,,,,,,,,,,,,,,,,,,,,,,,,,,,,,,,,,,,,,,,
,,,,,,,0.33125,-0.664814815,1,0,0,calibration_square,0,12,12,14,1,0.33,-0.67,24,001,2024-12-01_15h03.26.815,Attention_exp_legacy,2023.1.0,Win32,60.24096386,,,,,,,,,,,,,,,,,,,,,,,,,,,,,,,,,,,,,,,,,,,,
,,,,,,,0.332291667,-0.325925926,1,0,0,calibration_square,0,13,13,15,1,0.33,-0.33,24,001,2024-12-01_15h03.26.815,Attention_exp_legacy,2023.1.0,Win32,60.24096386,,,,,,,,,,,,,,,,,,,,,,,,,,,,,,,,,,,,,,,,,,,,
,,,,,,,0.330208333,0.668518519,1,0,0,calibration_square,0,14,14,18,1,0.33,0.67,24,001,2024-12-01_15h03.26.815,Attention_exp_legacy,2023.1.0,Win32,60.24096386,,,,,,,,,,,,,,,,,,,,,,,,,,,,,,,,,,,,,,,,,,,,
,,,,,,,-0.673958333,0.331481481,1,0,0,calibration_square,0,15,15,3,1,-0.67,0.33,24,001,2024-12-01_15h03.26.815,Attention_exp_legacy,2023.1.0,Win32,60.24096386,,,,,,,,,,,,,,,,,,,,,,,,,,,,,,,,,,,,,,,,,,,,
,,,,,,,0.673958333,-0.662962963,1,0,0,calibration_square,0,16,16,20,1,0.67,-0.67,24,001,2024-12-01_15h03.26.815,Attention_exp_legacy,2023.1.0,Win32,60.24096386,,,,,,,,,,,,,,,,,,,,,,,,,,,,,,,,,,,,,,,,,,,,
,,,,,,,0.001041667,-0.672222222,1,0,0,calibration_square,0,17,17,9,1,0,-0.67,24,001,2024-12-01_15h03.26.815,Attention_exp_legacy,2023.1.0,Win32,60.24096386,,,,,,,,,,,,,,,,,,,,,,,,,,,,,,,,,,,,,,,,,,,,
,,,,,,,0.327083333,0.32962963,1,0,0,calibration_square,0,18,18,17,1,0.33,0.33,24,001,2024-12-01_15h03.26.815,Attention_exp_legacy,2023.1.0,Win32,60.24096386,,,,,,,,,,,,,,,,,,,,,,,,,,,,,,,,,,,,,,,,,,,,
,,,,,,,0.327083333,0.005555556,1,0,0,calibration_square,0,19,19,16,1,0.33,0,24,001,2024-12-01_15h03.26.815,Attention_exp_legacy,2023.1.0,Win32,60.24096386,,,,,,,,,,,,,,,,,,,,,,,,,,,,,,,,,,,,,,,,,,,,
,,,,,,,-0.33125,-0.661111111,1,0,0,calibration_square,0,20,20,4,1,-0.33,-0.67,24,001,2024-12-01_15h03.26.815,Attention_exp_legacy,2023.1.0,Win32,60.24096386,,,,,,,,,,,,,,,,,,,,,,,,,,,,,,,,,,,,,,,,,,,,
,,,,,,,,,,,,,,,,,,,,24,001,2024-12-01_15h03.26.815,Attention_exp_legacy,2023.1.0,Win32,60.24096386,"[1920,1080]","[640,480]",[-0.03854166666666667],[-0.4925925925925926],[1],[0],[0],[3.532099999964238],"[""StartButton""]",[0.4510416666666667],[0.5444444444444444],[1],[0],[0],[4.206899999976152],"[""Option2_label""]",Option2_label,1,5.2155,"[[-0.025,-0.4074074074074074],[-0.025,-0.4074074074074074],[-0.025,-0.4074074074074074],[-0.025,-0.4074074074074074],[-0.025,-0.4074074074074074],[-0.025,-0.4074074074074074],[-0.025,-0.4074074074074074],[-0.025,-0.4074074074074074],[-0.025,-0.4074074074074074],[-0.025,-0.4074074074074074],[-0.025,-0.4074074074074074],[-0.025,-0.4074074074074074],[-0.025,-0.4074074074074074],[-0.025,-0.4074074074074074],[-0.025,-0.4074074074074074],[-0.025,-0.4074074074074074],[-0.025,-0.4074074074074074],[-0.025,-0.4074074074074074],[-0.025,-0.4074074074074074],[-0.025,-0.4074074074074074],[-0.025,-0.4074074074074074],[-0.025,-0.4074074074074074],[-0.025,-0.4074074074074074],[-0.025,-0.4074074074074074],[-0.025,-0.4074074074074074],[-0.025,-0.4074074074074074],[-0.025,-0.4074074074074074],[-0.025,-0.4074074074074074],[-0.025,-0.4074074074074074],[-0.025,-0.4074074074074074],[-0.025,-0.40925925925925927],[-0.025,-0.40925925925925927],[-0.025,-0.40925925925925927],[-0.025,-0.40925925925925927],[-0.026041666666666668,-0.40925925925925927],[-0.027083333333333334,-0.40925925925925927],[-0.028125,-0.40925925925925927],[-0.028125,-0.40925925925925927],[-0.028125,-0.40925925925925927],[-0.028125,-0.40925925925925927],[-0.028125,-0.40925925925925927],[-0.028125,-0.40925925925925927],[-0.028125,-0.40925925925925927],[-0.028125,-0.40925925925925927],[-0.028125,-0.40925925925925927],[-0.028125,-0.40925925925925927],[-0.028125,-0.40925925925925927],[-0.028125,-0.40925925925925927],[-0.029166666666666667,-0.40555555555555556],[-0.029166666666666667,-0.40555555555555556],[-0.030208333333333334,-0.40555555555555556],[-0.030208333333333334,-0.40555555555555556],[-0.030208333333333334,-0.40370370370370373],[-0.030208333333333334,-0.40370370370370373],[-0.030208333333333334,-0.40370370370370373],[-0.030208333333333334,-0.40370370370370373],[-0.030208333333333334,-0.40370370370370373],[-0.030208333333333334,-0.40370370370370373],[-0.030208333333333334,-0.40370370370370373],[-0.030208333333333334,-0.40370370370370373],[-0.030208333333333334,-0.40370370370370373],[-0.030208333333333334,-0.40370370370370373],[-0.030208333333333334,-0.40370370370370373],[-0.030208333333333334,-0.40370370370370373],[-0.030208333333333334,-0.40370370370370373],[-0.030208333333333334,-0.40370370370370373],[-0.030208333333333334,-0.40370370370370373],[-0.030208333333333334,-0.40370370370370373],[-0.030208333333333334,-0.40370370370370373],[-0.030208333333333334,-0.40370370370370373],[-0.030208333333333334,-0.40370370370370373],[-0.030208333333333334,-0.40370370370370373],[-0.030208333333333334,-0.40370370370370373],[-0.030208333333333334,-0.40370370370370373],[-0.030208333333333334,-0.40370370370370373],[-0.030208333333333334,-0.40370370370370373],[-0.030208333333333334,-0.40370370370370373],[-0.030208333333333334,-0.40370370370370373],[-0.030208333333333334,-0.40370370370370373],[-0.030208333333333334,-0.40370370370370373],[-0.030208333333333334,-0.40370370370370373],[-0.030208333333333334,-0.40370370370370373],[-0.030208333333333334,-0.40370370370370373],[-0.030208333333333334,-0.40370370370370373],[-0.030208333333333334,-0.40370370370370373],[-0.030208333333333334,-0.40370370370370373],[-0.030208333333333334,-0.40370370370370373],[-0.030208333333333334,-0.40370370370370373],[-0.030208333333333334,-0.40370370370370373],[-0.030208333333333334,-0.40370370370370373],[-0.030208333333333334,-0.40370370370370373],[-0.030208333333333334,-0.40370370370370373],[-0.030208333333333334,-0.40370370370370373],[-0.030208333333333334,-0.40370370370370373],[-0.030208333333333334,-0.40370370370370373],[-0.030208333333333334,-0.40370370370370373],[-0.030208333333333334,-0.40370370370370373],[-0.030208333333333334,-0.40370370370370373],[-0.030208333333333334,-0.40370370370370373],[-0.030208333333333334,-0.40370370370370373],[-0.030208333333333334,-0.40370370370370373],[-0.030208333333333334,-0.40370370370370373],[-0.030208333333333334,-0.40370370370370373],[-0.030208333333333334,-0.40370370370370373],[-0.030208333333333334,-0.40370370370370373],[-0.030208333333333334,-0.40370370370370373],[-0.030208333333333334,-0.40370370370370373],[-0.03125,-0.40370370370370373],[-0.03125,-0.40370370370370373],[-0.03125,-0.40370370370370373],[-0.03125,-0.40370370370370373],[-0.03125,-0.40370370370370373],[-0.03229166666666667,-0.40185185185185185],[-0.03229166666666667,-0.40185185185185185],[-0.03229166666666667,-0.40185185185185185],[-0.03229166666666667,-0.40185185185185185],[-0.03229166666666667,-0.40185185185185185],[-0.03229166666666667,-0.40185185185185185],[-0.03229166666666667,-0.40185185185185185],[-0.03229166666666667,-0.40185185185185185],[-0.03229166666666667,-0.40185185185185185],[-0.03229166666666667,-0.40185185185185185],[-0.03229166666666667,-0.40185185185185185],[-0.03229166666666667,-0.40185185185185185],[-0.03229166666666667,-0.40185185185185185],[-0.03229166666666667,-0.40185185185185185],[-0.03229166666666667,-0.40185185185185185],[-0.03229166666666667,-0.40185185185185185],[-0.03229166666666667,-0.40185185185185185],[-0.03229166666666667,-0.40185185185185185],[-0.03229166666666667,-0.40185185185185185],[-0.03229166666666667,-0.40185185185185185],[-0.03229166666666667,-0.40185185185185185],[-0.03229166666666667,-0.40185185185185185],[-0.03229166666666667,-0.40185185185185185],[-0.03229166666666667,-0.40185185185185185],[-0.03229166666666667,-0.40185185185185185],[-0.03229166666666667,-0.40185185185185185],[-0.03229166666666667,-0.40185185185185185],[-0.03229166666666667,-0.40185185185185185],[-0.03229166666666667,-0.40185185185185185],[-0.03229166666666667,-0.40185185185185185],[-0.03229166666666667,-0.40185185185185185],[-0.03229166666666667,-0.40185185185185185],[-0.03229166666666667,-0.40185185185185185],[-0.03229166666666667,-0.40185185185185185],[-0.03229166666666667,-0.40185185185185185],[-0.03229166666666667,-0.40185185185185185],[-0.03229166666666667,-0.40185185185185185],[-0.03229166666666667,-0.40185185185185185],[-0.03229166666666667,-0.40185185185185185],[-0.03229166666666667,-0.40185185185185185],[-0.03229166666666667,-0.40185185185185185],[-0.03229166666666667,-0.40185185185185185],[-0.03229166666666667,-0.40185185185185185],[-0.03229166666666667,-0.40185185185185185],[-0.03229166666666667,-0.40185185185185185],[-0.03229166666666667,-0.40185185185185185],[-0.03229166666666667,-0.40185185185185185],[-0.03229166666666667,-0.40185185185185185],[-0.03229166666666667,-0.40185185185185185],[-0.03229166666666667,-0.40185185185185185],[-0.03229166666666667,-0.40185185185185185],[-0.03229166666666667,-0.40185185185185185],[-0.03229166666666667,-0.40185185185185185],[-0.03229166666666667,-0.40185185185185185],[-0.03229166666666667,-0.40185185185185185],[-0.03229166666666667,-0.40185185185185185],[-0.03229166666666667,-0.40185185185185185],[-0.03229166666666667,-0.40185185185185185],[-0.03229166666666667,-0.40185185185185185],[-0.03229166666666667,-0.40185185185185185],[-0.03229166666666667,-0.40185185185185185],[-0.03229166666666667,-0.40185185185185185],[-0.03229166666666667,-0.40185185185185185],[-0.03229166666666667,-0.40185185185185185],[-0.03229166666666667,-0.40185185185185185],[-0.03229166666666667,-0.40185185185185185],[-0.03229166666666667,-0.40185185185185185],[-0.03229166666666667,-0.40185185185185185],[-0.03229166666666667,-0.40185185185185185],[-0.03229166666666667,-0.40185185185185185],[-0.03229166666666667,-0.40185185185185185],[-0.03229166666666667,-0.40185185185185185],[-0.03229166666666667,-0.40185185185185185],[-0.03229166666666667,-0.40185185185185185],[-0.03229166666666667,-0.40185185185185185],[-0.03229166666666667,-0.40185185185185185],[-0.03229166666666667,-0.40185185185185185],[-0.03229166666666667,-0.40185185185185185],[-0.03229166666666667,-0.40185185185185185],[-0.03229166666666667,-0.40185185185185185],[-0.03229166666666667,-0.40185185185185185],[-0.03229166666666667,-0.40185185185185185],[-0.03229166666666667,-0.40185185185185185],[-0.03229166666666667,-0.40185185185185185],[-0.03229166666666667,-0.40185185185185185],[-0.03229166666666667,-0.40185185185185185],[-0.03229166666666667,-0.40185185185185185],[-0.03229166666666667,-0.40185185185185185],[-0.03229166666666667,-0.40185185185185185],[-0.03229166666666667,-0.40185185185185185],[-0.03229166666666667,-0.40185185185185185],[-0.03229166666666667,-0.40185185185185185],[-0.03229166666666667,-0.40185185185185185],[-0.03229166666666667,-0.40185185185185185],[-0.03229166666666667,-0.40185185185185185],[-0.03229166666666667,-0.40185185185185185],[-0.03229166666666667,-0.40185185185185185],[-0.03229166666666667,-0.40185185185185185],[-0.03229166666666667,-0.40185185185185185],[-0.03229166666666667,-0.39814814814814814],[-0.023958333333333335,-0.35],[-0.016666666666666666,-0.3314814814814815],[0.015625,-0.24814814814814815],[0.03125,-0.2111111111111111],[0.09895833333333333,-0.05740740740740741],[0.1375,0.027777777777777776],[0.17708333333333334,0.10555555555555556],[0.18645833333333334,0.12222222222222222],[0.20520833333333333,0.15925925925925927],[0.228125,0.1925925925925926],[0.23541666666666666,0.2037037037037037],[0.25625,0.2388888888888889],[0.26875,0.26481481481481484],[0.2791666666666667,0.29074074074074074],[0.2916666666666667,0.32407407407407407],[0.30520833333333336,0.35555555555555557],[0.321875,0.3925925925925926],[0.33645833333333336,0.42407407407407405],[0.3541666666666667,0.4537037037037037],[0.359375,0.45925925925925926],[0.36875,0.4722222222222222],[0.384375,0.4888888888888889],[0.4083333333333333,0.5111111111111111],[0.41875,0.5222222222222223],[0.428125,0.5277777777777778],[0.4375,0.5351851851851852],[0.44583333333333336,0.5425925925925926],[0.45,0.5425925925925926],[0.45,0.5425925925925926],[0.4510416666666667,0.5444444444444444],[0.4510416666666667,0.5444444444444444],[0.4510416666666667,0.5444444444444444],[0.4510416666666667,0.5444444444444444],[0.4510416666666667,0.5444444444444444],[0.4510416666666667,0.5444444444444444],[0.4510416666666667,0.5444444444444444],[0.4510416666666667,0.5444444444444444],[0.4510416666666667,0.5444444444444444],[0.4510416666666667,0.5444444444444444],[0.4510416666666667,0.5444444444444444],[0.4510416666666667,0.5444444444444444],[0.4510416666666667,0.5444444444444444],[0.4510416666666667,0.5444444444444444],[0.4510416666666667,0.5444444444444444],[0.4510416666666667,0.5444444444444444],[0.4510416666666667,0.5444444444444444],[0.4510416666666667,0.5444444444444444],[0.4510416666666667,0.5444444444444444],[0.4510416666666667,0.5444444444444444],[0.4510416666666667,0.5444444444444444],[0.4510416666666667,0.5444444444444444],[0.4510416666666667,0.5444444444444444],[0.4510416666666667,0.5444444444444444],[0.4510416666666667,0.5444444444444444],[0.4510416666666667,0.5444444444444444],[0.4510416666666667,0.5444444444444444],[0.4510416666666667,0.5444444444444444],[0.4510416666666667,0.5444444444444444],[0.4510416666666667,0.5444444444444444],[0.4510416666666667,0.5444444444444444],[0.4510416666666667,0.5444444444444444],[0.4510416666666667,0.5444444444444444],[0.4510416666666667,0.5444444444444444],[0.4510416666666667,0.5444444444444444],[0.4510416666666667,0.5407407407407407],[0.44895833333333335,0.5314814814814814],[0.43854166666666666,0.5074074074074074],[0.43020833333333336,0.4888888888888889],[0.425,0.4777777777777778],[0.4125,0.45555555555555555],[0.403125,0.4351851851851852],[0.3885416666666667,0.39444444444444443],[0.37395833333333334,0.3592592592592593],[0.35208333333333336,0.32222222222222224],[0.33125,0.28703703703703703],[0.30833333333333335,0.25],[0.278125,0.2111111111111111],[0.24479166666666666,0.15925925925925927],[0.21145833333333333,0.1111111111111111],[0.190625,0.07962962962962963],[0.17291666666666666,0.05185185185185185],[0.15729166666666666,0.02962962962962963],[0.14479166666666668,0.012962962962962963],[0.13125,-0.003703703703703704],[0.11979166666666667,-0.020370370370370372],[0.11770833333333333,-0.022222222222222223],[0.11666666666666667,-0.024074074074074074],[0.115625,-0.025925925925925925],[0.115625,-0.025925925925925925],[0.11354166666666667,-0.027777777777777776],[0.11354166666666667,-0.027777777777777776],[0.11354166666666667,-0.027777777777777776],[0.11354166666666667,-0.027777777777777776],[0.11354166666666667,-0.027777777777777776],[0.11354166666666667,-0.027777777777777776],[0.11354166666666667,-0.027777777777777776],[0.11354166666666667,-0.027777777777777776],[0.11354166666666667,-0.027777777777777776],[0.11354166666666667,-0.027777777777777776]]","[[-0.019687499999999976,0.21962962962962967],[-0.019687499999999976,0.21962962962962967],[-0.019687499999999976,0.21962962962962967],[-0.019687499999999976,0.21962962962962967],[-0.016354166666666715,0.23629629629629634],[-0.016354166666666715,0.23629629629629634],[-0.01083333333333331,0.2698148148148149],[-0.01083333333333331,0.2698148148148149],[-0.007187499999999976,0.2711111111111111],[-0.007187499999999976,0.2711111111111111],[0.000416666666666643,0.27925925925925915],[0.000416666666666643,0.27925925925925915],[0.008229166666666643,0.2994444444444445],[0.008229166666666643,0.2994444444444445],[0.011874999999999976,0.3131481481481482],[0.011874999999999976,0.3131481481481482],[-0.02041666666666669,0.2844444444444445],[-0.02041666666666669,0.2844444444444445],[-0.057395833333333354,0.2705555555555556],[-0.057395833333333354,0.2705555555555556],[-0.09968750000000005,0.29000000000000004],[-0.09968750000000005,0.29000000000000004],[-0.1664583333333333,0.27037037037037037],[-0.1664583333333333,0.27037037037037037],[-0.22531249999999994,0.252962962962963],[-0.22531249999999994,0.252962962962963],[-0.29270833333333335,0.22851851851851848],[-0.29270833333333335,0.22851851851851848],[-0.32447916666666665,0.17981481481481484],[-0.32447916666666665,0.17981481481481484],[-0.3204166666666667,0.14000000000000004],[-0.3204166666666667,0.14000000000000004],[-0.3203125,0.10685185185185193],[-0.3203125,0.10685185185185193],[-0.33166666666666667,0.10203703703703708],[-0.33166666666666667,0.10203703703703708],[-0.29125,0.08666666666666659],[-0.29125,0.08666666666666659],[-0.21083333333333332,0.10092592592592593],[-0.21083333333333332,0.10092592592592593],[-0.09270833333333334,0.062037037037037036],[-0.09270833333333334,0.062037037037037036],[0.025312499999999953,0.04388888888888897],[0.025312499999999953,0.04388888888888897],[0.15854166666666672,0.026851851851851852],[0.15854166666666672,0.026851851851851852],[0.27791666666666665,0.03777777777777774],[0.27791666666666665,0.03777777777777774],[0.34885416666666674,0.03925925925925934],[0.34885416666666674,0.03925925925925934],[0.3836458333333333,0.06481481481481481],[0.3836458333333333,0.06481481481481481],[0.4267708333333334,0.07166666666666675],[0.4267708333333334,0.07166666666666675],[0.44510416666666663,0.10037037037037046],[0.44510416666666663,0.10037037037037046],[0.4664583333333333,0.14240740740740737],[0.4664583333333333,0.14240740740740737],[0.4695833333333333,0.19888888888888884],[0.4695833333333333,0.19888888888888884],[0.42645833333333344,0.2764814814814814],[0.42645833333333344,0.2764814814814814],[0.41416666666666657,0.33796296296296297],[0.41416666666666657,0.33796296296296297],[0.40208333333333335,0.37222222222222223],[0.40208333333333335,0.37222222222222223],[0.35968749999999994,0.40925925925925927],[0.35968749999999994,0.40925925925925927],[0.29270833333333335,0.49833333333333335],[0.29270833333333335,0.49833333333333335],[0.21666666666666667,0.5446296296296297],[0.21666666666666667,0.5446296296296297],[0.14395833333333338,0.5751851851851852],[0.14395833333333338,0.5751851851851852],[0.12333333333333343,0.6261111111111112],[0.12333333333333343,0.6261111111111112],[0.03687499999999998,0.7838888888888889],[0.03687499999999998,0.7838888888888889],[-0.014999999999999977,0.8305555555555556],[-0.014999999999999977,0.8305555555555556],[-0.03937499999999995,0.8174074074074074],[-0.03937499999999995,0.8174074074074074],[-0.05645833333333338,0.7692592592592592],[-0.05645833333333338,0.7692592592592592],[-0.09604166666666672,0.7849999999999999],[-0.09604166666666672,0.7849999999999999],[-0.08302083333333338,0.7474074074074074],[-0.08302083333333338,0.7474074074074074],[-0.03895833333333331,0.7387037037037036],[-0.03895833333333331,0.7387037037037036],[0.026145833333333358,0.7314814814814815],[0.026145833333333358,0.7314814814814815],[0.11489583333333328,0.6996296296296295],[0.11489583333333328,0.6996296296296295],[0.1912499999999999,0.634074074074074],[0.1912499999999999,0.634074074074074],[0.1912499999999999,0.634074074074074],[0.32062499999999994,0.46296296296296297],[0.32062499999999994,0.46296296296296297],[0.3984375,0.3322222222222222],[0.3984375,0.3322222222222222],[0.4783333333333334,0.2927777777777778],[0.4783333333333334,0.2927777777777778],[0.49208333333333343,0.334074074074074],[0.49208333333333343,0.334074074074074],[0.5517708333333334,0.2825925925925926],[0.5517708333333334,0.2825925925925926],[0.5559375000000001,0.31129629629629635],[0.5559375000000001,0.31129629629629635],[0.6113541666666668,0.22296296296296292],[0.6113541666666668,0.22296296296296292],[0.5710416666666667,0.2074074074074074],[0.5710416666666667,0.2074074074074074],[0.5211458333333333,0.23796296296296296],[0.5211458333333333,0.23796296296296296],[0.4136458333333332,0.23925925925925934],[0.4136458333333332,0.23925925925925934],[0.3193749999999999,0.25314814814814823],[0.3193749999999999,0.25314814814814823],[0.2163541666666667,0.2598148148148147],[0.2163541666666667,0.2598148148148147],[0.10510416666666676,0.262037037037037],[0.10510416666666676,0.262037037037037],[0.07906250000000009,0.19796296296296292],[0.07906250000000009,0.19796296296296292],[0.03781249999999995,0.24203703703703713],[0.03781249999999995,0.24203703703703713],[0.052083333333333336,0.19870370370370363],[0.052083333333333336,0.19870370370370363],[0.012187500000000047,0.22296296296296292],[0.012187500000000047,0.22296296296296292],[0.05416666666666667,0.15777777777777785],[0.05416666666666667,0.15777777777777785],[0.06343749999999998,0.11537037037037029],[0.06343749999999998,0.11537037037037029],[0.1,0.10962962962962972],[0.1,0.10962962962962972],[0.12427083333333329,0.10351851851851848],[0.12427083333333329,0.10351851851851848],[0.16656250000000009,0.14055555555555552],[0.16656250000000009,0.14055555555555552],[0.16656250000000009,0.14055555555555552],[0.16656250000000009,0.14055555555555552],[0.20458333333333342,0.13759259259259252],[0.20458333333333342,0.13759259259259252],[0.20208333333333334,0.17685185185185184],[0.20208333333333334,0.17685185185185184],[0.16749999999999995,0.16796296296296304],[0.16749999999999995,0.16796296296296304],[0.1493750000000001,0.1875925925925925],[0.1493750000000001,0.1875925925925925],[0.1493750000000001,0.1875925925925925],[0.14677083333333343,0.20870370370370378],[0.14677083333333343,0.20870370370370378],[0.13406250000000006,0.26740740740740737],[0.13406250000000006,0.26740740740740737],[0.12479166666666662,0.31851851851851853],[0.12479166666666662,0.31851851851851853],[0.12927083333333325,0.31500000000000006],[0.12927083333333325,0.31500000000000006],[0.07760416666666667,0.2737037037037036],[0.07760416666666667,0.2737037037037036],[-0.0018749999999999527,0.24462962962962967],[-0.0018749999999999527,0.24462962962962967],[-0.07604166666666666,0.2300000000000001],[-0.07604166666666666,0.2300000000000001],[-0.1578125,0.21388888888888888],[-0.1578125,0.21388888888888888],[-0.2748958333333333,0.2116666666666666],[-0.2748958333333333,0.2116666666666666],[-0.38177083333333334,0.20703703703703696],[-0.38177083333333334,0.20703703703703696],[-0.52875,0.19407407407407398],[-0.52875,0.19407407407407398],[-0.6270833333333333,0.1737037037037036],[-0.6270833333333333,0.1737037037037036],[-0.7142708333333334,0.13796296296296295],[-0.7142708333333334,0.13796296296296295],[-0.7892708333333334,0.08611111111111111],[-0.7892708333333334,0.08611111111111111],[-0.8146875,0.07759259259259255],[-0.8146875,0.07759259259259255],[-0.7785416666666667,0.04944444444444453],[-0.7785416666666667,0.04944444444444453],[-0.6465625,0.05962962962962971],[-0.6465625,0.05962962962962971],[-0.49614583333333334,0.0588888888888888],[-0.49614583333333334,0.0588888888888888],[-0.49614583333333334,0.0588888888888888],[-0.49614583333333334,0.0588888888888888],[-0.31145833333333334,0.061666666666666585],[-0.31145833333333334,0.061666666666666585],[-0.16052083333333336,0.0455555555555556],[-0.16052083333333336,0.0455555555555556],[0.017499999999999953,0.0448148148148149],[0.017499999999999953,0.0448148148148149],[0.1568749999999999,0.03629629629629634],[0.1568749999999999,0.03629629629629634],[0.3095833333333334,0.03944444444444436],[0.3095833333333334,0.03944444444444436],[0.4510416666666667,0.08037037037037033],[0.4510416666666667,0.08037037037037033],[0.596875,0.16796296296296304],[0.596875,0.16796296296296304],[0.7102083333333333,0.2175925925925926],[0.7102083333333333,0.2175925925925926],[0.7195833333333332,0.2272222222222223],[0.7195833333333332,0.2272222222222223],[0.7117708333333332,0.2692592592592592],[0.7117708333333332,0.2692592592592592],[0.6611458333333334,0.30407407407407416],[0.6611458333333334,0.30407407407407416],[0.5947916666666667,0.3066666666666667],[0.5947916666666667,0.3066666666666667],[0.525,0.31259259259259253],[0.525,0.31259259259259253],[0.45166666666666655,0.3494444444444445],[0.45166666666666655,0.3494444444444445],[0.35989583333333336,0.35611111111111104],[0.35989583333333336,0.35611111111111104],[0.30322916666666655,0.3677777777777778],[0.2459374999999999,0.29370370370370374],[0.2459374999999999,0.29370370370370374],[0.17531249999999995,0.2611111111111111],[0.10385416666666672,0.2412962962962962],[0.06135416666666664,0.14462962962962966],[0.06135416666666664,0.14462962962962966],[0.04239583333333338,0.08092592592592601],[0.05166666666666669,0.05222222222222231],[0.058437500000000024,0.022222222222222223],[0.09447916666666671,-0.07611111111111116],[0.09447916666666671,-0.07611111111111116],[0.12999999999999995,-0.15037037037037035],[0.19249999999999995,-0.23129629629629625],[0.21208333333333323,-0.2801851851851852],[0.21208333333333323,-0.2801851851851852],[0.2603125000000001,-0.3081481481481481],[0.29833333333333345,-0.3731481481481482],[0.31520833333333326,-0.38722222222222225],[0.35927083333333343,-0.4212962962962963],[0.3955208333333334,-0.447037037037037],[0.43812499999999993,-0.4938888888888889],[0.43812499999999993,-0.4938888888888889],[0.45197916666666677,-0.49370370370370376],[0.4731250000000001,-0.4809259259259259],[0.4535416666666668,-0.4890740740740741],[0.4796875,-0.4957407407407407],[0.4796875,-0.4957407407407407],[0.47374999999999995,-0.509074074074074],[0.48885416666666665,-0.5292592592592593],[0.5016666666666666,-0.5444444444444444],[0.5140625,-0.5725925925925925],[0.5302083333333333,-0.6012962962962963],[0.5400000000000001,-0.6088888888888889],[0.5666666666666667,-0.5929629629629629],[0.5860416666666666,-0.5896296296296296],[0.6004166666666667,-0.5685185185185185],[0.6019791666666667,-0.5651851851851851],[0.6189583333333334,-0.5783333333333334],[0.6369791666666667,-0.5701851851851851],[0.6369791666666667,-0.5701851851851851],[0.6414583333333332,-0.5662962962962963],[0.6345833333333334,-0.5364814814814814],[0.6382291666666667,-0.5059259259259259],[0.6623958333333334,-0.48574074074074075],[0.6504166666666668,-0.4898148148148148],[0.6255208333333333,-0.5038888888888889],[0.6152083333333332,-0.4903703703703704],[0.6177083333333333,-0.459074074074074],[0.6177083333333333,-0.459074074074074],[0.6079166666666665,-0.45685185185185184],[0.6079166666666665,-0.45685185185185184],[0.5892708333333334,-0.45555555555555555],[0.5767708333333333,-0.41203703703703703],[0.5746875,-0.41148148148148145],[0.5838541666666667,-0.42407407407407405],[0.5666666666666667,-0.4033333333333334],[0.5613541666666667,-0.4155555555555555],[0.5650000000000001,-0.39296296296296296],[0.5421875,-0.40055555555555555],[0.5421875,-0.40055555555555555],[0.5236458333333334,-0.4242592592592593],[0.534375,-0.4462962962962963],[0.5393749999999999,-0.49592592592592594],[0.5393749999999999,-0.49592592592592594],[0.5297916666666665,-0.5142592592592592],[0.5269791666666668,-0.5142592592592592],[0.49333333333333323,-0.5112962962962964],[0.49333333333333323,-0.5112962962962964],[0.48166666666666674,-0.5324074074074074],[0.4782291666666666,-0.5233333333333334],[0.47208333333333335,-0.549074074074074],[0.47208333333333335,-0.549074074074074],[0.4710416666666667,-0.5524074074074075],[0.4680208333333333,-0.542962962962963],[0.4544791666666666,-0.5146296296296295],[0.4544791666666666,-0.5146296296296295],[0.4234375,-0.43259259259259264],[0.3818749999999999,-0.43851851851851853],[0.34874999999999995,-0.3979629629629629],[0.34874999999999995,-0.3979629629629629],[0.3084374999999999,-0.3814814814814815],[0.253125,-0.40055555555555555],[0.20864583333333328,-0.415925925925926],[0.20864583333333328,-0.415925925925926],[0.17083333333333334,-0.4212962962962963],[0.13427083333333342,-0.40185185185185185],[0.10187499999999995,-0.3918518518518519],[0.06499999999999997,-0.4014814814814815],[0.042604166666666644,-0.40981481481481485],[0.04864583333333338,-0.40407407407407403]]","[[-0.019687499999999976,0.21962962962962967,0.00030000001192576065],[-0.019687499999999976,0.21962962962962967,0.040100000023841176],[-0.019687499999999976,0.21962962962962967,0.04420000004768809],[-0.019687499999999976,0.21962962962962967,0.06200000000000472],[-0.016354166666666715,0.23629629629629634,0.09770000004768775],[-0.016354166666666715,0.23629629629629634,0.10600000000000165],[-0.01083333333333331,0.2698148148148149,0.1308000000119236],[-0.01083333333333331,0.2698148148148149,0.1401000000238426],[-0.007187499999999976,0.2711111111111111,0.16150000000000375],[-0.007187499999999976,0.2711111111111111,0.16960000002384135],[0.000416666666666643,0.27925925925925915,0.19770000004768917],[0.000416666666666643,0.27925925925925915,0.20540000003576608],[0.008229166666666643,0.2994444444444445,0.23049999999999926],[0.008229166666666643,0.2994444444444445,0.23740000003576256],[0.011874999999999976,0.3131481481481482,0.26380000001192627],[0.011874999999999976,0.3131481481481482,0.27130000001191945],[-0.02041666666666669,0.2844444444444445,0.2948000000119251],[-0.02041666666666669,0.2844444444444445,0.301800000011923],[-0.057395833333333354,0.2705555555555556,0.328200000047687],[-0.057395833333333354,0.2705555555555556,0.33610000002384055],[-0.09968750000000005,0.29000000000000004,0.36410000002384635],[-0.09968750000000005,0.29000000000000004,0.3708000000119256],[-0.1664583333333333,0.27037037037037037,0.39510000002384515],[-0.1664583333333333,0.27037037037037037,0.40260000002384544],[-0.22531249999999994,0.252962962962963,0.42840000003576506],[-0.22531249999999994,0.252962962962963,0.43640000003576773],[-0.29270833333333335,0.22851851851851848,0.46350000000000335],[-0.29270833333333335,0.22851851851851848,0.4703000000119246],[-0.32447916666666665,0.17981481481481484,0.4952000000476886],[-0.32447916666666665,0.17981481481481484,0.5034000000357679],[-0.3204166666666667,0.14000000000000004,0.5351000000238457],[-0.3204166666666667,0.14000000000000004,0.5648000000119211],[-0.3203125,0.10685185185185193,0.5816000000238404],[-0.3203125,0.10685185185185193,0.5918000000119221],[-0.33166666666666667,0.10203703703703708,0.6164000000357674],[-0.33166666666666667,0.10203703703703708,0.623700000047684],[-0.29125,0.08666666666666659,0.6461000000238428],[-0.29125,0.08666666666666659,0.6527000000476875],[-0.21083333333333332,0.10092592592592593,0.6787000000476837],[-0.21083333333333332,0.10092592592592593,0.6884000000357631],[-0.09270833333333334,0.062037037037037036,0.713000000000001],[-0.09270833333333334,0.062037037037037036,0.7199000000357643],[0.025312499999999953,0.04388888888888897,0.7466000000238466],[0.025312499999999953,0.04388888888888897,0.7547000000476842],[0.15854166666666672,0.026851851851851852,0.7794999999999987],[0.15854166666666672,0.026851851851851852,0.7861000000238434],[0.27791666666666665,0.03777777777777774,0.8137000000476888],[0.27791666666666665,0.03777777777777774,0.8213000000119237],[0.34885416666666674,0.03925925925925934,0.847400000035762],[0.34885416666666674,0.03925925925925934,0.8539999999999992],[0.3836458333333333,0.06481481481481481,0.8809000000357656],[0.3836458333333333,0.06481481481481481,0.8896000000238473],[0.4267708333333334,0.07166666666666675,0.9141000000238435],[0.4267708333333334,0.07166666666666675,0.9204000000357624],[0.44510416666666663,0.10037037037037046,0.9461000000238471],[0.44510416666666663,0.10037037037037046,0.9548000000119217],[0.4664583333333333,0.14240740740740737,0.9782000000476856],[0.4664583333333333,0.14240740740740737,0.9853000000119252],[0.4695833333333333,0.19888888888888884,1.0130000000000052],[0.4695833333333333,0.19888888888888884,1.0204000000357638],[0.42645833333333344,0.2764814814814814,1.0462000000476834],[0.42645833333333344,0.2764814814814814,1.0530000000000044],[0.41416666666666657,0.33796296296296297,1.078200000047687],[0.41416666666666657,0.33796296296296297,1.0856000000238453],[0.40208333333333335,0.37222222222222223,1.1114999999999995],[0.40208333333333335,0.37222222222222223,1.1196000000238442],[0.35968749999999994,0.40925925925925927,1.1453000000119218],[0.35968749999999994,0.40925925925925927,1.152900000035764],[0.29270833333333335,0.49833333333333335,1.1782000000476884],[0.29270833333333335,0.49833333333333335,1.1856000000238467],[0.21666666666666667,0.5446296296296297,1.2129000000357664],[0.21666666666666667,0.5446296296296297,1.221600000023841],[0.14395833333333338,0.5751851851851852,1.2463000000119209],[0.14395833333333338,0.5751851851851852,1.2531000000238421],[0.12333333333333343,0.6261111111111112,1.2797000000476828],[0.12333333333333343,0.6261111111111112,1.2868000000119224],[0.03687499999999998,0.7838888888888889,1.3129000000357678],[0.03687499999999998,0.7838888888888889,1.319700000047689],[-0.014999999999999977,0.8305555555555556,1.3462000000476877],[-0.014999999999999977,0.8305555555555556,1.353600000023846],[-0.03937499999999995,0.8174074074074074,1.3793000000119235],[-0.03937499999999995,0.8174074074074074,1.3864000000357635],[-0.05645833333333338,0.7692592592592592,1.4127000000476855],[-0.05645833333333338,0.7692592592592592,1.4204000000357624],[-0.09604166666666672,0.7849999999999999,1.446100000023847],[-0.09604166666666672,0.7849999999999999,1.4528000000119263],[-0.08302083333333338,0.7474074074074074,1.4795000000000016],[-0.08302083333333338,0.7474074074074074,1.4863000000119229],[-0.03895833333333331,0.7387037037037036,1.5128000000119215],[-0.03895833333333331,0.7387037037037036,1.5208000000119242],[0.026145833333333358,0.7314814814814815,1.5466000000238438],[0.026145833333333358,0.7314814814814815,1.555500000000002],[0.11489583333333328,0.6996296296296295,1.5793000000119264],[0.11489583333333328,0.6996296296296295,1.5861000000238406],[0.1912499999999999,0.634074074074074,1.6114999999999995],[0.1912499999999999,0.634074074074074,1.6186000000238465],[0.1912499999999999,0.634074074074074,1.6277000000476889],[0.32062499999999994,0.46296296296296297,1.6631000000238458],[0.32062499999999994,0.46296296296296297,1.6701000000238437],[0.3984375,0.3322222222222222,1.6949000000357657],[0.3984375,0.3322222222222222,1.7034000000357636],[0.4783333333333334,0.2927777777777778,1.7280000000000015],[0.4783333333333334,0.2927777777777778,1.7360000000000042],[0.49208333333333343,0.334074074074074,1.7616000000238472],[0.49208333333333343,0.334074074074074,1.7696000000238428],[0.5517708333333334,0.2825925925925926,1.7974000000357648],[0.5517708333333334,0.2825925925925926,1.8051000000238417],[0.5559375000000001,0.31129629629629635,1.8316000000238404],[0.5559375000000001,0.31129629629629635,1.8389999999999986],[0.6113541666666668,0.22296296296296292,1.8629999999999995],[0.6113541666666668,0.22296296296296292,1.8701000000238466],[0.5710416666666667,0.2074074074074074,1.8966000000238452],[0.5710416666666667,0.2074074074074074,1.9133000000119225],[0.5211458333333333,0.23796296296296296,1.9297000000476885],[0.5211458333333333,0.23796296296296296,1.9366000000238444],[0.4136458333333332,0.23925925925925934,1.9627000000476826],[0.4136458333333332,0.23925925925925934,1.9699000000357643],[0.3193749999999999,0.25314814814814823,1.9962000000476863],[0.3193749999999999,0.25314814814814823,2.003800000011921],[0.2163541666666667,0.2598148148148147,2.029700000047683],[0.2163541666666667,0.2598148148148147,2.0390000000000015],[0.10510416666666676,0.262037037037037,2.0631000000238444],[0.10510416666666676,0.262037037037037,2.0699000000357657],[0.07906250000000009,0.19796296296296292,2.096600000023841],[0.07906250000000009,0.19796296296296292,2.103700000047688],[0.03781249999999995,0.24203703703703713,2.128100000023842],[0.03781249999999995,0.24203703703703713,2.1353000000119238],[0.052083333333333336,0.19870370370370363,2.1615000000000038],[0.052083333333333336,0.19870370370370363,2.169200000047688],[0.012187500000000047,0.22296296296296292,2.195300000011926],[0.012187500000000047,0.22296296296296292,2.2025000000000006],[0.05416666666666667,0.15777777777777785,2.2297000000476856],[0.05416666666666667,0.15777777777777785,2.2373000000119205],[0.06343749999999998,0.11537037037037029,2.2630000000000052],[0.06343749999999998,0.11537037037037029,2.2696000000238428],[0.1,0.10962962962962972,2.294900000035767],[0.1,0.10962962962962972,2.302700000047686],[0.12427083333333329,0.10351851851851848,2.3294000000357613],[0.12427083333333329,0.10351851851851848,2.3368000000119196],[0.16656250000000009,0.14055555555555552,2.3616000000238415],[0.16656250000000009,0.14055555555555552,2.369200000047684],[0.16656250000000009,0.14055555555555552,2.377600000023847],[0.16656250000000009,0.14055555555555552,2.395900000035766],[0.20458333333333342,0.13759259259259252,2.4281000000238464],[0.20458333333333342,0.13759259259259252,2.4359000000357653],[0.20208333333333334,0.17685185185185184,2.463000000000001],[0.20208333333333334,0.17685185185185184,2.470200000047683],[0.16749999999999995,0.16796296296296304,2.494800000011921],[0.16749999999999995,0.16796296296296304,2.502600000023847],[0.1493750000000001,0.1875925925925925,2.530000000000001],[0.1493750000000001,0.1875925925925925,2.5429999999999993],[0.1493750000000001,0.1875925925925925,2.547800000011925],[0.14677083333333343,0.20870370370370378,2.5806000000238427],[0.14677083333333343,0.20870370370370378,2.588100000023843],[0.13406250000000006,0.26740740740740737,2.6127000000476883],[0.13406250000000006,0.26740740740740737,2.6211000000238442],[0.12479166666666662,0.31851851851851853,2.646100000023843],[0.12479166666666662,0.31851851851851853,2.6541000000238455],[0.12927083333333325,0.31500000000000006,2.6794000000357627],[0.12927083333333325,0.31500000000000006,2.6866000000238444],[0.07760416666666667,0.2737037037037036,2.7128000000119243],[0.07760416666666667,0.2737037037037036,2.72080000001192],[-0.0018749999999999527,0.24462962962962967,2.746000000000002],[-0.0018749999999999527,0.24462962962962967,2.753400000035768],[-0.07604166666666666,0.2300000000000001,2.779400000035764],[-0.07604166666666666,0.2300000000000001,2.787400000035767],[-0.1578125,0.21388888888888888,2.8130000000000024],[-0.1578125,0.21388888888888888,2.8205000000000027],[-0.2748958333333333,0.2116666666666666,2.8462000000476877],[-0.2748958333333333,0.2116666666666666,2.853400000035762],[-0.38177083333333334,0.20703703703703696,2.8794000000357656],[-0.38177083333333334,0.20703703703703696,2.8870000000000005],[-0.52875,0.19407407407407398,2.913000000000004],[-0.52875,0.19407407407407398,2.920600000023846],[-0.6270833333333333,0.1737037037037036,2.9466000000238424],[-0.6270833333333333,0.1737037037037036,2.954700000047687],[-0.7142708333333334,0.13796296296296295,2.9795000000000016],[-0.7142708333333334,0.13796296296296295,2.9866000000238415],[-0.7892708333333334,0.08611111111111111,3.0128000000119215],[-0.7892708333333334,0.08611111111111111,3.0196000000238428],[-0.8146875,0.07759259259259255,3.0462000000476834],[-0.8146875,0.07759259259259255,3.0532000000476884],[-0.7785416666666667,0.04944444444444453,3.0806000000238427],[-0.7785416666666667,0.04944444444444453,3.087400000035764],[-0.6465625,0.05962962962962971,3.1114999999999995],[-0.6465625,0.05962962962962971,3.118800000011923],[-0.49614583333333334,0.0588888888888888,3.147600000023843],[-0.49614583333333334,0.0588888888888888,3.155100000023843],[-0.49614583333333334,0.0588888888888888,3.1608000000119247],[-0.49614583333333334,0.0588888888888888,3.179200000047686],[-0.31145833333333334,0.061666666666666585,3.213900000035764],[-0.31145833333333334,0.061666666666666585,3.2206000000238433],[-0.16052083333333336,0.0455555555555556,3.247200000047684],[-0.16052083333333336,0.0455555555555556,3.254200000047689],[0.017499999999999953,0.0448148148148149,3.2807000000476876],[0.017499999999999953,0.0448148148148149,3.2877000000476855],[0.1568749999999999,0.03629629629629634,3.3115000000000023],[0.1568749999999999,0.03629629629629634,3.3194000000357633],[0.3095833333333334,0.03944444444444436,3.34730000001192],[0.3095833333333334,0.03944444444444436,3.3545000000000016],[0.4510416666666667,0.08037037037037033,3.380600000023847],[0.4510416666666667,0.08037037037037033,3.3879000000357635],[0.596875,0.16796296296296304,3.411700000047688],[0.596875,0.16796296296296304,3.419200000047688],[0.7102083333333333,0.2175925925925926,3.4449000000357657],[0.7102083333333333,0.2175925925925926,3.4527000000476846],[0.7195833333333332,0.2272222222222223,3.47830000001192],[0.7195833333333332,0.2272222222222223,3.4851000000238415],[0.7117708333333332,0.2692592592592592,3.5114000000357635],[0.7117708333333332,0.2692592592592592,3.522700000047685],[0.6611458333333334,0.30407407407407416,3.547300000011923],[0.6611458333333334,0.30407407407407416,3.5646000000238445],[0.5947916666666667,0.3066666666666667,3.581100000023845],[0.5947916666666667,0.3066666666666667,3.5879000000357664],[0.525,0.31259259259259253,3.6178000000119255],[0.525,0.31259259259259253,3.625100000023842],[0.45166666666666655,0.3494444444444445,3.6473000000119242],[0.45166666666666655,0.3494444444444445,3.6570000000000036],[0.35989583333333336,0.35611111111111104,3.6864000000357677],[0.35989583333333336,0.35611111111111104,3.6957000000476867],[0.30322916666666655,0.3677777777777778,3.7111000000238406],[0.2459374999999999,0.29370370370370374,3.7306000000238413],[0.2459374999999999,0.29370370370370374,3.749400000035763],[0.17531249999999995,0.2611111111111111,3.761000000000003],[0.10385416666666672,0.2412962962962962,3.777900000035764],[0.06135416666666664,0.14462962962962966,3.7993000000119252],[0.06135416666666664,0.14462962962962966,3.8113000000119257],[0.04239583333333338,0.08092592592592601,3.8277000000476846],[0.05166666666666669,0.05222222222222231,3.84430000001192],[0.058437500000000024,0.022222222222222223,3.8641000000238463],[0.09447916666666671,-0.07611111111111116,3.8832000000476867],[0.09447916666666671,-0.07611111111111116,3.8946000000238428],[0.12999999999999995,-0.15037037037037035,3.9110000000000014],[0.19249999999999995,-0.23129629629629625,3.931300000011923],[0.21208333333333323,-0.2801851851851852,3.9499000000357682],[0.21208333333333323,-0.2801851851851852,3.9609999999999985],[0.2603125000000001,-0.3081481481481481,3.977700000047683],[0.29833333333333345,-0.3731481481481482,3.9984000000357653],[0.31520833333333326,-0.38722222222222225,4.014800000011924],[0.35927083333333343,-0.4212962962962963,4.031300000011925],[0.3955208333333334,-0.447037037037037,4.047800000011925],[0.43812499999999993,-0.4938888888888889,4.0655],[0.43812499999999993,-0.4938888888888889,4.077600000023843],[0.45197916666666677,-0.49370370370370376,4.094200000047685],[0.4731250000000001,-0.4809259259259259,4.111800000011925],[0.4535416666666668,-0.4890740740740741,4.127500000000005],[0.4796875,-0.4957407407407407,4.144200000047682],[0.4796875,-0.4957407407407407,4.160800000011925],[0.47374999999999995,-0.509074074074074,4.177500000000002],[0.48885416666666665,-0.5292592592592593,4.195400000035768],[0.5016666666666666,-0.5444444444444444,4.214600000023843],[0.5140625,-0.5725925925925925,4.231400000035762],[0.5302083333333333,-0.6012962962962963,4.247300000011926],[0.5400000000000001,-0.6088888888888889,4.2621000000238425],[0.5666666666666667,-0.5929629629629629,4.277500000000003],[0.5860416666666666,-0.5896296296296296,4.297100000023846],[0.6004166666666667,-0.5685185185185185,4.310800000011923],[0.6019791666666667,-0.5651851851851851,4.327500000000001],[0.6189583333333334,-0.5783333333333334,4.344100000023843],[0.6369791666666667,-0.5701851851851851,4.3679000000357675],[0.6369791666666667,-0.5701851851851851,4.377400000035763],[0.6414583333333332,-0.5662962962962963,4.394300000011924],[0.6345833333333334,-0.5364814814814814,4.410900000035767],[0.6382291666666667,-0.5059259259259259,4.430500000000002],[0.6623958333333334,-0.48574074074074075,4.447100000023845],[0.6504166666666668,-0.4898148148148148,4.462700000047683],[0.6255208333333333,-0.5038888888888889,4.477700000047683],[0.6152083333333332,-0.4903703703703704,4.495600000023842],[0.6177083333333333,-0.459074074074074,4.512400000035768],[0.6177083333333333,-0.459074074074074,4.527500000000003],[0.6079166666666665,-0.45685185185185184,4.544200000047688],[0.6079166666666665,-0.45685185185185184,4.560800000011923],[0.5892708333333334,-0.45555555555555555,4.577600000023843],[0.5767708333333333,-0.41203703703703703,4.594200000047685],[0.5746875,-0.41148148148148145,4.6108000000119205],[0.5838541666666667,-0.42407407407407405,4.6278000000119235],[0.5666666666666667,-0.4033333333333334,4.648700000047683],[0.5613541666666667,-0.4155555555555555,4.664600000023846],[0.5650000000000001,-0.39296296296296296,4.6810000000000045],[0.5421875,-0.40055555555555555,4.702200000047682],[0.5421875,-0.40055555555555555,4.7109999999999985],[0.5236458333333334,-0.4242592592592593,4.727700000047683],[0.534375,-0.4462962962962963,4.744400000035768],[0.5393749999999999,-0.49592592592592594,4.766500000000001],[0.5393749999999999,-0.49592592592592594,4.777600000023845],[0.5297916666666665,-0.5142592592592592,4.794700000047683],[0.5269791666666668,-0.5142592592592592,4.811200000047684],[0.49333333333333323,-0.5112962962962964,4.834000000000003],[0.49333333333333323,-0.5112962962962964,4.84430000001192],[0.48166666666666674,-0.5324074074074074,4.861000000000004],[0.4782291666666666,-0.5233333333333334,4.877700000047689],[0.47208333333333335,-0.549074074074074,4.900700000047685],[0.47208333333333335,-0.549074074074074,4.910900000035767],[0.4710416666666667,-0.5524074074074075,4.927700000047686],[0.4680208333333333,-0.542962962962963,4.944300000011921],[0.4544791666666666,-0.5146296296296295,4.9666000000238455],[0.4544791666666666,-0.5146296296296295,4.977700000047683],[0.4234375,-0.43259259259259264,4.994400000035768],[0.3818749999999999,-0.43851851851851853,5.014400000035764],[0.34874999999999995,-0.3979629629629629,5.030800000011922],[0.34874999999999995,-0.3979629629629629,5.044100000023846],[0.3084374999999999,-0.3814814814814815,5.061100000023842],[0.253125,-0.40055555555555555,5.077400000035766],[0.20864583333333328,-0.415925925925926,5.096000000000004],[0.20864583333333328,-0.415925925925926,5.1108000000119205],[0.17083333333333334,-0.4212962962962963,5.127500000000005],[0.13427083333333342,-0.40185185185185185,5.14410000002384],[0.10187499999999995,-0.3918518518518519,5.16130000001192],[0.06499999999999997,-0.4014814814814815,5.182000000000002],[0.042604166666666644,-0.40981481481481485,5.199300000011924],[0.04864583333333338,-0.40407407407407403,5.215499999999999]]","[0.00030000001192576065,0.040100000023841176,0.04420000004768809,0.06200000000000472,0.09770000004768775,0.10600000000000165,0.1308000000119236,0.1401000000238426,0.16150000000000375,0.16960000002384135,0.19770000004768917,0.20540000003576608,0.23049999999999926,0.23740000003576256,0.26380000001192627,0.27130000001191945,0.2948000000119251,0.301800000011923,0.328200000047687,0.33610000002384055,0.36410000002384635,0.3708000000119256,0.39510000002384515,0.40260000002384544,0.42840000003576506,0.43640000003576773,0.46350000000000335,0.4703000000119246,0.4952000000476886,0.5034000000357679,0.5351000000238457,0.5648000000119211,0.5816000000238404,0.5918000000119221,0.6164000000357674,0.623700000047684,0.6461000000238428,0.6527000000476875,0.6787000000476837,0.6884000000357631,0.713000000000001,0.7199000000357643,0.7466000000238466,0.7547000000476842,0.7794999999999987,0.7861000000238434,0.8137000000476888,0.8213000000119237,0.847400000035762,0.8539999999999992,0.8809000000357656,0.8896000000238473,0.9141000000238435,0.9204000000357624,0.9461000000238471,0.9548000000119217,0.9782000000476856,0.9853000000119252,1.0130000000000052,1.0204000000357638,1.0462000000476834,1.0530000000000044,1.078200000047687,1.0856000000238453,1.1114999999999995,1.1196000000238442,1.1453000000119218,1.152900000035764,1.1782000000476884,1.1856000000238467,1.2129000000357664,1.221600000023841,1.2463000000119209,1.2531000000238421,1.2797000000476828,1.2868000000119224,1.3129000000357678,1.319700000047689,1.3462000000476877,1.353600000023846,1.3793000000119235,1.3864000000357635,1.4127000000476855,1.4204000000357624,1.446100000023847,1.4528000000119263,1.4795000000000016,1.4863000000119229,1.5128000000119215,1.5208000000119242,1.5466000000238438,1.555500000000002,1.5793000000119264,1.5861000000238406,1.6114999999999995,1.6186000000238465,1.6277000000476889,1.6631000000238458,1.6701000000238437,1.6949000000357657,1.7034000000357636,1.7280000000000015,1.7360000000000042,1.7616000000238472,1.7696000000238428,1.7974000000357648,1.8051000000238417,1.8316000000238404,1.8389999999999986,1.8629999999999995,1.8701000000238466,1.8966000000238452,1.9133000000119225,1.9297000000476885,1.9366000000238444,1.9627000000476826,1.9699000000357643,1.9962000000476863,2.003800000011921,2.029700000047683,2.0390000000000015,2.0631000000238444,2.0699000000357657,2.096600000023841,2.103700000047688,2.128100000023842,2.1353000000119238,2.1615000000000038,2.169200000047688,2.195300000011926,2.2025000000000006,2.2297000000476856,2.2373000000119205,2.2630000000000052,2.2696000000238428,2.294900000035767,2.302700000047686,2.3294000000357613,2.3368000000119196,2.3616000000238415,2.369200000047684,2.377600000023847,2.395900000035766,2.4281000000238464,2.4359000000357653,2.463000000000001,2.470200000047683,2.494800000011921,2.502600000023847,2.530000000000001,2.5429999999999993,2.547800000011925,2.5806000000238427,2.588100000023843,2.6127000000476883,2.6211000000238442,2.646100000023843,2.6541000000238455,2.6794000000357627,2.6866000000238444,2.7128000000119243,2.72080000001192,2.746000000000002,2.753400000035768,2.779400000035764,2.787400000035767,2.8130000000000024,2.8205000000000027,2.8462000000476877,2.853400000035762,2.8794000000357656,2.8870000000000005,2.913000000000004,2.920600000023846,2.9466000000238424,2.954700000047687,2.9795000000000016,2.9866000000238415,3.0128000000119215,3.0196000000238428,3.0462000000476834,3.0532000000476884,3.0806000000238427,3.087400000035764,3.1114999999999995,3.118800000011923,3.147600000023843,3.155100000023843,3.1608000000119247,3.179200000047686,3.213900000035764,3.2206000000238433,3.247200000047684,3.254200000047689,3.2807000000476876,3.2877000000476855,3.3115000000000023,3.3194000000357633,3.34730000001192,3.3545000000000016,3.380600000023847,3.3879000000357635,3.411700000047688,3.419200000047688,3.4449000000357657,3.4527000000476846,3.47830000001192,3.4851000000238415,3.5114000000357635,3.522700000047685,3.547300000011923,3.5646000000238445,3.581100000023845,3.5879000000357664,3.6178000000119255,3.625100000023842,3.6473000000119242,3.6570000000000036,3.6864000000357677,3.6957000000476867,3.7111000000238406,3.7306000000238413,3.749400000035763,3.761000000000003,3.777900000035764,3.7993000000119252,3.8113000000119257,3.8277000000476846,3.84430000001192,3.8641000000238463,3.8832000000476867,3.8946000000238428,3.9110000000000014,3.931300000011923,3.9499000000357682,3.9609999999999985,3.977700000047683,3.9984000000357653,4.014800000011924,4.031300000011925,4.047800000011925,4.0655,4.077600000023843,4.094200000047685,4.111800000011925,4.127500000000005,4.144200000047682,4.160800000011925,4.177500000000002,4.195400000035768,4.214600000023843,4.231400000035762,4.247300000011926,4.2621000000238425,4.277500000000003,4.297100000023846,4.310800000011923,4.327500000000001,4.344100000023843,4.3679000000357675,4.377400000035763,4.394300000011924,4.410900000035767,4.430500000000002,4.447100000023845,4.462700000047683,4.477700000047683,4.495600000023842,4.512400000035768,4.527500000000003,4.544200000047688,4.560800000011923,4.577600000023843,4.594200000047685,4.6108000000119205,4.6278000000119235,4.648700000047683,4.664600000023846,4.6810000000000045,4.702200000047682,4.7109999999999985,4.727700000047683,4.744400000035768,4.766500000000001,4.777600000023845,4.794700000047683,4.811200000047684,4.834000000000003,4.84430000001192,4.861000000000004,4.877700000047689,4.900700000047685,4.910900000035767,4.927700000047686,4.944300000011921,4.9666000000238455,4.977700000047683,4.994400000035768,5.014400000035764,5.030800000011922,5.044100000023846,5.061100000023842,5.077400000035766,5.096000000000004,5.1108000000119205,5.127500000000005,5.14410000002384,5.16130000001192,5.182000000000002,5.199300000011924,5.215499999999999]","[1733036654896,1733036654929,1733036654933,1733036654951,1733036654986,1733036654995,1733036655019,1733036655029,1733036655050,1733036655058,1733036655086,1733036655094,1733036655119,1733036655126,1733036655152,1733036655160,1733036655183,1733036655190,1733036655217,1733036655225,1733036655253,1733036655259,1733036655284,1733036655291,1733036655317,1733036655325,1733036655352,1733036655359,1733036655384,1733036655392,1733036655424,1733036655453,1733036655470,1733036655480,1733036655505,1733036655512,1733036655535,1733036655541,1733036655567,1733036655577,1733036655602,1733036655608,1733036655635,1733036655643,1733036655668,1733036655675,1733036655702,1733036655710,1733036655736,1733036655743,1733036655769,1733036655778,1733036655803,1733036655809,1733036655835,1733036655843,1733036655867,1733036655874,1733036655902,1733036655909,1733036655935,1733036655942,1733036655967,1733036655974,1733036656000,1733036656008,1733036656034,1733036656041,1733036656067,1733036656074,1733036656101,1733036656110,1733036656135,1733036656142,1733036656168,1733036656175,1733036656201,1733036656208,1733036656235,1733036656242,1733036656268,1733036656275,1733036656301,1733036656309,1733036656335,1733036656341,1733036656368,1733036656375,1733036656401,1733036656409,1733036656435,1733036656444,1733036656468,1733036656475,1733036656500,1733036656507,1733036656516,1733036656552,1733036656559,1733036656583,1733036656592,1733036656617,1733036656624,1733036656650,1733036656658,1733036656686,1733036656694,1733036656720,1733036656728,1733036656752,1733036656759,1733036656785,1733036656802,1733036656818,1733036656825,1733036656851,1733036656858,1733036656885,1733036656893,1733036656918,1733036656927,1733036656952,1733036656958,1733036656985,1733036656992,1733036657017,1733036657024,1733036657050,1733036657058,1733036657084,1733036657091,1733036657118,1733036657126,1733036657151,1733036657158,1733036657183,1733036657191,1733036657218,1733036657225,1733036657250,1733036657258,1733036657266,1733036657285,1733036657317,1733036657324,1733036657352,1733036657359,1733036657383,1733036657391,1733036657419,1733036657432,1733036657436,1733036657469,1733036657477,1733036657501,1733036657510,1733036657535,1733036657543,1733036657568,1733036657575,1733036657601,1733036657609,1733036657635,1733036657642,1733036657668,1733036657676,1733036657702,1733036657709,1733036657735,1733036657742,1733036657768,1733036657776,1733036657802,1733036657809,1733036657835,1733036657843,1733036657868,1733036657875,1733036657901,1733036657908,1733036657935,1733036657942,1733036657969,1733036657976,1733036658000,1733036658007,1733036658036,1733036658044,1733036658049,1733036658068,1733036658102,1733036658109,1733036658136,1733036658143,1733036658169,1733036658176,1733036658200,1733036658208,1733036658236,1733036658243,1733036658269,1733036658276,1733036658300,1733036658308,1733036658333,1733036658341,1733036658367,1733036658374,1733036658400,1733036658411,1733036658436,1733036658453,1733036658470,1733036658477,1733036658506,1733036658514,1733036658536,1733036658545,1733036658575,1733036658584,1733036658600,1733036658619,1733036658638,1733036658650,1733036658666,1733036658688,1733036658700,1733036658716,1733036658733,1733036658753,1733036658772,1733036658783,1733036658800,1733036658820,1733036658838,1733036658850,1733036658866,1733036658887,1733036658903,1733036658920,1733036658936,1733036658954,1733036658966,1733036658983,1733036659000,1733036659016,1733036659033,1733036659049,1733036659066,1733036659084,1733036659103,1733036659120,1733036659136,1733036659151,1733036659166,1733036659186,1733036659199,1733036659216,1733036659233,1733036659256,1733036659266,1733036659283,1733036659299,1733036659319,1733036659336,1733036659351,1733036659366,1733036659384,1733036659401,1733036659416,1733036659433,1733036659449,1733036659466,1733036659483,1733036659499,1733036659516,1733036659537,1733036659553,1733036659569,1733036659591,1733036659600,1733036659616,1733036659633,1733036659655,1733036659666,1733036659683,1733036659700,1733036659723,1733036659733,1733036659750,1733036659766,1733036659789,1733036659799,1733036659816,1733036659833,1733036659855,1733036659866,1733036659883,1733036659903,1733036659919,1733036659933,1733036659950,1733036659966,1733036659985,1733036659999,1733036660016,1733036660033,1733036660050,1733036660071,1733036660088,1733036660104]","[[941.1,658.6],[941.1,658.6],[941.1,658.6],[941.1,658.6],[944.3,667.6],[944.3,667.6],[949.6,685.7],[949.6,685.7],[953.1,686.4],[953.1,686.4],[960.4,690.8],[960.4,690.8],[967.9,701.7],[967.9,701.7],[971.4,709.1],[971.4,709.1],[940.4,693.6],[940.4,693.6],[904.9,686.1],[904.9,686.1],[864.3,696.6],[864.3,696.6],[800.2,686],[800.2,686],[743.7,676.6],[743.7,676.6],[679,663.4],[679,663.4],[648.5,637.1],[648.5,637.1],[652.4,615.6],[652.4,615.6],[652.5,597.7],[652.5,597.7],[641.6,595.1],[641.6,595.1],[680.4,586.8],[680.4,586.8],[757.6,594.5],[757.6,594.5],[871,573.5],[871,573.5],[984.3,563.7],[984.3,563.7],[1112.2,554.5],[1112.2,554.5],[1226.8,560.4],[1226.8,560.4],[1294.9,561.2],[1294.9,561.2],[1328.3,575],[1328.3,575],[1369.7,578.7],[1369.7,578.7],[1387.3,594.2],[1387.3,594.2],[1407.8,616.9],[1407.8,616.9],[1410.8,647.4],[1410.8,647.4],[1369.4,689.3],[1369.4,689.3],[1357.6,722.5],[1357.6,722.5],[1346,741],[1346,741],[1305.3,761],[1305.3,761],[1241,809.1],[1241,809.1],[1168,834.1],[1168,834.1],[1098.2,850.6],[1098.2,850.6],[1078.4,878.1],[1078.4,878.1],[995.4,963.3],[995.4,963.3],[945.6,988.5],[945.6,988.5],[922.2,981.4],[922.2,981.4],[905.8,955.4],[905.8,955.4],[867.8,963.9],[867.8,963.9],[880.3,943.6],[880.3,943.6],[922.6,938.9],[922.6,938.9],[985.1,935],[985.1,935],[1070.3,917.8],[1070.3,917.8],[1143.6,882.4],[1143.6,882.4],[1143.6,882.4],[1267.8,790],[1267.8,790],[1342.5,719.4],[1342.5,719.4],[1419.2,698.1],[1419.2,698.1],[1432.4,720.4],[1432.4,720.4],[1489.7,692.6],[1489.7,692.6],[1493.7,708.1],[1493.7,708.1],[1546.9,660.4],[1546.9,660.4],[1508.2,652],[1508.2,652],[1460.3,668.5],[1460.3,668.5],[1357.1,669.2],[1357.1,669.2],[1266.6,676.7],[1266.6,676.7],[1167.7,680.3],[1167.7,680.3],[1060.9,681.5],[1060.9,681.5],[1035.9,646.9],[1035.9,646.9],[996.3,670.7],[996.3,670.7],[1010,647.3],[1010,647.3],[971.7,660.4],[971.7,660.4],[1012,625.2],[1012,625.2],[1020.9,602.3],[1020.9,602.3],[1056,599.2],[1056,599.2],[1079.3,595.9],[1079.3,595.9],[1119.9,615.9],[1119.9,615.9],[1119.9,615.9],[1119.9,615.9],[1156.4,614.3],[1156.4,614.3],[1154,635.5],[1154,635.5],[1120.8,630.7],[1120.8,630.7],[1103.4,641.3],[1103.4,641.3],[1103.4,641.3],[1100.9,652.7],[1100.9,652.7],[1088.7,684.4],[1088.7,684.4],[1079.8,712],[1079.8,712],[1084.1,710.1],[1084.1,710.1],[1034.5,687.8],[1034.5,687.8],[958.2,672.1],[958.2,672.1],[887,664.2],[887,664.2],[808.5,655.5],[808.5,655.5],[696.1,654.3],[696.1,654.3],[593.5,651.8],[593.5,651.8],[452.4,644.8],[452.4,644.8],[358,633.8],[358,633.8],[274.3,614.5],[274.3,614.5],[202.3,586.5],[202.3,586.5],[177.9,581.9],[177.9,581.9],[212.6,566.7],[212.6,566.7],[339.3,572.2],[339.3,572.2],[483.7,571.8],[483.7,571.8],[483.7,571.8],[483.7,571.8],[661,573.3],[661,573.3],[805.9,564.6],[805.9,564.6],[976.8,564.2],[976.8,564.2],[1110.6,559.6],[1110.6,559.6],[1257.2,561.3],[1257.2,561.3],[1393,583.4],[1393,583.4],[1533,630.7],[1533,630.7],[1641.8,657.5],[1641.8,657.5],[1650.8,662.7],[1650.8,662.7],[1643.3,685.4],[1643.3,685.4],[1594.7,704.2],[1594.7,704.2],[1531,705.6],[1531,705.6],[1464,708.8],[1464,708.8],[1393.6,728.7],[1393.6,728.7],[1305.5,732.3],[1305.5,732.3],[1251.1,738.6],[1196.1,698.6],[1196.1,698.6],[1128.3,681],[1059.7,670.3],[1018.9,618.1],[1018.9,618.1],[1000.7,583.7],[1009.6,568.2],[1016.1,552],[1050.7,498.9],[1050.7,498.9],[1084.8,458.8],[1144.8,415.1],[1163.6,388.7],[1163.6,388.7],[1209.9,373.6],[1246.4,338.5],[1262.6,330.9],[1304.9,312.5],[1339.7,298.6],[1380.6,273.3],[1380.6,273.3],[1393.9,273.4],[1414.2,280.3],[1395.4,275.9],[1420.5,272.3],[1420.5,272.3],[1414.8,265.1],[1429.3,254.2],[1441.6,246],[1453.5,230.8],[1469,215.3],[1478.4,211.2],[1504,219.8],[1522.6,221.6],[1536.4,233],[1537.9,234.8],[1554.2,227.7],[1571.5,232.1],[1571.5,232.1],[1575.8,234.2],[1569.2,250.3],[1572.7,266.8],[1595.9,277.7],[1584.4,275.5],[1560.5,267.9],[1550.6,275.2],[1553,292.1],[1553,292.1],[1543.6,293.3],[1543.6,293.3],[1525.7,294],[1513.7,317.5],[1511.7,317.8],[1520.5,311],[1504,322.2],[1498.9,315.6],[1502.4,327.8],[1480.5,323.7],[1480.5,323.7],[1462.7,310.9],[1473,299],[1477.8,272.2],[1477.8,272.2],[1468.6,262.3],[1465.9,262.3],[1433.6,263.9],[1433.6,263.9],[1422.4,252.5],[1419.1,257.4],[1413.2,243.5],[1413.2,243.5],[1412.2,241.7],[1409.3,246.8],[1396.3,262.1],[1396.3,262.1],[1366.5,306.4],[1326.6,303.2],[1294.8,325.1],[1294.8,325.1],[1256.1,334],[1203,323.7],[1160.3,315.4],[1160.3,315.4],[1124,312.5],[1088.9,323],[1057.8,328.4],[1022.4,323.2],[1000.9,318.7],[1006.7,321.8]]","[0,0.5333]","[0.5333,0.5333]","[-0.5333,0]","[-0.5333,-0.5333]","[0,0]","[0.5333,0]","[0,-0.5333]","[0.5333,-0.5333]",0,0,0,0,1,2,Monitor,7,1,11,9
