inst1_resp.keys,inst1_resp.rt,calibrationMouse.x,calibrationMouse.y,calibrationMouse.leftButton,calibrationMouse.midButton,calibrationMouse.rightButton,calibrationClick.x,calibrationClick.y,calibrationClick.leftButton,calibrationClick.midButton,calibrationClick.rightButton,calibrationClick.clicked_name,trialsc.thisRepN,trialsc.thisTrialN,trialsc.thisN,trialsc.thisIndex,trialsc.ran,calibration_x,calibration_y,participant,session,date,expName,psychopyVersion,OS,frameRate,ScreenRes_pixels,Camera_pixels,mouse_2.x,mouse_2.y,mouse_2.leftButton,mouse_2.midButton,mouse_2.rightButton,mouse_2.time,mouse_2.clicked_name,mouse.x,mouse.y,mouse.leftButton,mouse.midButton,mouse.rightButton,mouse.time,mouse.clicked_name,Choice,Trial,TrialDuration,MOUSE_GAZE,ET_GAZE,ET_GAZE_x_T,time,unixTime,ET_GAZE_NF,Loc_Option1_label,Loc_Option2_label,Loc_Cost_label,Loc_Qual_label,Loc_Option1_cost,Loc_Option2_cost,Loc_Option1_quality,Loc_Option2_quality,trials.thisRepN,trials.thisTrialN,trials.thisN,trials.thisIndex,trials.ran,Block,Device,cost1,qual1,cost2,qual2
space,1.4305,-0.023958333,-0.114814815,1,0,0,-0.00625,-0.005555556,1,0,0,calibration_square,0,0,0,11,1,0,0,38,001,2024-12-02_13h28.41.442,Attention_exp_legacy,2023.1.0,Win32,60.24096386,,,,,,,,,,,,,,,,,,,,,,,,,,,,,,,,,,,,,,,,,,,,
,,,,,,,-0.310416667,-0.681481481,1,0,0,,0,1,1,4,1,-0.33,-0.67,38,001,2024-12-02_13h28.41.442,Attention_exp_legacy,2023.1.0,Win32,60.24096386,,,,,,,,,,,,,,,,,,,,,,,,,,,,,,,,,,,,,,,,,,,,
,,,,,,,0.278125,0.601851852,1,0,0,,0,2,2,18,1,0.33,0.67,38,001,2024-12-02_13h28.41.442,Attention_exp_legacy,2023.1.0,Win32,60.24096386,,,,,,,,,,,,,,,,,,,,,,,,,,,,,,,,,,,,,,,,,,,,
,,,,,,,0.7125,0.659259259,1,0,0,,0,3,3,19,1,0.67,0.67,38,001,2024-12-02_13h28.41.442,Attention_exp_legacy,2023.1.0,Win32,60.24096386,,,,,,,,,,,,,,,,,,,,,,,,,,,,,,,,,,,,,,,,,,,,
,,,,,,,-0.308333333,-0.125925926,1,0,0,,0,4,4,6,1,-0.33,0,38,001,2024-12-02_13h28.41.442,Attention_exp_legacy,2023.1.0,Win32,60.24096386,,,,,,,,,,,,,,,,,,,,,,,,,,,,,,,,,,,,,,,,,,,,
,,,,,,,0.348958333,0.303703704,1,0,0,,0,5,5,17,1,0.33,0.33,38,001,2024-12-02_13h28.41.442,Attention_exp_legacy,2023.1.0,Win32,60.24096386,,,,,,,,,,,,,,,,,,,,,,,,,,,,,,,,,,,,,,,,,,,,
,,,,,,,0.689583333,-0.583333333,1,0,0,,0,6,6,20,1,0.67,-0.67,38,001,2024-12-02_13h28.41.442,Attention_exp_legacy,2023.1.0,Win32,60.24096386,,,,,,,,,,,,,,,,,,,,,,,,,,,,,,,,,,,,,,,,,,,,
,,,,,,,-0.294791667,0.722222222,1,0,0,,0,7,7,8,1,-0.33,0.67,38,001,2024-12-02_13h28.41.442,Attention_exp_legacy,2023.1.0,Win32,60.24096386,,,,,,,,,,,,,,,,,,,,,,,,,,,,,,,,,,,,,,,,,,,,
,,,,,,,-0.629166667,-0.464814815,1,0,0,,0,8,8,1,1,-0.67,-0.33,38,001,2024-12-02_13h28.41.442,Attention_exp_legacy,2023.1.0,Win32,60.24096386,,,,,,,,,,,,,,,,,,,,,,,,,,,,,,,,,,,,,,,,,,,,
,,,,,,,-0.739583333,-0.011111111,1,0,0,,0,9,9,2,1,-0.67,0,38,001,2024-12-02_13h28.41.442,Attention_exp_legacy,2023.1.0,Win32,60.24096386,,,,,,,,,,,,,,,,,,,,,,,,,,,,,,,,,,,,,,,,,,,,
,,,,,,,-0.629166667,0.316666667,1,0,0,,0,10,10,3,1,-0.67,0.33,38,001,2024-12-02_13h28.41.442,Attention_exp_legacy,2023.1.0,Win32,60.24096386,,,,,,,,,,,,,,,,,,,,,,,,,,,,,,,,,,,,,,,,,,,,
,,,,,,,-0.014583333,0.6,1,0,0,,0,11,11,13,1,0,0.67,38,001,2024-12-02_13h28.41.442,Attention_exp_legacy,2023.1.0,Win32,60.24096386,,,,,,,,,,,,,,,,,,,,,,,,,,,,,,,,,,,,,,,,,,,,
,,,,,,,0.003125,-0.344444444,1,0,0,,0,12,12,10,1,0,-0.33,38,001,2024-12-02_13h28.41.442,Attention_exp_legacy,2023.1.0,Win32,60.24096386,,,,,,,,,,,,,,,,,,,,,,,,,,,,,,,,,,,,,,,,,,,,
,,,,,,,-0.276041667,0.338888889,1,0,0,,0,13,13,7,1,-0.33,0.33,38,001,2024-12-02_13h28.41.442,Attention_exp_legacy,2023.1.0,Win32,60.24096386,,,,,,,,,,,,,,,,,,,,,,,,,,,,,,,,,,,,,,,,,,,,
,,,,,,,0.0125,0.301851852,1,0,0,,0,14,14,12,1,0,0.33,38,001,2024-12-02_13h28.41.442,Attention_exp_legacy,2023.1.0,Win32,60.24096386,,,,,,,,,,,,,,,,,,,,,,,,,,,,,,,,,,,,,,,,,,,,
,,,,,,,0.314583333,0.011111111,1,0,0,,0,15,15,16,1,0.33,0,38,001,2024-12-02_13h28.41.442,Attention_exp_legacy,2023.1.0,Win32,60.24096386,,,,,,,,,,,,,,,,,,,,,,,,,,,,,,,,,,,,,,,,,,,,
,,,,,,,0.446875,-0.740740741,1,0,0,,0,16,16,14,1,0.33,-0.67,38,001,2024-12-02_13h28.41.442,Attention_exp_legacy,2023.1.0,Win32,60.24096386,,,,,,,,,,,,,,,,,,,,,,,,,,,,,,,,,,,,,,,,,,,,
,,,,,,,-0.683333333,-0.67037037,1,0,0,,0,17,17,0,1,-0.67,-0.67,38,001,2024-12-02_13h28.41.442,Attention_exp_legacy,2023.1.0,Win32,60.24096386,,,,,,,,,,,,,,,,,,,,,,,,,,,,,,,,,,,,,,,,,,,,
,,,,,,,0.019791667,-0.738888889,1,0,0,,0,18,18,9,1,0,-0.67,38,001,2024-12-02_13h28.41.442,Attention_exp_legacy,2023.1.0,Win32,60.24096386,,,,,,,,,,,,,,,,,,,,,,,,,,,,,,,,,,,,,,,,,,,,
,,,,,,,0.238541667,-0.314814815,1,0,0,,0,19,19,15,1,0.33,-0.33,38,001,2024-12-02_13h28.41.442,Attention_exp_legacy,2023.1.0,Win32,60.24096386,,,,,,,,,,,,,,,,,,,,,,,,,,,,,,,,,,,,,,,,,,,,
,,,,,,,-0.39375,-0.412962963,1,0,0,,0,20,20,5,1,-0.33,-0.33,38,001,2024-12-02_13h28.41.442,Attention_exp_legacy,2023.1.0,Win32,60.24096386,,,,,,,,,,,,,,,,,,,,,,,,,,,,,,,,,,,,,,,,,,,,
,,,,,,,,,,,,,,,,,,,,38,001,2024-12-02_13h28.41.442,Attention_exp_legacy,2023.1.0,Win32,60.24096386,"[1920,1080]","[640,480]",[0.027083333333333334],[-0.5296296296296297],[1],[0],[0],[1.064299999999811],"[""StartButton""]",[0.16666666666666666],[0.15925925925925927],[1],[0],[0],[2.9384999999999977],"[""Option2_label""]",Option2_label,1,3.951,"[[-0.027083333333333334,-0.05185185185185185],[-0.027083333333333334,-0.05185185185185185],[-0.027083333333333334,-0.05185185185185185],[-0.027083333333333334,-0.05185185185185185],[-0.027083333333333334,-0.05185185185185185],[-0.027083333333333334,-0.05185185185185185],[-0.027083333333333334,-0.05185185185185185],[-0.027083333333333334,-0.05185185185185185],[-0.027083333333333334,-0.05185185185185185],[-0.027083333333333334,-0.05185185185185185],[-0.027083333333333334,-0.05185185185185185],[-0.027083333333333334,-0.05185185185185185],[-0.027083333333333334,-0.05185185185185185],[-0.027083333333333334,-0.05185185185185185],[-0.027083333333333334,-0.05185185185185185],[-0.027083333333333334,-0.05185185185185185],[-0.027083333333333334,-0.05185185185185185],[-0.027083333333333334,-0.05185185185185185],[-0.027083333333333334,-0.05185185185185185],[-0.027083333333333334,-0.05185185185185185],[-0.027083333333333334,-0.05185185185185185],[-0.027083333333333334,-0.05185185185185185],[-0.027083333333333334,-0.05185185185185185],[-0.027083333333333334,-0.05185185185185185],[-0.027083333333333334,-0.05185185185185185],[-0.027083333333333334,-0.05185185185185185],[-0.027083333333333334,-0.05185185185185185],[-0.027083333333333334,-0.05185185185185185],[-0.027083333333333334,-0.05185185185185185],[-0.027083333333333334,-0.05185185185185185],[-0.027083333333333334,-0.05185185185185185],[-0.029166666666666667,-0.05740740740740741],[-0.030208333333333334,-0.06851851851851852],[-0.03125,-0.07777777777777778],[-0.03333333333333333,-0.09074074074074075],[-0.036458333333333336,-0.1037037037037037],[-0.041666666666666664,-0.11481481481481481],[-0.04583333333333333,-0.12407407407407407],[-0.046875,-0.12777777777777777],[-0.046875,-0.12777777777777777],[-0.04791666666666667,-0.12962962962962962],[-0.04895833333333333,-0.13148148148148148],[-0.05,-0.13148148148148148],[-0.053125,-0.13148148148148148],[-0.053125,-0.13148148148148148],[-0.053125,-0.12037037037037036],[-0.0375,-0.08888888888888889],[-0.030208333333333334,-0.07222222222222222],[-0.019791666666666666,-0.05185185185185185],[-0.007291666666666667,-0.03333333333333333],[-0.0020833333333333333,-0.025925925925925925],[0.004166666666666667,-0.018518518518518517],[0.007291666666666667,-0.016666666666666666],[0.0125,-0.011111111111111112],[0.021875,-0.005555555555555556],[0.034375,0.003703703703703704],[0.042708333333333334,0.005555555555555556],[0.05,0.011111111111111112],[0.06041666666666667,0.016666666666666666],[0.06875,0.020370370370370372],[0.07916666666666666,0.024074074074074074],[0.08958333333333333,0.03148148148148148],[0.09791666666666667,0.03518518518518519],[0.10520833333333333,0.03888888888888889],[0.1125,0.044444444444444446],[0.121875,0.053703703703703705],[0.134375,0.06481481481481481],[0.14166666666666666,0.07222222222222222],[0.14895833333333333,0.08518518518518518],[0.15729166666666666,0.09444444444444444],[0.16354166666666667,0.1037037037037037],[0.16875,0.11296296296296296],[0.17395833333333333,0.12037037037037036],[0.178125,0.12777777777777777],[0.18125,0.13333333333333333],[0.18645833333333334,0.14444444444444443],[0.1875,0.14629629629629629],[0.18854166666666666,0.15],[0.18854166666666666,0.15],[0.18854166666666666,0.15],[0.18854166666666666,0.15],[0.18854166666666666,0.15],[0.18854166666666666,0.15],[0.18854166666666666,0.15],[0.18854166666666666,0.15],[0.18854166666666666,0.15],[0.18854166666666666,0.15],[0.18854166666666666,0.15],[0.18854166666666666,0.15],[0.1875,0.15],[0.18645833333333334,0.15],[0.18645833333333334,0.15],[0.18645833333333334,0.15],[0.18645833333333334,0.15],[0.18645833333333334,0.15],[0.18645833333333334,0.15],[0.18645833333333334,0.15],[0.18645833333333334,0.15],[0.18645833333333334,0.15],[0.18645833333333334,0.15],[0.18645833333333334,0.15],[0.18645833333333334,0.15],[0.18645833333333334,0.15],[0.18645833333333334,0.15],[0.18645833333333334,0.15],[0.18645833333333334,0.15],[0.18645833333333334,0.15],[0.18645833333333334,0.15],[0.18645833333333334,0.15],[0.18645833333333334,0.15],[0.18645833333333334,0.15],[0.18645833333333334,0.15],[0.18645833333333334,0.15],[0.18645833333333334,0.15],[0.18645833333333334,0.15],[0.18645833333333334,0.15],[0.18645833333333334,0.15],[0.18645833333333334,0.15],[0.18645833333333334,0.15],[0.18645833333333334,0.15],[0.18645833333333334,0.15],[0.18645833333333334,0.15],[0.18541666666666667,0.15],[0.18333333333333332,0.15],[0.18229166666666666,0.15],[0.18020833333333333,0.15],[0.17708333333333334,0.15],[0.17291666666666666,0.14814814814814814],[0.16458333333333333,0.14629629629629629],[0.15520833333333334,0.14444444444444443],[0.14166666666666666,0.1425925925925926],[0.12395833333333334,0.1425925925925926],[0.10208333333333333,0.1425925925925926],[0.07916666666666666,0.1425925925925926],[0.058333333333333334,0.1425925925925926],[0.040625,0.1425925925925926],[0.019791666666666666,0.14074074074074075],[-0.0010416666666666667,0.13333333333333333],[-0.020833333333333332,0.1259259259259259],[-0.05,0.11481481481481481],[-0.06666666666666667,0.11296296296296296],[-0.07708333333333334,0.1111111111111111],[-0.07916666666666666,0.1111111111111111],[-0.07916666666666666,0.1111111111111111],[-0.07916666666666666,0.1111111111111111],[-0.08020833333333334,0.1111111111111111],[-0.08020833333333334,0.11296296296296296],[-0.07708333333333334,0.11851851851851852],[-0.07083333333333333,0.1259259259259259],[-0.057291666666666664,0.12962962962962962],[-0.036458333333333336,0.13518518518518519],[0.016666666666666666,0.13518518518518519],[0.0625,0.13518518518518519],[0.09270833333333334,0.13518518518518519],[0.11354166666666667,0.13518518518518519],[0.13229166666666667,0.13333333333333333],[0.14270833333333333,0.13148148148148148],[0.146875,0.13148148148148148],[0.15,0.13148148148148148],[0.15104166666666666,0.13148148148148148],[0.15208333333333332,0.13148148148148148],[0.15208333333333332,0.13148148148148148],[0.15520833333333334,0.13333333333333333],[0.15625,0.13518518518518519],[0.15625,0.13518518518518519],[0.15833333333333333,0.13703703703703704],[0.159375,0.1388888888888889],[0.16041666666666668,0.14074074074074075],[0.16041666666666668,0.14444444444444443],[0.1625,0.14814814814814814],[0.1625,0.15185185185185185],[0.165625,0.15555555555555556],[0.165625,0.15555555555555556],[0.165625,0.15555555555555556],[0.16666666666666666,0.15925925925925927],[0.16666666666666666,0.15925925925925927],[0.16666666666666666,0.15925925925925927],[0.16666666666666666,0.15925925925925927],[0.16666666666666666,0.15925925925925927],[0.16666666666666666,0.15925925925925927],[0.16666666666666666,0.15925925925925927],[0.16666666666666666,0.15925925925925927],[0.16666666666666666,0.15925925925925927],[0.16666666666666666,0.15925925925925927],[0.16666666666666666,0.15925925925925927],[0.16666666666666666,0.15925925925925927],[0.16666666666666666,0.15925925925925927],[0.16666666666666666,0.15925925925925927],[0.16666666666666666,0.15925925925925927],[0.16666666666666666,0.15925925925925927],[0.16666666666666666,0.15925925925925927],[0.16666666666666666,0.15925925925925927],[0.16666666666666666,0.15925925925925927],[0.16666666666666666,0.15925925925925927],[0.16666666666666666,0.15925925925925927],[0.16666666666666666,0.15925925925925927],[0.16666666666666666,0.15925925925925927],[0.16666666666666666,0.15925925925925927],[0.16666666666666666,0.15925925925925927],[0.16666666666666666,0.15925925925925927],[0.16666666666666666,0.15925925925925927],[0.16145833333333334,0.14629629629629629],[0.15520833333333334,0.12777777777777777],[0.15,0.10740740740740741],[0.14583333333333334,0.07777777777777778],[0.14375,0.05740740740740741],[0.140625,0.03148148148148148],[0.13958333333333334,0.009259259259259259],[0.13958333333333334,-0.011111111111111112],[0.13958333333333334,-0.040740740740740744],[0.13958333333333334,-0.05],[0.13958333333333334,-0.07222222222222222],[0.13958333333333334,-0.08333333333333333],[0.13958333333333334,-0.0962962962962963],[0.13958333333333334,-0.10925925925925926],[0.13958333333333334,-0.11666666666666667],[0.13958333333333334,-0.12222222222222222],[0.13958333333333334,-0.12777777777777777],[0.13958333333333334,-0.13148148148148148],[0.13958333333333334,-0.13703703703703704],[0.13958333333333334,-0.14074074074074075],[0.13958333333333334,-0.14629629629629629],[0.13854166666666667,-0.15185185185185185],[0.13854166666666667,-0.15925925925925927],[0.13854166666666667,-0.15925925925925927],[0.1375,-0.16296296296296298],[0.1375,-0.1648148148148148],[0.13645833333333332,-0.17037037037037037],[0.13645833333333332,-0.17037037037037037],[0.13645833333333332,-0.17037037037037037],[0.13645833333333332,-0.17037037037037037],[0.13645833333333332,-0.17037037037037037],[0.13645833333333332,-0.17037037037037037],[0.13645833333333332,-0.17037037037037037],[0.13645833333333332,-0.17037037037037037],[0.13645833333333332,-0.17037037037037037],[0.13645833333333332,-0.17037037037037037]]","[[-0.08416666666666663,0.10425925925925918],[-0.08416666666666663,0.10425925925925918],[-0.0858333333333333,0.14148148148148143],[-0.08270833333333331,0.17481481481481478],[-0.08354166666666671,0.21870370370370373],[-0.0672916666666667,0.1875925925925925],[-0.03843749999999998,0.1714814814814815],[-0.001145833333333357,0.14240740740740737],[0.025833333333333285,0.1853703703703704],[0.042708333333333334,0.2205555555555556],[0.04458333333333329,0.2522222222222223],[0.052187500000000026,0.2764814814814814],[0.058958333333333356,0.2788888888888889],[0.06072916666666662,0.2803703703703703],[0.06864583333333343,0.2616666666666666],[0.058437500000000024,0.27037037037037037],[0.04583333333333333,0.24148148148148144],[0.02833333333333338,0.2242592592592593],[0.0007291666666667141,0.13944444444444437],[0.0007291666666667141,0.13944444444444437],[-0.0296875,0.06833333333333329],[-0.02791666666666662,0.02962962962962963],[-0.007083333333333286,-0.031111111111111027],[0.0014583333333333095,-0.10722222222222218],[0.017499999999999953,-0.16925925925925922],[0.005416666666666714,-0.18185185185185182],[-0.006666666666666643,-0.19444444444444445],[-0.006666666666666643,-0.19444444444444445],[0.0003124999999999526,-0.23870370370370367],[0.0078125,-0.2772222222222222],[0.03208333333333328,-0.2855555555555555],[0.02666666666666669,-0.2972222222222222],[0.04354166666666662,-0.26722222222222225],[0.02177083333333331,-0.25833333333333336],[0.02677083333333338,-0.19444444444444445],[0.018333333333333358,-0.1661111111111111],[0.04729166666666664,-0.15351851851851847],[0.07625000000000005,-0.14092592592592595],[0.08010416666666677,-0.03462962962962971],[0.08010416666666677,-0.03462962962962971],[0.08406250000000005,0.01185185185185181],[0.09208333333333343,0.09277777777777782],[0.10802083333333339,0.11500000000000005],[0.09156250000000009,0.10555555555555556],[0.08489583333333334,0.19092592592592597],[0.059375,0.2074074074074074],[0.05260416666666667,0.2012962962962964],[0.05260416666666667,0.2012962962962964],[0.025,0.18499999999999997],[-0.002499999999999976,0.16870370370370374],[-0.0109375,0.20333333333333325],[-0.016458333333333287,0.20611111111111102],[-0.026041666666666668,0.17444444444444454],[-0.026041666666666668,0.17444444444444454],[-0.021458333333333357,0.18296296296296288],[-0.013854166666666619,0.1875925925925925],[-0.0034374999999999527,0.15592592592592602],[0.00947916666666669,0.11333333333333341],[0.003541666666666643,0.14129629629629623],[0.029166666666666667,0.16407407407407412],[0.05270833333333336,0.1638888888888889],[0.0703125,0.06425925925925935],[0.07843749999999995,0.09648148148148153],[0.0765625,0.10185185185185185],[0.08093750000000005,0.13574074074074066],[0.08093750000000005,0.13574074074074066],[0.0806250000000001,0.13759259259259252],[0.0806250000000001,0.13759259259259252],[0.10520833333333333,0.09796296296296292],[0.12208333333333338,0.12537037037037047],[0.12635416666666663,0.12370370370370362],[0.12458333333333324,0.09537037037037037],[0.11635416666666672,0.09833333333333337],[0.10812499999999996,0.10129629629629638],[0.09916666666666671,0.07240740740740745],[0.12260416666666671,0.06462962962962959],[0.13614583333333338,0.024814814814814772],[0.1578125,0.035740740740740656],[0.15,0.056666666666666705],[0.1540625000000001,0.016111111111111194],[0.17177083333333343,-0.009259259259259259],[0.1806250000000001,-0.012592592592592508],[0.19104166666666675,-0.04203703703703712],[0.20145833333333343,-0.07148148148148152],[0.2178124999999999,-0.0764814814814815],[0.2117708333333333,-0.07574074074074069],[0.20416666666666666,-0.04981481481481477],[0.20416666666666666,-0.04981481481481477],[0.1884375000000001,-0.07462962962962966],[0.1884375000000001,-0.07462962962962966],[0.16843750000000005,-0.06407407407407412],[0.13468749999999996,-0.04722222222222222],[0.13468749999999996,-0.04722222222222222],[0.11583333333333339,-0.03833333333333342],[0.11583333333333339,-0.03833333333333342],[0.08885416666666662,-0.03833333333333342],[0.08885416666666662,-0.03833333333333342],[0.07697916666666677,-0.0005555555555554713],[0.07697916666666677,-0.0005555555555554713],[0.07958333333333342,0.01777777777777782],[0.07958333333333342,0.01777777777777782],[0.06979166666666667,-0.006851851851851936],[0.06895833333333339,-0.020185185185185143],[0.06739583333333338,-0.03481481481481473],[0.06583333333333338,-0.04944444444444453],[0.0743750000000001,-0.07592592592592592],[0.10656249999999995,-0.08314814814814811],[0.12385416666666677,-0.0824074074074074],[0.12385416666666677,-0.0824074074074074],[0.13250000000000003,-0.04814814814814815],[0.125,-0.07166666666666664],[0.10302083333333342,-0.07574074074074069],[0.09854166666666657,-0.050370370370370454],[0.08510416666666672,-0.03629629629629634],[0.08760416666666657,-0.013888888888888888],[0.09010416666666667,0.00851851851851856],[0.07531249999999995,0.02962962962962963],[0.07531249999999995,0.02962962962962963],[0.044270833333333336,0.04740740740740745],[0.03302083333333338,0.051111111111111156],[0.04468749999999998,0.01518518518518527],[0.06427083333333337,0.01703703703703712],[0.07249999999999991,0.004444444444444402],[0.07416666666666671,-0.018148148148148063],[0.07583333333333328,-0.040740740740740744],[0.05677083333333333,-0.06444444444444447],[0.0655208333333333,-0.09277777777777782],[0.08614583333333338,-0.11962962962962967],[0.08614583333333338,-0.11962962962962967],[0.10354166666666677,-0.1727777777777778],[0.08791666666666677,-0.18796296296296297],[0.06489583333333329,-0.18833333333333332],[0.058854166666666666,-0.20462962962962963],[0.06416666666666669,-0.2064814814814815],[0.059687499999999956,-0.21592592592592597],[0.059687499999999956,-0.21592592592592597],[0.05260416666666667,-0.22870370370370371],[0.06989583333333324,-0.2192592592592592],[0.050312499999999954,-0.20759259259259263],[0.036145833333333384,-0.19611111111111107],[0.0234375,-0.17703703703703708],[0.023958333333333335,-0.18185185185185182],[0.03802083333333333,-0.152962962962963],[0.03802083333333333,-0.152962962962963],[0.017708333333333333,-0.13240740740740742],[0.010520833333333358,-0.11777777777777781],[0.015416666666666618,-0.08870370370370366],[0.021249999999999977,-0.06166666666666669],[0.021041666666666715,-0.06259259259259262],[0.025520833333333333,-0.0883333333333333],[0.021458333333333357,-0.09796296296296292],[0.022083333333333382,-0.10333333333333336],[0.022708333333333285,-0.10870370370370368],[0.022291666666666644,-0.12537037037037035],[0.03947916666666664,-0.10592592592592591],[0.04354166666666662,-0.08055555555555556],[0.05677083333333333,-0.12185185185185188],[0.06385416666666661,-0.13333333333333333],[0.0821875000000001,-0.12018518518518514],[0.0821875000000001,-0.12018518518518514],[0.09447916666666671,-0.10425925925925927],[0.10062499999999991,-0.11370370370370367],[0.11583333333333339,-0.08555555555555554],[0.1310416666666666,-0.05740740740740741],[0.14427083333333332,-0.06444444444444447],[0.14427083333333332,-0.06444444444444447],[0.15729166666666666,-0.08333333333333333],[0.15583333333333324,-0.11425925925925924],[0.15489583333333337,-0.07851851851851847],[0.14708333333333337,-0.05907407407407403],[0.14708333333333337,-0.05907407407407403],[0.13770833333333338,-0.08518518518518518],[0.12541666666666676,-0.060370370370370414],[0.12864583333333332,-0.03314814814814811],[0.11927083333333334,-0.030740740740740784],[0.11864583333333342,-0.038703703703703664],[0.1087500000000001,-0.03370370370370379],[0.09885416666666676,-0.028703703703703703],[0.11260416666666657,-0.023148148148148147],[0.11302083333333333,-0.03814814814814819],[0.1068749999999999,-0.05333333333333336],[0.09104166666666676,-0.04759259259259268],[0.08489583333333334,-0.052037037037037076],[0.06281249999999995,-0.048333333333333374],[0.07531249999999995,-0.0992592592592593],[0.06635416666666671,-0.11574074074074074],[0.06468750000000002,-0.1425925925925926],[0.06635416666666671,-0.16111111111111112],[0.05427083333333336,-0.18370370370370367],[0.030416666666666713,-0.1618518518518518],[0.027291666666666714,-0.13203703703703706],[0.024166666666666715,-0.1022222222222222],[0.028541666666666642,-0.1007407407407407],[0.04802083333333336,-0.10055555555555558],[0.04791666666666667,-0.05499999999999998],[0.06281249999999995,-0.026481481481481398],[0.07041666666666657,0.012407407407407492],[0.07614583333333323,0.03925925925925934],[0.08645833333333333,0.0816666666666667],[0.0990624999999999,0.05129629629629638],[0.11218750000000005,0.005000000000000084],[0.12531249999999997,-0.04129629629629621],[0.1334374999999999,-0.04000000000000004],[0.14385416666666656,-0.044444444444444446],[0.14135416666666673,-0.06351851851851854],[0.1365624999999999,-0.08962962962962959],[0.12479166666666662,-0.09907407407407408],[0.11218750000000005,-0.10166666666666663],[0.09385416666666657,-0.08648148148148146],[0.09739583333333333,-0.059814814814814835],[0.09729166666666676,-0.049629629629629544],[0.09718749999999995,-0.03944444444444436],[0.084375,-0.04518518518518514],[0.084375,-0.04518518518518514],[0.06927083333333334,-0.04518518518518514],[0.07864583333333333,-0.04277777777777782],[0.07239583333333334,-0.01962962962962967],[0.05385416666666672,-0.01629629629629621],[0.034687499999999954,-0.016111111111111194],[0.034687499999999954,-0.016111111111111194],[0.03302083333333338,-0.03796296296296296],[0.030520833333333285,-0.002962962962963005],[0.024791666666666618,0.0477777777777777],[0.024791666666666618,0.0477777777777777],[0.042916666666666714,0.11629629629629622],[0.07489583333333343,0.16518518518518527],[0.0875,0.17333333333333337],[0.0875,0.17333333333333337],[0.07354166666666657,0.202962962962963],[0.08406250000000005,0.20277777777777778],[0.10906250000000005,0.2403703703703703],[0.10906250000000005,0.2403703703703703],[0.13406250000000006,0.277962962962963],[0.1209374999999999,0.26703703703703713],[0.1209374999999999,0.26703703703703713],[0.11687500000000005,0.222037037037037],[0.11010416666666671,0.14629629629629629]]","[[-0.08416666666666663,0.10425925925925918,0.000299999999811007],[-0.08416666666666663,0.10425925925925918,0.03790000000036997],[-0.0858333333333333,0.14148148148148143,0.04910000000055703],[-0.08270833333333331,0.17481481481481478,0.06590000000037577],[-0.08354166666666671,0.21870370370370373,0.08140000000037162],[-0.0672916666666667,0.1875925925925925,0.09550000000000125],[-0.03843749999999998,0.1714814814814815,0.11190000000037514],[-0.001145833333333357,0.14240740740740737,0.13079999999981595],[0.025833333333333285,0.1853703703703704,0.14529999999981413],[0.042708333333333334,0.2205555555555556,0.16610000000056147],[0.04458333333333329,0.2522222222222223,0.18010000000055726],[0.052187500000000026,0.2764814814814814,0.19520000000018456],[0.058958333333333356,0.2788888888888889,0.2120000000000033],[0.06072916666666662,0.2803703703703703,0.22860000000056147],[0.06864583333333343,0.2616666666666666,0.24529999999981555],[0.058437500000000024,0.27037037037037037,0.26200000000000045],[0.04583333333333333,0.24148148148148144,0.2786000000005586],[0.02833333333333338,0.2242592592592593,0.295200000000186],[0.0007291666666667141,0.13944444444444437,0.3144000000003757],[0.0007291666666667141,0.13944444444444437,0.329500000000003],[-0.0296875,0.06833333333333329,0.34520000000019024],[-0.02791666666666662,0.02962962962962963,0.36190000000037514],[-0.007083333333333286,-0.031111111111111027,0.3787000000001868],[0.0014583333333333095,-0.10722222222222218,0.39529999999981413],[0.017499999999999953,-0.16925925925925922,0.4119000000003723],[0.005416666666666714,-0.18185185185185182,0.4286000000005572],[-0.006666666666666643,-0.19444444444444445,0.4452999999998113],[-0.006666666666666643,-0.19444444444444445,0.46190000000037656],[0.0003124999999999526,-0.23870370370370367,0.47860000000056147],[0.0078125,-0.2772222222222222,0.4952000000001888],[0.03208333333333328,-0.2855555555555555,0.5117999999998162],[0.02666666666666669,-0.2972222222222222,0.5316000000005587],[0.04354166666666662,-0.26722222222222225,0.5452999999998127],[0.02177083333333331,-0.25833333333333336,0.563700000000189],[0.02677083333333338,-0.19444444444444445,0.5787999999998164],[0.018333333333333358,-0.1661111111111111,0.5976000000005612],[0.04729166666666664,-0.15351851851851847,0.6121000000005594],[0.07625000000000005,-0.14092592592592595,0.6287999999998135],[0.08010416666666677,-0.03462962962962971,0.6484999999999985],[0.08010416666666677,-0.03462962962962971,0.6621000000005566],[0.08406250000000005,0.01185185185185181,0.6789000000003753],[0.09208333333333343,0.09277777777777782,0.6954000000003759],[0.10802083333333339,0.11500000000000005,0.714500000000001],[0.09156250000000009,0.10555555555555556,0.7309000000003749],[0.08489583333333334,0.19092592592592597,0.7452999999998156],[0.059375,0.2074074074074074,0.7647000000001896],[0.05260416666666667,0.2012962962962964,0.785499999999999],[0.05260416666666667,0.2012962962962964,0.7954000000003703],[0.025,0.18499999999999997,0.8119999999999976],[-0.002499999999999976,0.16870370370370374,0.8347999999998166],[-0.0109375,0.20333333333333325,0.8485000000000014],[-0.016458333333333287,0.20611111111111102,0.8642999999998153],[-0.026041666666666668,0.17444444444444454,0.8792000000001892],[-0.026041666666666668,0.17444444444444454,0.8981000000005608],[-0.021458333333333357,0.18296296296296288,0.9121000000005566],[-0.013854166666666619,0.1875925925925925,0.9287999999998178],[-0.0034374999999999527,0.15592592592592602,0.9486000000005603],[0.00947916666666669,0.11333333333333341,0.9637999999998144],[0.003541666666666643,0.14129629629629623,0.9789000000003725],[0.029166666666666667,0.16407407407407412,0.9977999999998133],[0.05270833333333336,0.1638888888888889,1.012100000000558],[0.0703125,0.06425925925925935,1.0287000000001854],[0.07843749999999995,0.09648148148148153,1.045500000000004],[0.0765625,0.10185185185185185,1.064900000000371],[0.08093750000000005,0.13574074074074066,1.0791000000005582],[0.08093750000000005,0.13574074074074066,1.0954000000003745],[0.0806250000000001,0.13759259259259252,1.1122000000001862],[0.0806250000000001,0.13759259259259252,1.1340000000000003],[0.10520833333333333,0.09796296296296292,1.1454000000003717],[0.12208333333333338,0.12537037037037047,1.1622000000001904],[0.12635416666666663,0.12370370370370362,1.1820000000000022],[0.12458333333333324,0.09537037037037037,1.1967999999998113],[0.11635416666666672,0.09833333333333337,1.2121000000005608],[0.10812499999999996,0.10129629629629638,1.228799999999815],[0.09916666666666671,0.07240740740740745,1.248799999999811],[0.12260416666666671,0.06462962962962959,1.2656000000005605],[0.13614583333333338,0.024814814814814772,1.2815000000000012],[0.1578125,0.035740740740740656,1.2997999999998129],[0.15,0.056666666666666705,1.3144000000003757],[0.1540625000000001,0.016111111111111194,1.3287000000001896],[0.17177083333333343,-0.009259259259259259,1.345299999999817],[0.1806250000000001,-0.012592592592592508,1.3651000000005595],[0.19104166666666675,-0.04203703703703712,1.3809000000003735],[0.20145833333333343,-0.07148148148148152,1.3952999999998141],[0.2178124999999999,-0.0764814814814815,1.4119000000003723],[0.2117708333333333,-0.07574074074074069,1.4289000000003753],[0.20416666666666666,-0.04981481481481477,1.445400000000376],[0.20416666666666666,-0.04981481481481477,1.4620000000000033],[0.1884375000000001,-0.07462962962962966,1.478500000000004],[0.1884375000000001,-0.07462962962962966,1.4987000000001842],[0.16843750000000005,-0.06407407407407412,1.5122000000001847],[0.13468749999999996,-0.04722222222222222,1.5347999999998123],[0.13468749999999996,-0.04722222222222222,1.545200000000186],[0.11583333333333339,-0.03833333333333342,1.5621000000005623],[0.11583333333333339,-0.03833333333333342,1.5786000000005629],[0.08885416666666662,-0.03833333333333342,1.595299999999817],[0.08885416666666662,-0.03833333333333342,1.6119000000003751],[0.07697916666666677,-0.0005555555555554713,1.6287000000001868],[0.07697916666666677,-0.0005555555555554713,1.6452999999998141],[0.07958333333333342,0.01777777777777782,1.6621000000005566],[0.07958333333333342,0.01777777777777782,1.6784999999999997],[0.06979166666666667,-0.006851851851851936,1.6952999999998113],[0.06895833333333339,-0.020185185185185143,1.716299999999812],[0.06739583333333338,-0.03481481481481473,1.7322000000001836],[0.06583333333333338,-0.04944444444444453,1.7452000000001888],[0.0743750000000001,-0.07592592592592592,1.7619000000003737],[0.10656249999999995,-0.08314814814814811,1.7787000000001854],[0.12385416666666677,-0.0824074074074074,1.7969000000003703],[0.12385416666666677,-0.0824074074074074,1.8125],[0.13250000000000003,-0.04814814814814815,1.8286000000005629],[0.125,-0.07166666666666664,1.8454000000003745],[0.10302083333333342,-0.07574074074074069,1.8619000000003751],[0.09854166666666657,-0.050370370370370454,1.8785000000000025],[0.08510416666666672,-0.03629629629629634,1.8952000000001874],[0.08760416666666657,-0.013888888888888888,1.911999999999999],[0.09010416666666667,0.00851851851851856,1.9286000000005572],[0.07531249999999995,0.02962962962962963,1.9452999999998113],[0.07531249999999995,0.02962962962962963,1.9621000000005608],[0.044270833333333336,0.04740740740740745,1.9786000000005615],[0.03302083333333338,0.051111111111111156,1.9952000000001888],[0.04468749999999998,0.01518518518518527,2.0119000000003737],[0.06427083333333337,0.01703703703703712,2.028500000000001],[0.07249999999999991,0.004444444444444402,2.048499999999997],[0.07416666666666671,-0.018148148148148063,2.06460000000056],[0.07583333333333328,-0.040740740740740744,2.0806000000005582],[0.05677083333333333,-0.06444444444444447,2.100100000000559],[0.0655208333333333,-0.09277777777777782,2.113999999999997],[0.08614583333333338,-0.11962962962962967,2.1310000000000002],[0.08614583333333338,-0.11962962962962967,2.145600000000556],[0.10354166666666677,-0.1727777777777778,2.165600000000559],[0.08791666666666677,-0.18796296296296297,2.178700000000184],[0.06489583333333329,-0.18833333333333332,2.1952999999998113],[0.058854166666666666,-0.20462962962962963,2.212100000000561],[0.06416666666666669,-0.2064814814814815,2.2334000000003726],[0.059687499999999956,-0.21592592592592597,2.2477999999998133],[0.059687499999999956,-0.21592592592592597,2.262100000000558],[0.05260416666666667,-0.22870370370370371,2.2807999999998145],[0.06989583333333324,-0.2192592592592592,2.2954000000003703],[0.050312499999999954,-0.20759259259259263,2.3121000000005623],[0.036145833333333384,-0.19611111111111107,2.331900000000374],[0.0234375,-0.17703703703703708,2.346799999999817],[0.023958333333333335,-0.18185185185185182,2.362299999999813],[0.03802083333333333,-0.152962962962963,2.3809000000003735],[0.03802083333333333,-0.152962962962963,2.3952000000001874],[0.017708333333333333,-0.13240740740740742,2.4117999999998148],[0.010520833333333358,-0.11777777777777781,2.432700000000189],[0.015416666666666618,-0.08870370370370366,2.4479000000003737],[0.021249999999999977,-0.06166666666666669,2.46420000000019],[0.021041666666666715,-0.06259259259259262,2.4789000000003725],[0.025520833333333333,-0.0883333333333333,2.498100000000562],[0.021458333333333357,-0.09796296296296292,2.512100000000558],[0.022083333333333382,-0.10333333333333336,2.5292000000001877],[0.022708333333333285,-0.10870370370370368,2.548499999999997],[0.022291666666666644,-0.12537037037037035,2.5655],[0.03947916666666664,-0.10592592592592591,2.5787000000001896],[0.04354166666666662,-0.08055555555555556,2.595299999999817],[0.05677083333333333,-0.12185185185185188,2.615000000000002],[0.06385416666666661,-0.13333333333333333,2.6287000000001868],[0.0821875000000001,-0.12018518518518514,2.645299999999814],[0.0821875000000001,-0.12018518518518514,2.6649000000003724],[0.09447916666666671,-0.10425925925925927,2.678700000000184],[0.10062499999999991,-0.11370370370370367,2.6952000000001846],[0.11583333333333339,-0.08555555555555554,2.7120000000000033],[0.1310416666666666,-0.05740740740740741,2.731100000000559],[0.14427083333333332,-0.06444444444444447,2.745200000000189],[0.14427083333333332,-0.06444444444444447,2.762100000000558],[0.15729166666666666,-0.08333333333333333,2.7819000000003697],[0.15583333333333324,-0.11425925925925924,2.800100000000562],[0.15489583333333337,-0.07851851851851847,2.8149999999999977],[0.14708333333333337,-0.05907407407407403,2.8321000000005583],[0.14708333333333337,-0.05907407407407403,2.8454000000003745],[0.13770833333333338,-0.08518518518518518,2.862299999999813],[0.12541666666666676,-0.060370370370370414,2.87860000000056],[0.12864583333333332,-0.03314814814814811,2.895299999999814],[0.11927083333333334,-0.030740740740740784,2.915700000000186],[0.11864583333333342,-0.038703703703703664,2.9307000000001864],[0.1087500000000001,-0.03370370370370379,2.9452000000001846],[0.09885416666666676,-0.028703703703703703,2.9642999999998167],[0.11260416666666657,-0.023148148148148147,2.9786000000005615],[0.11302083333333333,-0.03814814814814819,2.995200000000189],[0.1068749999999999,-0.05333333333333336,3.0119000000003737],[0.09104166666666676,-0.04759259259259268,3.028500000000001],[0.08489583333333334,-0.052037037037037076,3.045200000000186],[0.06281249999999995,-0.048333333333333374,3.0619999999999976],[0.07531249999999995,-0.0992592592592593,3.078600000000563],[0.06635416666666671,-0.11574074074074074,3.095299999999817],[0.06468750000000002,-0.1425925925925926,3.111900000000375],[0.06635416666666671,-0.16111111111111112,3.12860000000056],[0.05427083333333336,-0.18370370370370367,3.1452000000001874],[0.030416666666666713,-0.1618518518518518,3.1619000000003723],[0.027291666666666714,-0.13203703703703706,3.1809000000003707],[0.024166666666666715,-0.1022222222222222,3.1952000000001846],[0.028541666666666642,-0.1007407407407407,3.2119000000003766],[0.04802083333333336,-0.10055555555555558,3.228500000000004],[0.04791666666666667,-0.05499999999999998,3.245200000000189],[0.06281249999999995,-0.026481481481481398,3.263900000000376],[0.07041666666666657,0.012407407407407492,3.2787000000001854],[0.07614583333333323,0.03925925925925934,3.295200000000186],[0.08645833333333333,0.0816666666666667,3.311900000000371],[0.0990624999999999,0.05129629629629638,3.3287000000001896],[0.11218750000000005,0.005000000000000084,3.3452000000001902],[0.12531249999999997,-0.04129629629629621,3.365299999999813],[0.1334374999999999,-0.04000000000000004,3.3809000000003735],[0.14385416666666656,-0.044444444444444446,3.39570000000019],[0.14135416666666673,-0.06351851851851854,3.411999999999999],[0.1365624999999999,-0.08962962962962959,3.4312000000001888],[0.12479166666666662,-0.09907407407407408,3.445400000000376],[0.11218750000000005,-0.10166666666666663,3.463900000000372],[0.09385416666666657,-0.08648148148148146,3.4819999999999993],[0.09739583333333333,-0.059814814814814835,3.496900000000373],[0.09729166666666676,-0.049629629629629544,3.5120000000000005],[0.09718749999999995,-0.03944444444444436,3.5332000000001855],[0.084375,-0.04518518518518514,3.5489999999999995],[0.084375,-0.04518518518518514,3.5621000000005623],[0.06927083333333334,-0.04518518518518514,3.5787000000001896],[0.07864583333333333,-0.04277777777777782,3.6002999999998124],[0.07239583333333334,-0.01962962962962967,3.6147999999998177],[0.05385416666666672,-0.01629629629629621,3.6317999999998136],[0.034687499999999954,-0.016111111111111194,3.645299999999814],[0.034687499999999954,-0.016111111111111194,3.6652000000001834],[0.03302083333333338,-0.03796296296296296,3.6789000000003753],[0.030520833333333285,-0.002962962962963005,3.697499999999998],[0.024791666666666618,0.0477777777777777,3.718499999999999],[0.024791666666666618,0.0477777777777777,3.737299999999813],[0.042916666666666714,0.11629629629629622,3.7456000000005574],[0.07489583333333343,0.16518518518518527,3.765200000000185],[0.0875,0.17333333333333337,3.7827000000001902],[0.0875,0.17333333333333337,3.796100000000557],[0.07354166666666657,0.202962962962963,3.8119999999999976],[0.08406250000000005,0.20277777777777778,3.8309000000003763],[0.10906250000000005,0.2403703703703703,3.8452000000001902],[0.10906250000000005,0.2403703703703703,3.862000000000002],[0.13406250000000006,0.277962962962963,3.87860000000056],[0.1209374999999999,0.26703703703703713,3.8952000000001874],[0.1209374999999999,0.26703703703703713,3.9119000000003723],[0.11687500000000005,0.222037037037037,3.928600000000557],[0.11010416666666671,0.14629629629629629,3.9510000000000005]]","[0.000299999999811007,0.03790000000036997,0.04910000000055703,0.06590000000037577,0.08140000000037162,0.09550000000000125,0.11190000000037514,0.13079999999981595,0.14529999999981413,0.16610000000056147,0.18010000000055726,0.19520000000018456,0.2120000000000033,0.22860000000056147,0.24529999999981555,0.26200000000000045,0.2786000000005586,0.295200000000186,0.3144000000003757,0.329500000000003,0.34520000000019024,0.36190000000037514,0.3787000000001868,0.39529999999981413,0.4119000000003723,0.4286000000005572,0.4452999999998113,0.46190000000037656,0.47860000000056147,0.4952000000001888,0.5117999999998162,0.5316000000005587,0.5452999999998127,0.563700000000189,0.5787999999998164,0.5976000000005612,0.6121000000005594,0.6287999999998135,0.6484999999999985,0.6621000000005566,0.6789000000003753,0.6954000000003759,0.714500000000001,0.7309000000003749,0.7452999999998156,0.7647000000001896,0.785499999999999,0.7954000000003703,0.8119999999999976,0.8347999999998166,0.8485000000000014,0.8642999999998153,0.8792000000001892,0.8981000000005608,0.9121000000005566,0.9287999999998178,0.9486000000005603,0.9637999999998144,0.9789000000003725,0.9977999999998133,1.012100000000558,1.0287000000001854,1.045500000000004,1.064900000000371,1.0791000000005582,1.0954000000003745,1.1122000000001862,1.1340000000000003,1.1454000000003717,1.1622000000001904,1.1820000000000022,1.1967999999998113,1.2121000000005608,1.228799999999815,1.248799999999811,1.2656000000005605,1.2815000000000012,1.2997999999998129,1.3144000000003757,1.3287000000001896,1.345299999999817,1.3651000000005595,1.3809000000003735,1.3952999999998141,1.4119000000003723,1.4289000000003753,1.445400000000376,1.4620000000000033,1.478500000000004,1.4987000000001842,1.5122000000001847,1.5347999999998123,1.545200000000186,1.5621000000005623,1.5786000000005629,1.595299999999817,1.6119000000003751,1.6287000000001868,1.6452999999998141,1.6621000000005566,1.6784999999999997,1.6952999999998113,1.716299999999812,1.7322000000001836,1.7452000000001888,1.7619000000003737,1.7787000000001854,1.7969000000003703,1.8125,1.8286000000005629,1.8454000000003745,1.8619000000003751,1.8785000000000025,1.8952000000001874,1.911999999999999,1.9286000000005572,1.9452999999998113,1.9621000000005608,1.9786000000005615,1.9952000000001888,2.0119000000003737,2.028500000000001,2.048499999999997,2.06460000000056,2.0806000000005582,2.100100000000559,2.113999999999997,2.1310000000000002,2.145600000000556,2.165600000000559,2.178700000000184,2.1952999999998113,2.212100000000561,2.2334000000003726,2.2477999999998133,2.262100000000558,2.2807999999998145,2.2954000000003703,2.3121000000005623,2.331900000000374,2.346799999999817,2.362299999999813,2.3809000000003735,2.3952000000001874,2.4117999999998148,2.432700000000189,2.4479000000003737,2.46420000000019,2.4789000000003725,2.498100000000562,2.512100000000558,2.5292000000001877,2.548499999999997,2.5655,2.5787000000001896,2.595299999999817,2.615000000000002,2.6287000000001868,2.645299999999814,2.6649000000003724,2.678700000000184,2.6952000000001846,2.7120000000000033,2.731100000000559,2.745200000000189,2.762100000000558,2.7819000000003697,2.800100000000562,2.8149999999999977,2.8321000000005583,2.8454000000003745,2.862299999999813,2.87860000000056,2.895299999999814,2.915700000000186,2.9307000000001864,2.9452000000001846,2.9642999999998167,2.9786000000005615,2.995200000000189,3.0119000000003737,3.028500000000001,3.045200000000186,3.0619999999999976,3.078600000000563,3.095299999999817,3.111900000000375,3.12860000000056,3.1452000000001874,3.1619000000003723,3.1809000000003707,3.1952000000001846,3.2119000000003766,3.228500000000004,3.245200000000189,3.263900000000376,3.2787000000001854,3.295200000000186,3.311900000000371,3.3287000000001896,3.3452000000001902,3.365299999999813,3.3809000000003735,3.39570000000019,3.411999999999999,3.4312000000001888,3.445400000000376,3.463900000000372,3.4819999999999993,3.496900000000373,3.5120000000000005,3.5332000000001855,3.5489999999999995,3.5621000000005623,3.5787000000001896,3.6002999999998124,3.6147999999998177,3.6317999999998136,3.645299999999814,3.6652000000001834,3.6789000000003753,3.697499999999998,3.718499999999999,3.737299999999813,3.7456000000005574,3.765200000000185,3.7827000000001902,3.796100000000557,3.8119999999999976,3.8309000000003763,3.8452000000001902,3.862000000000002,3.87860000000056,3.8952000000001874,3.9119000000003723,3.928600000000557,3.9510000000000005]","[1733117354001,1733117354032,1733117354043,1733117354060,1733117354075,1733117354089,1733117354106,1733117354125,1733117354139,1733117354160,1733117354174,1733117354189,1733117354206,1733117354222,1733117354239,1733117354256,1733117354272,1733117354289,1733117354308,1733117354323,1733117354339,1733117354356,1733117354373,1733117354389,1733117354406,1733117354422,1733117354439,1733117354456,1733117354472,1733117354489,1733117354506,1733117354525,1733117354539,1733117354557,1733117354573,1733117354591,1733117354606,1733117354623,1733117354642,1733117354656,1733117354673,1733117354689,1733117354708,1733117354725,1733117354739,1733117354759,1733117354779,1733117354789,1733117354806,1733117354829,1733117354842,1733117354858,1733117354873,1733117354892,1733117354906,1733117354923,1733117354942,1733117354958,1733117354973,1733117354992,1733117355006,1733117355023,1733117355039,1733117355059,1733117355073,1733117355089,1733117355106,1733117355128,1733117355139,1733117355156,1733117355176,1733117355191,1733117355206,1733117355223,1733117355243,1733117355259,1733117355275,1733117355294,1733117355308,1733117355323,1733117355339,1733117355359,1733117355375,1733117355389,1733117355406,1733117355423,1733117355439,1733117355456,1733117355472,1733117355493,1733117355506,1733117355529,1733117355539,1733117355556,1733117355572,1733117355589,1733117355606,1733117355623,1733117355639,1733117355656,1733117355672,1733117355689,1733117355710,1733117355726,1733117355739,1733117355756,1733117355772,1733117355791,1733117355806,1733117355822,1733117355839,1733117355856,1733117355872,1733117355889,1733117355906,1733117355922,1733117355939,1733117355956,1733117355972,1733117355989,1733117356006,1733117356022,1733117356042,1733117356058,1733117356074,1733117356094,1733117356108,1733117356125,1733117356139,1733117356159,1733117356173,1733117356189,1733117356206,1733117356227,1733117356242,1733117356256,1733117356275,1733117356289,1733117356306,1733117356326,1733117356341,1733117356356,1733117356375,1733117356389,1733117356406,1733117356427,1733117356442,1733117356458,1733117356473,1733117356492,1733117356506,1733117356523,1733117356542,1733117356559,1733117356573,1733117356589,1733117356609,1733117356623,1733117356639,1733117356659,1733117356673,1733117356689,1733117356706,1733117356725,1733117356739,1733117356756,1733117356776,1733117356794,1733117356809,1733117356826,1733117356839,1733117356856,1733117356872,1733117356889,1733117356910,1733117356925,1733117356939,1733117356958,1733117356972,1733117356989,1733117357006,1733117357022,1733117357039,1733117357056,1733117357072,1733117357089,1733117357106,1733117357122,1733117357139,1733117357156,1733117357175,1733117357189,1733117357206,1733117357222,1733117357239,1733117357258,1733117357273,1733117357289,1733117357306,1733117357323,1733117357339,1733117357359,1733117357375,1733117357390,1733117357406,1733117357425,1733117357439,1733117357458,1733117357476,1733117357491,1733117357506,1733117357527,1733117357543,1733117357556,1733117357573,1733117357594,1733117357609,1733117357626,1733117357639,1733117357659,1733117357673,1733117357691,1733117357712,1733117357731,1733117357739,1733117357759,1733117357777,1733117357790,1733117357806,1733117357825,1733117357839,1733117357856,1733117357872,1733117357889,1733117357906,1733117357922,1733117357945]","[[879.2,596.3],[879.2,596.3],[877.6,616.4],[880.6,634.4],[879.8,658.1],[895.4,641.3],[923.1,632.6],[958.9,616.9],[984.8,640.1],[1001,659.1],[1002.8,676.2],[1010.1,689.3],[1016.6,690.6],[1018.3,691.4],[1025.9,681.3],[1016.1,686],[1004,670.4],[987.2,661.1],[960.7,615.3],[960.7,615.3],[931.5,576.9],[933.2,556],[953.2,523.2],[961.4,482.1],[976.8,448.6],[965.2,441.8],[953.6,435],[953.6,435],[960.3,411.1],[967.5,390.3],[990.8,385.8],[985.6,379.5],[1001.8,395.7],[980.9,400.5],[985.7,435],[977.6,450.3],[1005.4,457.1],[1033.2,463.9],[1036.9,521.3],[1036.9,521.3],[1040.7,546.4],[1048.4,590.1],[1063.7,602.1],[1047.9,597],[1041.5,643.1],[1017,652],[1010.5,648.7],[1010.5,648.7],[984,639.9],[957.6,631.1],[949.5,649.8],[944.2,651.3],[935,634.2],[935,634.2],[939.4,638.8],[946.7,641.3],[956.7,624.2],[969.1,601.2],[963.4,616.3],[988,628.6],[1010.6,628.5],[1027.5,574.7],[1035.3,592.1],[1033.5,595],[1037.7,613.3],[1037.7,613.3],[1037.4,614.3],[1037.4,614.3],[1061,592.9],[1077.2,607.7],[1081.3,606.8],[1079.6,591.5],[1071.7,593.1],[1063.8,594.7],[1055.2,579.1],[1077.7,574.9],[1090.7,553.4],[1111.5,559.3],[1104,570.6],[1107.9,548.7],[1124.9,535],[1133.4,533.2],[1143.4,517.3],[1153.4,501.4],[1169.1,498.7],[1163.3,499.1],[1156,513.1],[1156,513.1],[1140.9,499.7],[1140.9,499.7],[1121.7,505.4],[1089.3,514.5],[1089.3,514.5],[1071.2,519.3],[1071.2,519.3],[1045.3,519.3],[1045.3,519.3],[1033.9,539.7],[1033.9,539.7],[1036.4,549.6],[1036.4,549.6],[1027,536.3],[1026.2,529.1],[1024.7,521.2],[1023.2,513.3],[1031.4,499],[1062.3,495.1],[1078.9,495.5],[1078.9,495.5],[1087.2,514],[1080,501.3],[1058.9,499.1],[1054.6,512.8],[1041.7,520.4],[1044.1,532.5],[1046.5,544.6],[1032.3,556],[1032.3,556],[1002.5,565.6],[991.7,567.6],[1002.9,548.2],[1021.7,549.2],[1029.6,542.4],[1031.2,530.2],[1032.8,518],[1014.5,505.2],[1022.9,489.9],[1042.7,475.4],[1042.7,475.4],[1059.4,446.7],[1044.4,438.5],[1022.3,438.3],[1016.5,429.5],[1021.6,428.5],[1017.3,423.4],[1017.3,423.4],[1010.5,416.5],[1027.1,421.6],[1008.3,427.9],[994.7,434.1],[982.5,444.4],[983,441.8],[996.5,457.4],[996.5,457.4],[977,468.5],[970.1,476.4],[974.8,492.1],[980.4,506.7],[980.2,506.2],[984.5,492.3],[980.6,487.1],[981.2,484.2],[981.8,481.3],[981.4,472.3],[997.9,482.8],[1001.8,496.5],[1014.5,474.2],[1021.3,468],[1038.9,475.1],[1038.9,475.1],[1050.7,483.7],[1056.6,478.6],[1071.2,493.8],[1085.8,509],[1098.5,505.2],[1098.5,505.2],[1111,495],[1109.6,478.3],[1108.7,497.6],[1101.2,508.1],[1101.2,508.1],[1092.2,494],[1080.4,507.4],[1083.5,522.1],[1074.5,523.4],[1073.9,519.1],[1064.4,521.8],[1054.9,524.5],[1068.1,527.5],[1068.5,519.4],[1062.6,511.2],[1047.4,514.3],[1041.5,511.9],[1020.3,513.9],[1032.3,486.4],[1023.7,477.5],[1022.1,463],[1023.7,453],[1012.1,440.8],[989.2,452.6],[986.2,468.7],[983.2,484.8],[987.4,485.6],[1006.1,485.7],[1006,510.3],[1020.3,525.7],[1027.6,546.7],[1033.1,561.2],[1043,584.1],[1055.1,567.7],[1067.7,542.7],[1080.3,517.7],[1088.1,518.4],[1098.1,516],[1095.7,505.7],[1091.1,491.6],[1079.8,486.5],[1067.7,485.1],[1050.1,493.3],[1053.5,507.7],[1053.4,513.2],[1053.3,518.7],[1041,515.6],[1041,515.6],[1026.5,515.6],[1035.5,516.9],[1029.5,529.4],[1011.7,531.2],[993.3,531.3],[993.3,531.3],[991.7,519.5],[989.3,538.4],[983.8,565.8],[983.8,565.8],[1001.2,602.8],[1031.9,629.2],[1044,633.6],[1044,633.6],[1030.6,649.6],[1040.7,649.5],[1064.7,669.8],[1064.7,669.8],[1088.7,690.1],[1076.1,684.2],[1076.1,684.2],[1072.2,659.9],[1065.7,619]]","[0,0.151169218]","[0.151169218,0.151169218]","[-0.151169218,-0.151169218]","[-0.151169218,0]","[0,-0.151169218]","[0.151169218,-0.151169218]","[0,0]","[0.151169218,0]",0,0,0,0,1,2,Smartphone,7,1,11,9
,,,,,,,,,,,,,,,,,,,,38,001,2024-12-02_13h28.41.442,Attention_exp_legacy,2023.1.0,Win32,60.24096386,,,,,,,,,,[0.005208333333333333],[0.15555555555555556],[1],[0],[0],[1.5799999999999983],"[""Option1_label""]",Option1_label,2,2.6009,"[[0.010416666666666666,0.1814814814814815],[0.010416666666666666,0.1814814814814815],[0.010416666666666666,0.1814814814814815],[0.010416666666666666,0.17962962962962964],[0.010416666666666666,0.17962962962962964],[0.010416666666666666,0.17962962962962964],[0.010416666666666666,0.17962962962962964],[0.010416666666666666,0.17962962962962964],[0.010416666666666666,0.17962962962962964],[0.010416666666666666,0.17962962962962964],[0.010416666666666666,0.17962962962962964],[0.010416666666666666,0.17962962962962964],[0.010416666666666666,0.17962962962962964],[0.010416666666666666,0.17962962962962964],[0.010416666666666666,0.17962962962962964],[0.010416666666666666,0.17962962962962964],[0.010416666666666666,0.17962962962962964],[0.010416666666666666,0.17962962962962964],[0.010416666666666666,0.17962962962962964],[0.010416666666666666,0.17962962962962964],[0.010416666666666666,0.17962962962962964],[0.010416666666666666,0.17962962962962964],[0.010416666666666666,0.17592592592592593],[0.010416666666666666,0.17222222222222222],[0.010416666666666666,0.16666666666666666],[0.010416666666666666,0.16111111111111112],[0.011458333333333333,0.1574074074074074],[0.013541666666666667,0.15555555555555556],[0.019791666666666666,0.15],[0.023958333333333335,0.14814814814814814],[0.03125,0.1425925925925926],[0.0375,0.14074074074074075],[0.04375,0.1388888888888889],[0.05,0.13518518518518519],[0.0625,0.12777777777777777],[0.06770833333333333,0.1259259259259259],[0.075,0.12407407407407407],[0.08333333333333333,0.12037037037037036],[0.09375,0.11851851851851852],[0.10625,0.11666666666666667],[0.115625,0.11481481481481481],[0.12604166666666666,0.1111111111111111],[0.13229166666666667,0.1111111111111111],[0.1375,0.1111111111111111],[0.13958333333333334,0.1111111111111111],[0.14270833333333333,0.1111111111111111],[0.146875,0.1111111111111111],[0.146875,0.1111111111111111],[0.15,0.1111111111111111],[0.15208333333333332,0.11296296296296296],[0.15208333333333332,0.11481481481481481],[0.15208333333333332,0.11666666666666667],[0.15208333333333332,0.12037037037037036],[0.15208333333333332,0.12407407407407407],[0.14479166666666668,0.13148148148148148],[0.13645833333333332,0.13518518518518519],[0.12708333333333333,0.13703703703703704],[0.11354166666666667,0.13703703703703704],[0.08541666666666667,0.13703703703703704],[0.06354166666666666,0.13703703703703704],[0.04479166666666667,0.13333333333333333],[0.030208333333333334,0.12777777777777777],[0.015625,0.12407407407407407],[0.007291666666666667,0.12037037037037036],[0.003125,0.12037037037037036],[0.0010416666666666667,0.12037037037037036],[0,0.12037037037037036],[0,0.12037037037037036],[-0.0020833333333333333,0.12037037037037036],[-0.0020833333333333333,0.12037037037037036],[-0.003125,0.12037037037037036],[-0.004166666666666667,0.12407407407407407],[-0.004166666666666667,0.12777777777777777],[-0.004166666666666667,0.13148148148148148],[-0.004166666666666667,0.13518518518518519],[-0.004166666666666667,0.13703703703703704],[-0.004166666666666667,0.13703703703703704],[-0.004166666666666667,0.14074074074074075],[-0.003125,0.1425925925925926],[-0.003125,0.1425925925925926],[-0.0020833333333333333,0.14444444444444443],[-0.0020833333333333333,0.14444444444444443],[-0.0010416666666666667,0.14444444444444443],[-0.0010416666666666667,0.14444444444444443],[0,0.14629629629629629],[0.0010416666666666667,0.14814814814814814],[0.0010416666666666667,0.14814814814814814],[0.0010416666666666667,0.14814814814814814],[0.0020833333333333333,0.15],[0.0020833333333333333,0.15],[0.003125,0.15185185185185185],[0.004166666666666667,0.1537037037037037],[0.004166666666666667,0.1537037037037037],[0.004166666666666667,0.1537037037037037],[0.005208333333333333,0.15555555555555556],[0.005208333333333333,0.15555555555555556],[0.005208333333333333,0.15555555555555556],[0.00625,0.15555555555555556],[0.00625,0.15555555555555556],[0.00625,0.15555555555555556],[0.00625,0.15555555555555556],[0.00625,0.15555555555555556],[0.00625,0.15555555555555556],[0.00625,0.15555555555555556],[0.00625,0.15555555555555556],[0.00625,0.15555555555555556],[0.00625,0.15555555555555556],[0.00625,0.15555555555555556],[0.00625,0.15555555555555556],[0.00625,0.15555555555555556],[0.00625,0.15555555555555556],[0.00625,0.15555555555555556],[0.00625,0.15555555555555556],[0.00625,0.15555555555555556],[0.00625,0.15555555555555556],[0.00625,0.15555555555555556],[0.00625,0.15555555555555556],[0.00625,0.15555555555555556],[0.00625,0.15555555555555556],[0.00625,0.15555555555555556],[0.00625,0.15555555555555556],[0.00625,0.15555555555555556],[0.00625,0.15555555555555556],[0.00625,0.15555555555555556],[0.00625,0.15555555555555556],[0.00625,0.15555555555555556],[0.00625,0.15555555555555556],[0.00625,0.15555555555555556],[0.00625,0.15555555555555556],[0.00625,0.15555555555555556],[0.00625,0.15555555555555556],[0.00625,0.15555555555555556],[0.00625,0.15555555555555556],[0.00625,0.15555555555555556],[0.00625,0.15555555555555556],[0.00625,0.15555555555555556],[0.00625,0.15555555555555556],[0.00625,0.15555555555555556],[0.00625,0.15555555555555556],[0.00625,0.15555555555555556],[0.00625,0.15555555555555556],[0.00625,0.15555555555555556],[0.00625,0.15555555555555556],[0.00625,0.15555555555555556],[0.00625,0.15555555555555556],[0.00625,0.15555555555555556],[0.00625,0.15555555555555556],[0.00625,0.15555555555555556],[0.00625,0.15555555555555556],[0.00625,0.15555555555555556],[0.00625,0.15555555555555556],[0.00625,0.15555555555555556],[0.00625,0.15555555555555556],[0.00625,0.15555555555555556],[0.00625,0.15555555555555556],[0.00625,0.15555555555555556],[0.00625,0.15555555555555556]]","[[0.10281250000000004,-0.04944444444444453],[0.11375000000000005,-0.0003703703703704546],[0.1125,-0.010740740740740657],[0.10062499999999991,-0.10592592592592591],[0.07354166666666657,-0.08481481481481483],[0.08010416666666677,-0.11203703703703703],[0.06843750000000005,-0.122037037037037],[0.07739583333333329,-0.11129629629629634],[0.07739583333333329,-0.11129629629629634],[0.07427083333333329,-0.15777777777777777],[0.06687500000000005,-0.18555555555555553],[0.0743750000000001,-0.2192592592592592],[0.08468749999999996,-0.2551851851851852],[0.08083333333333324,-0.3024074074074074],[0.07770833333333324,-0.26296296296296295],[0.10062499999999991,-0.2977777777777778],[0.10333333333333337,-0.30333333333333334],[0.10364583333333334,-0.2874074074074074],[0.10427083333333324,-0.3044444444444444],[0.10895833333333324,-0.2788888888888889],[0.1131249999999999,-0.25981481481481483],[0.10239583333333328,-0.23481481481481484],[0.08552083333333324,-0.2168518518518519],[0.08020833333333334,-0.20111111111111116],[0.08166666666666676,-0.18944444444444447],[0.08052083333333329,-0.17259259259259258],[0.07999999999999995,-0.15981481481481483],[0.0853125000000001,-0.14648148148148152],[0.07333333333333343,-0.11055555555555553],[0.06687500000000005,-0.060370370370370414],[0.06343749999999998,-0.039074074074074115],[0.06708333333333343,-0.029814814814814856],[0.07687499999999996,-0.013518518518518435],[0.10135416666666662,-0.024629629629629547],[0.12312500000000005,0.02833333333333325],[0.12572916666666673,0.03888888888888889],[0.12770833333333323,0.05351851851851848],[0.13531250000000009,0.03537037037037041],[0.153125,0.018518518518518517],[0.16458333333333333,-0.013888888888888888],[0.16447916666666676,-0.0544444444444444],[0.15697916666666673,-0.1007407407407407],[0.14947916666666666,-0.147037037037037],[0.1443749999999999,-0.10129629629629627],[0.12927083333333325,-0.11203703703703703],[0.12604166666666666,-0.1374074074074074],[0.11333333333333329,-0.14814814814814814],[0.11197916666666667,-0.13851851851851854],[0.11197916666666667,-0.13851851851851854],[0.11062500000000004,-0.12888888888888894],[0.12822916666666656,-0.13407407407407404],[0.12958333333333344,-0.07740740740740742],[0.13125,-0.002962962962963005],[0.11177083333333329,0.06351851851851843],[0.08541666666666667,0.05722222222222218],[0.08093750000000005,0.05722222222222218],[0.07520833333333338,0.10425925925925918],[0.09520833333333342,0.12388888888888884],[0.09520833333333342,0.12388888888888884],[0.08385416666666666,0.10851851851851856],[0.06645833333333329,0.11944444444444445],[0.06645833333333329,0.11944444444444445],[0.01604166666666664,0.1579629629629629],[0.014374999999999952,0.20425925925925917],[0.01270833333333338,0.2505555555555555],[0.02322916666666662,0.25314814814814823],[0.02322916666666662,0.25314814814814823],[0.036354166666666646,0.2633333333333334],[0.033645833333333285,0.282037037037037],[0.030104166666666644,0.2455555555555556],[0.030104166666666644,0.27148148148148155],[0.03104166666666662,0.3237037037037036],[0.04802083333333336,0.3487037037037036],[0.06489583333333329,0.3346296296296297],[0.06197916666666667,0.28407407407407403],[0.05916666666666662,0.23148148148148148],[0.05552083333333328,0.2272222222222223],[0.057500000000000044,0.22962962962962963],[0.057500000000000044,0.22962962962962963],[0.050833333333333286,0.17333333333333337],[0.06656249999999998,0.16500000000000004],[0.06656249999999998,0.16500000000000004],[0.057500000000000044,0.14592592592592585],[0.057500000000000044,0.14592592592592585],[0.0484375,0.12888888888888894],[0.0484375,0.12888888888888894],[0.024270833333333287,0.10962962962962972],[0.0020833333333333333,0.09740740740740746],[-0.008333333333333333,0.07092592592592584],[-0.008333333333333333,0.07092592592592584],[0.0006250000000000236,0.02907407407407416],[0.014687500000000023,0.011111111111111112],[0.014687500000000023,0.011111111111111112],[0.01906249999999995,-0.021851851851851768],[0.029999999999999954,-0.028518518518518478],[0.014999999999999977,-0.02388888888888885],[0.004999999999999952,-0.05814814814814811],[-0.013020833333333334,-0.06333333333333331],[-0.025937499999999978,-0.0653703703703704],[-0.015416666666666618,-0.07999999999999997],[-0.01604166666666664,-0.08870370370370366],[-0.014999999999999977,-0.0816666666666667],[-0.00927083333333331,-0.09518518518518514],[-0.02385416666666664,-0.10888888888888891],[-0.036458333333333336,-0.10851851851851856],[-0.03677083333333329,-0.11962962962962967],[-0.03708333333333336,-0.1307407407407408],[-0.017083333333333308,-0.15537037037037033],[0.002916666666666619,-0.17999999999999997],[0.0003124999999999526,-0.1551851851851852],[-0.002291666666666714,-0.13037037037037033],[-0.01552083333333331,-0.11388888888888889],[-0.028750000000000022,-0.09740740740740746],[-0.035312499999999976,-0.08185185185185183],[-0.041875000000000044,-0.06629629629629631],[-0.05333333333333338,-0.04000000000000004],[-0.06489583333333329,-0.0003703703703704546],[-0.07875000000000003,0.020740740740740823],[-0.09291666666666672,0.005000000000000084],[-0.09489583333333336,-0.027037037037037078],[-0.096875,-0.05907407407407403],[-0.10510416666666664,-0.04611111111111107],[-0.11312500000000002,-0.03481481481481473],[-0.10020833333333339,-0.01796296296296305],[-0.09031250000000005,-0.0011111111111111532],[-0.07781250000000005,0.035740740740740656],[-0.06708333333333331,0.06277777777777774],[-0.06375000000000004,0.05351851851851848],[-0.060104166666666715,0.08111111111111102],[-0.05614583333333331,0.09611111111111106],[-0.05322916666666669,0.10833333333333334],[-0.04468749999999998,0.11518518518518527],[-0.04552083333333338,0.1388888888888889],[-0.050625000000000024,0.11518518518518527],[-0.05270833333333336,0.09148148148148144],[-0.06739583333333338,0.03333333333333333],[-0.08020833333333334,-0.02833333333333325],[-0.06968749999999997,-0.02833333333333325],[-0.042604166666666644,-0.0492592592592593],[-0.03343750000000002,-0.06296296296296296],[-0.013229166666666714,-0.04222222222222214],[-0.0018749999999999527,-0.04722222222222222],[0.01260416666666669,-0.06555555555555552],[0.025520833333333333,-0.04018518518518527],[0.025520833333333333,-0.04018518518518527],[0.044375000000000026,-0.000925925925925926],[0.07104166666666671,0.007592592592592635],[0.09395833333333338,0.03351851851851856],[0.09583333333333334,0.06592592592592597],[0.071875,0.06148148148148157],[0.071875,0.06148148148148157],[0.0655208333333333,0.062407407407407495],[0.05666666666666664,0.05333333333333325],[0.05239583333333329,0.055000000000000084],[0.05416666666666667,0.05481481481481486],[0.06354166666666666,0.047037037037036995],[0.06697916666666662,0.025370370370370456]]","[[0.10281250000000004,-0.04944444444444453,0.000200000000184275],[0.11375000000000005,-0.0003703703703704546,0.018000000000000682],[0.1125,-0.010740740740740657,0.032100000000561124],[0.10062499999999991,-0.10592592592592591,0.05129999999981294],[0.07354166666666657,-0.08481481481481483,0.06570000000018439],[0.08010416666666677,-0.11203703703703703,0.08220000000018501],[0.06843750000000005,-0.122037037037037,0.10060000000056135],[0.07739583333333329,-0.11129629629629634,0.1161000000005572],[0.07739583333333329,-0.11129629629629634,0.13220000000018928],[0.07427083333333329,-0.15777777777777777,0.14890000000037418],[0.06687500000000005,-0.18555555555555553,0.16560000000055908],[0.0743750000000001,-0.2192592592592592,0.18220000000018644],[0.08468749999999996,-0.2551851851851852,0.19890000000037134],[0.08083333333333324,-0.3024074074074074,0.21560000000055624],[0.07770833333333324,-0.26296296296296295,0.23210000000055686],[0.10062499999999991,-0.2977777777777778,0.2489000000003756],[0.10333333333333337,-0.30333333333333334,0.26550000000000296],[0.10364583333333334,-0.2874074074074074,0.2831000000005588],[0.10427083333333324,-0.3044444444444444,0.30240000000037526],[0.10895833333333324,-0.2788888888888889,0.31560000000055766],[0.1131249999999999,-0.25981481481481483,0.332200000000185],[0.10239583333333328,-0.23481481481481484,0.3491000000005613],[0.08552083333333324,-0.2168518518518519,0.3682999999998131],[0.08020833333333334,-0.20111111111111116,0.38240000000037355],[0.08166666666666676,-0.18944444444444447,0.39960000000056084],[0.08052083333333329,-0.17259259259259258,0.4157000000001858],[0.07999999999999995,-0.15981481481481483,0.4347999999998109],[0.0853125000000001,-0.14648148148148152,0.44890000000037134],[0.07333333333333343,-0.11055555555555553,0.46570000000018297],[0.06687500000000005,-0.060370370370370414,0.4855000000000018],[0.06343749999999998,-0.039074074074074115,0.501200000000189],[0.06708333333333343,-0.029814814814814856,0.5156000000005605],[0.07687499999999996,-0.013518518518518435,0.5322999999998146],[0.10135416666666662,-0.024629629629629547,0.5522000000001839],[0.12312500000000005,0.02833333333333325,0.5657999999998111],[0.12572916666666673,0.03888888888888889,0.5824000000003693],[0.12770833333333323,0.05351851851851848,0.6021000000005614],[0.13531250000000009,0.03537037037037041,0.6159999999999997],[0.153125,0.018518518518518517,0.6342999999998113],[0.16458333333333333,-0.013888888888888888,0.652299999999812],[0.16447916666666676,-0.0544444444444444,0.6677000000001883],[0.15697916666666673,-0.1007407407407407,0.6824000000003707],[0.14947916666666666,-0.147037037037037,0.7025000000000006],[0.1443749999999999,-0.10129629629629627,0.7186000000005563],[0.12927083333333325,-0.11203703703703703,0.7327999999998127],[0.12604166666666666,-0.1374074074074074,0.7491000000005599],[0.11333333333333329,-0.14814814814814814,0.7689000000003716],[0.11197916666666667,-0.13851851851851854,0.7862000000001856],[0.11197916666666667,-0.13851851851851854,0.8049999999999997],[0.11062500000000004,-0.12888888888888894,0.8157000000001844],[0.12822916666666656,-0.13407407407407404,0.8344999999999985],[0.12958333333333344,-0.07740740740740742,0.8507999999998148],[0.13125,-0.002962962962963005,0.8659999999999997],[0.11177083333333329,0.06351851851851843,0.882299999999816],[0.08541666666666667,0.05722222222222218,0.9014999999999986],[0.08093750000000005,0.05722222222222218,0.9156000000005591],[0.07520833333333338,0.10425925925925918,0.9322999999998132],[0.09520833333333342,0.12388888888888884,0.9489999999999981],[0.09520833333333342,0.12388888888888884,0.9681000000005611],[0.08385416666666666,0.10851851851851856,0.982400000000375],[0.06645833333333329,0.11944444444444445,1.0007999999998134],[0.06645833333333329,0.11944444444444445,1.0189000000003716],[0.01604166666666664,0.1579629629629629,1.0324000000003721],[0.014374999999999952,0.20425925925925917,1.0489999999999995],[0.01270833333333338,0.2505555555555555,1.0681000000005554],[0.02322916666666662,0.25314814814814823,1.0822999999998117],[0.02322916666666662,0.25314814814814823,1.0991000000005613],[0.036354166666666646,0.2633333333333334,1.1157000000001887],[0.033645833333333285,0.282037037037037,1.1347999999998137],[0.030104166666666644,0.2455555555555556,1.1487999999998166],[0.030104166666666644,0.27148148148148155,1.1657000000001858],[0.03104166666666662,0.3237037037037036,1.1822999999998132],[0.04802083333333336,0.3487037037037036,1.2024000000003738],[0.06489583333333329,0.3346296296296297,1.2156000000005562],[0.06197916666666667,0.28407407407407403,1.234499999999997],[0.05916666666666662,0.23148148148148148,1.2490000000000023],[0.05552083333333328,0.2272222222222223,1.2656000000005605],[0.057500000000000044,0.22962962962962963,1.2845000000000013],[0.057500000000000044,0.22962962962962963,1.2989999999999995],[0.050833333333333286,0.17333333333333337,1.3155000000000001],[0.06656249999999998,0.16500000000000004,1.3347999999998166],[0.06656249999999998,0.16500000000000004,1.34890000000037],[0.057500000000000044,0.14592592592592585,1.3657999999998154],[0.057500000000000044,0.14592592592592585,1.3821000000005554],[0.0484375,0.12888888888888894,1.403200000000183],[0.0484375,0.12888888888888894,1.4157000000001858],[0.024270833333333287,0.10962962962962972,1.4322000000001864],[0.0020833333333333333,0.09740740740740746,1.4529000000003691],[-0.008333333333333333,0.07092592592592584,1.47390000000037],[-0.008333333333333333,0.07092592592592584,1.4822999999998103],[0.0006250000000000236,0.02907407407407416,1.4991000000005599],[0.014687500000000023,0.011111111111111112,1.5204000000003717],[0.014687500000000023,0.011111111111111112,1.5322999999998146],[0.01906249999999995,-0.021851851851851768,1.5489000000003728],[0.029999999999999954,-0.028518518518518478,1.5677000000001868],[0.014999999999999977,-0.02388888888888885,1.5822999999998117],[0.004999999999999952,-0.05814814814814811,1.59890000000037],[-0.013020833333333334,-0.06333333333333331,1.6157000000001887],[-0.025937499999999978,-0.0653703703703704,1.6322000000001893],[-0.015416666666666618,-0.07999999999999997,1.6489000000003742],[-0.01604166666666664,-0.08870370370370366,1.6655000000000015],[-0.014999999999999977,-0.0816666666666667,1.6821000000005597],[-0.00927083333333331,-0.09518518518518514,1.6989000000003713],[-0.02385416666666664,-0.10888888888888891,1.7154999999999987],[-0.036458333333333336,-0.10851851851851856,1.7321000000005569],[-0.03677083333333329,-0.11962962962962967,1.748799999999811],[-0.03708333333333336,-0.1307407407407408,1.7707999999998165],[-0.017083333333333308,-0.15537037037037033,1.7859000000003746],[0.002916666666666619,-0.17999999999999997,1.8029999999999973],[0.0003124999999999526,-0.1551851851851852,1.81610000000056],[-0.002291666666666714,-0.13037037037037033,1.832200000000185],[-0.01552083333333331,-0.11388888888888889,1.8512000000001834],[-0.028750000000000022,-0.09740740740740746,1.8681000000005596],[-0.035312499999999976,-0.08185185185185183,1.8822000000001893],[-0.041875000000000044,-0.06629629629629631,1.8989000000003742],[-0.05333333333333338,-0.04000000000000004,1.915600000000559],[-0.06489583333333329,-0.0003703703703704546,1.9322000000001864],[-0.07875000000000003,0.020740740740740823,1.9489000000003713],[-0.09291666666666672,0.005000000000000084,1.9656000000005562],[-0.09489583333333336,-0.027037037037037078,1.9821000000005569],[-0.096875,-0.05907407407407403,1.9990000000000023],[-0.10510416666666664,-0.04611111111111107,2.015500000000003],[-0.11312500000000002,-0.03481481481481473,2.032200000000188],[-0.10020833333333339,-0.01796296296296305,2.048799999999815],[-0.09031250000000005,-0.0011111111111111532,2.0656000000005577],[-0.07781250000000005,0.035740740740740656,2.082200000000185],[-0.06708333333333331,0.06277777777777774,2.09890000000037],[-0.06375000000000004,0.05351851851851848,2.1154999999999973],[-0.060104166666666715,0.08111111111111102,2.132299999999816],[-0.05614583333333331,0.09611111111111106,2.1487999999998166],[-0.05322916666666669,0.10833333333333334,2.1655000000000015],[-0.04468749999999998,0.11518518518518527,2.1821000000005597],[-0.04552083333333338,0.1388888888888889,2.1989000000003713],[-0.050625000000000024,0.11518518518518527,2.2154999999999987],[-0.05270833333333336,0.09148148148148144,2.232100000000557],[-0.06739583333333338,0.03333333333333333,2.248799999999811],[-0.08020833333333334,-0.02833333333333325,2.265500000000003],[-0.06968749999999997,-0.02833333333333325,2.282200000000188],[-0.042604166666666644,-0.0492592592592593,2.300900000000375],[-0.03343750000000002,-0.06296296296296296,2.3156000000005577],[-0.013229166666666714,-0.04222222222222214,2.3321000000005583],[-0.0018749999999999527,-0.04722222222222222,2.3487999999998124],[0.01260416666666669,-0.06555555555555552,2.3654999999999973],[0.025520833333333333,-0.04018518518518527,2.3849000000003713],[0.025520833333333333,-0.04018518518518527,2.400799999999812],[0.044375000000000026,-0.000925925925925926,2.4155000000000015],[0.07104166666666671,0.007592592592592635,2.4321000000005597],[0.09395833333333338,0.03351851851851856,2.448799999999814],[0.09583333333333334,0.06592592592592597,2.4654999999999987],[0.071875,0.06148148148148157,2.4822999999998103],[0.071875,0.06148148148148157,2.4990000000000023],[0.0655208333333333,0.062407407407407495,2.515500000000003],[0.05666666666666664,0.05333333333333325,2.532200000000188],[0.05239583333333329,0.055000000000000084,2.548799999999815],[0.05416666666666667,0.05481481481481486,2.5654000000003734],[0.06354166666666666,0.047037037037036995,2.582200000000185],[0.06697916666666662,0.025370370370370456,2.6009000000003724]]","[0.000200000000184275,0.018000000000000682,0.032100000000561124,0.05129999999981294,0.06570000000018439,0.08220000000018501,0.10060000000056135,0.1161000000005572,0.13220000000018928,0.14890000000037418,0.16560000000055908,0.18220000000018644,0.19890000000037134,0.21560000000055624,0.23210000000055686,0.2489000000003756,0.26550000000000296,0.2831000000005588,0.30240000000037526,0.31560000000055766,0.332200000000185,0.3491000000005613,0.3682999999998131,0.38240000000037355,0.39960000000056084,0.4157000000001858,0.4347999999998109,0.44890000000037134,0.46570000000018297,0.4855000000000018,0.501200000000189,0.5156000000005605,0.5322999999998146,0.5522000000001839,0.5657999999998111,0.5824000000003693,0.6021000000005614,0.6159999999999997,0.6342999999998113,0.652299999999812,0.6677000000001883,0.6824000000003707,0.7025000000000006,0.7186000000005563,0.7327999999998127,0.7491000000005599,0.7689000000003716,0.7862000000001856,0.8049999999999997,0.8157000000001844,0.8344999999999985,0.8507999999998148,0.8659999999999997,0.882299999999816,0.9014999999999986,0.9156000000005591,0.9322999999998132,0.9489999999999981,0.9681000000005611,0.982400000000375,1.0007999999998134,1.0189000000003716,1.0324000000003721,1.0489999999999995,1.0681000000005554,1.0822999999998117,1.0991000000005613,1.1157000000001887,1.1347999999998137,1.1487999999998166,1.1657000000001858,1.1822999999998132,1.2024000000003738,1.2156000000005562,1.234499999999997,1.2490000000000023,1.2656000000005605,1.2845000000000013,1.2989999999999995,1.3155000000000001,1.3347999999998166,1.34890000000037,1.3657999999998154,1.3821000000005554,1.403200000000183,1.4157000000001858,1.4322000000001864,1.4529000000003691,1.47390000000037,1.4822999999998103,1.4991000000005599,1.5204000000003717,1.5322999999998146,1.5489000000003728,1.5677000000001868,1.5822999999998117,1.59890000000037,1.6157000000001887,1.6322000000001893,1.6489000000003742,1.6655000000000015,1.6821000000005597,1.6989000000003713,1.7154999999999987,1.7321000000005569,1.748799999999811,1.7707999999998165,1.7859000000003746,1.8029999999999973,1.81610000000056,1.832200000000185,1.8512000000001834,1.8681000000005596,1.8822000000001893,1.8989000000003742,1.915600000000559,1.9322000000001864,1.9489000000003713,1.9656000000005562,1.9821000000005569,1.9990000000000023,2.015500000000003,2.032200000000188,2.048799999999815,2.0656000000005577,2.082200000000185,2.09890000000037,2.1154999999999973,2.132299999999816,2.1487999999998166,2.1655000000000015,2.1821000000005597,2.1989000000003713,2.2154999999999987,2.232100000000557,2.248799999999811,2.265500000000003,2.282200000000188,2.300900000000375,2.3156000000005577,2.3321000000005583,2.3487999999998124,2.3654999999999973,2.3849000000003713,2.400799999999812,2.4155000000000015,2.4321000000005597,2.448799999999814,2.4654999999999987,2.4822999999998103,2.4990000000000023,2.515500000000003,2.532200000000188,2.548799999999815,2.5654000000003734,2.582200000000185,2.6009000000003724]","[1733117358959,1733117358975,1733117358989,1733117359008,1733117359023,1733117359039,1733117359058,1733117359073,1733117359089,1733117359106,1733117359122,1733117359139,1733117359156,1733117359172,1733117359189,1733117359206,1733117359222,1733117359240,1733117359259,1733117359272,1733117359289,1733117359306,1733117359325,1733117359339,1733117359356,1733117359372,1733117359392,1733117359406,1733117359423,1733117359442,1733117359458,1733117359472,1733117359489,1733117359509,1733117359523,1733117359539,1733117359559,1733117359573,1733117359591,1733117359609,1733117359624,1733117359639,1733117359659,1733117359675,1733117359690,1733117359706,1733117359726,1733117359743,1733117359762,1733117359773,1733117359791,1733117359808,1733117359823,1733117359839,1733117359858,1733117359872,1733117359889,1733117359906,1733117359925,1733117359939,1733117359958,1733117359976,1733117359989,1733117360006,1733117360025,1733117360039,1733117360056,1733117360073,1733117360092,1733117360106,1733117360122,1733117360139,1733117360159,1733117360172,1733117360191,1733117360206,1733117360222,1733117360241,1733117360256,1733117360272,1733117360292,1733117360306,1733117360323,1733117360339,1733117360360,1733117360372,1733117360389,1733117360410,1733117360431,1733117360439,1733117360456,1733117360477,1733117360489,1733117360506,1733117360524,1733117360539,1733117360556,1733117360573,1733117360589,1733117360606,1733117360622,1733117360639,1733117360656,1733117360672,1733117360689,1733117360706,1733117360728,1733117360743,1733117360760,1733117360773,1733117360789,1733117360808,1733117360825,1733117360839,1733117360856,1733117360872,1733117360889,1733117360906,1733117360922,1733117360939,1733117360956,1733117360972,1733117360989,1733117361006,1733117361022,1733117361039,1733117361056,1733117361072,1733117361089,1733117361106,1733117361122,1733117361139,1733117361156,1733117361172,1733117361189,1733117361206,1733117361222,1733117361239,1733117361258,1733117361272,1733117361289,1733117361306,1733117361322,1733117361342,1733117361358,1733117361372,1733117361389,1733117361406,1733117361422,1733117361439,1733117361456,1733117361472,1733117361489,1733117361506,1733117361522,1733117361539,1733117361558]","[[1058.7,513.3],[1069.2,539.8],[1068,534.2],[1056.6,482.8],[1030.6,494.2],[1036.9,479.5],[1025.7,474.1],[1034.3,479.9],[1034.3,479.9],[1031.3,454.8],[1024.2,439.8],[1031.4,421.6],[1041.3,402.2],[1037.6,376.7],[1034.6,398],[1056.6,379.2],[1059.2,376.2],[1059.5,384.8],[1060.1,375.6],[1064.6,389.4],[1068.6,399.7],[1058.3,413.2],[1042.1,422.9],[1037,431.4],[1038.4,437.7],[1037.3,446.8],[1036.8,453.7],[1041.9,460.9],[1030.4,480.3],[1024.2,507.4],[1020.9,518.9],[1024.4,523.9],[1033.8,532.7],[1057.3,526.7],[1078.2,555.3],[1080.7,561],[1082.6,568.9],[1089.9,559.1],[1107,550],[1118,532.5],[1117.9,510.6],[1110.7,485.6],[1103.5,460.6],[1098.6,485.3],[1084.1,479.5],[1081,465.8],[1068.8,460],[1067.5,465.2],[1067.5,465.2],[1066.2,470.4],[1083.1,467.6],[1084.4,498.2],[1086,538.4],[1067.3,574.3],[1042,570.9],[1037.7,570.9],[1032.2,596.3],[1051.4,606.9],[1051.4,606.9],[1040.5,598.6],[1023.8,604.5],[1023.8,604.5],[975.4,625.3],[973.8,650.3],[972.2,675.3],[982.3,676.7],[982.3,676.7],[994.9,682.2],[992.3,692.3],[988.9,672.6],[988.9,686.6],[989.8,714.8],[1006.1,728.3],[1022.3,720.7],[1019.5,693.4],[1016.8,665],[1013.3,662.7],[1015.2,664],[1015.2,664],[1008.8,633.6],[1023.9,629.1],[1023.9,629.1],[1015.2,618.8],[1015.2,618.8],[1006.5,609.6],[1006.5,609.6],[983.3,599.2],[962,592.6],[952,578.3],[952,578.3],[960.6,555.7],[974.1,546],[974.1,546],[978.3,528.2],[988.8,524.6],[974.4,527.1],[964.8,508.6],[947.5,505.8],[935.1,504.7],[945.2,496.8],[944.6,492.1],[945.6,495.9],[951.1,488.6],[937.1,481.2],[925,481.4],[924.7,475.4],[924.4,469.4],[943.6,456.1],[962.8,442.8],[960.3,456.2],[957.8,469.6],[945.1,478.5],[932.4,487.4],[926.1,495.8],[919.8,504.2],[908.8,518.4],[897.7,539.8],[884.4,551.2],[870.8,542.7],[868.9,525.4],[867,508.1],[859.1,515.1],[851.4,521.2],[863.8,530.3],[873.3,539.4],[885.3,559.3],[895.6,573.9],[898.8,568.9],[902.3,583.8],[906.1,591.9],[908.9,598.5],[917.1,602.2],[916.3,615],[911.4,602.2],[909.4,589.4],[895.3,558],[883,524.7],[893.1,524.7],[919.1,513.4],[927.9,506],[947.3,517.2],[958.2,514.5],[972.1,504.6],[984.5,518.3],[984.5,518.3],[1002.6,539.5],[1028.2,544.1],[1050.2,558.1],[1052,575.6],[1029,573.2],[1029,573.2],[1022.9,573.7],[1014.4,568.8],[1010.3,569.7],[1012,569.6],[1021,565.4],[1024.3,553.7]]","[0,0.151169218]","[0.151169218,0.151169218]","[-0.151169218,0]","[-0.151169218,-0.151169218]","[0,0]","[0.151169218,0]","[0,-0.151169218]","[0.151169218,-0.151169218]",0,1,1,1,1,2,Smartphone,13,7,11,1
