inst1_resp.keys,inst1_resp.rt,calibrationMouse.x,calibrationMouse.y,calibrationMouse.leftButton,calibrationMouse.midButton,calibrationMouse.rightButton,calibrationClick.x,calibrationClick.y,calibrationClick.leftButton,calibrationClick.midButton,calibrationClick.rightButton,calibrationClick.clicked_name,trialsc.thisRepN,trialsc.thisTrialN,trialsc.thisN,trialsc.thisIndex,trialsc.ran,calibration_x,calibration_y,participant,session,date,expName,psychopyVersion,OS,frameRate,ScreenRes_pixels,Camera_pixels,mouse_2.x,mouse_2.y,mouse_2.leftButton,mouse_2.midButton,mouse_2.rightButton,mouse_2.time,mouse_2.clicked_name,mouse.x,mouse.y,mouse.leftButton,mouse.midButton,mouse.rightButton,mouse.time,mouse.clicked_name,Choice,Trial,TrialDuration,MOUSE_GAZE,ET_GAZE,ET_GAZE_x_T,time,unixTime,ET_GAZE_NF,Loc_Option1_label,Loc_Option2_label,Loc_Cost_label,Loc_Qual_label,Loc_Option1_cost,Loc_Option2_cost,Loc_Option1_quality,Loc_Option2_quality,trials.thisRepN,trials.thisTrialN,trials.thisN,trials.thisIndex,trials.ran,Block,Device,cost1,qual1,cost2,qual2
space,4.6333,0.296875,-0.411111111,1,0,0,-0.675,0.009259259,1,0,0,calibration_square,0,0,0,2,1,-0.67,0,31,001,2024-12-02_14h23.43.527,Attention_exp_legacy,2023.1.0,Win32,60.24096386,,,,,,,,,,,,,,,,,,,,,,,,,,,,,,,,,,,,,,,,,,,,
,,,,,,,-0.004166667,0.333333333,1,0,0,calibration_square,0,1,1,12,1,0,0.33,31,001,2024-12-02_14h23.43.527,Attention_exp_legacy,2023.1.0,Win32,60.24096386,,,,,,,,,,,,,,,,,,,,,,,,,,,,,,,,,,,,,,,,,,,,
,,,,,,,-0.3375,-0.312962963,1,0,0,,0,2,2,5,1,-0.33,-0.33,31,001,2024-12-02_14h23.43.527,Attention_exp_legacy,2023.1.0,Win32,60.24096386,,,,,,,,,,,,,,,,,,,,,,,,,,,,,,,,,,,,,,,,,,,,
,,,,,,,0.66875,-0.655555556,1,0,0,,0,3,3,20,1,0.67,-0.67,31,001,2024-12-02_14h23.43.527,Attention_exp_legacy,2023.1.0,Win32,60.24096386,,,,,,,,,,,,,,,,,,,,,,,,,,,,,,,,,,,,,,,,,,,,
,,,,,,,-0.322916667,0.003703704,1,0,0,calibration_square,0,4,4,6,1,-0.33,0,31,001,2024-12-02_14h23.43.527,Attention_exp_legacy,2023.1.0,Win32,60.24096386,,,,,,,,,,,,,,,,,,,,,,,,,,,,,,,,,,,,,,,,,,,,
,,,,,,,-0.675,-0.67962963,1,0,0,calibration_square,0,5,5,0,1,-0.67,-0.67,31,001,2024-12-02_14h23.43.527,Attention_exp_legacy,2023.1.0,Win32,60.24096386,,,,,,,,,,,,,,,,,,,,,,,,,,,,,,,,,,,,,,,,,,,,
,,,,,,,0.015625,-0.662962963,1,0,0,,0,6,6,9,1,0,-0.67,31,001,2024-12-02_14h23.43.527,Attention_exp_legacy,2023.1.0,Win32,60.24096386,,,,,,,,,,,,,,,,,,,,,,,,,,,,,,,,,,,,,,,,,,,,
,,,,,,,0.311458333,0.007407407,1,0,0,,0,7,7,16,1,0.33,0,31,001,2024-12-02_14h23.43.527,Attention_exp_legacy,2023.1.0,Win32,60.24096386,,,,,,,,,,,,,,,,,,,,,,,,,,,,,,,,,,,,,,,,,,,,
,,,,,,,0.317708333,-0.675925926,1,0,0,,0,8,8,14,1,0.33,-0.67,31,001,2024-12-02_14h23.43.527,Attention_exp_legacy,2023.1.0,Win32,60.24096386,,,,,,,,,,,,,,,,,,,,,,,,,,,,,,,,,,,,,,,,,,,,
,,,,,,,-0.327083333,0.662962963,1,0,0,calibration_square,0,9,9,8,1,-0.33,0.67,31,001,2024-12-02_14h23.43.527,Attention_exp_legacy,2023.1.0,Win32,60.24096386,,,,,,,,,,,,,,,,,,,,,,,,,,,,,,,,,,,,,,,,,,,,
,,,,,,,-0.00625,0.657407407,1,0,0,,0,10,10,13,1,0,0.67,31,001,2024-12-02_14h23.43.527,Attention_exp_legacy,2023.1.0,Win32,60.24096386,,,,,,,,,,,,,,,,,,,,,,,,,,,,,,,,,,,,,,,,,,,,
,,,,,,,0.332291667,0.709259259,1,0,0,,0,11,11,18,1,0.33,0.67,31,001,2024-12-02_14h23.43.527,Attention_exp_legacy,2023.1.0,Win32,60.24096386,,,,,,,,,,,,,,,,,,,,,,,,,,,,,,,,,,,,,,,,,,,,
,,,,,,,0.339583333,0.357407407,1,0,0,,0,12,12,17,1,0.33,0.33,31,001,2024-12-02_14h23.43.527,Attention_exp_legacy,2023.1.0,Win32,60.24096386,,,,,,,,,,,,,,,,,,,,,,,,,,,,,,,,,,,,,,,,,,,,
,,,,,,,0.00625,-0.342592593,1,0,0,,0,13,13,10,1,0,-0.33,31,001,2024-12-02_14h23.43.527,Attention_exp_legacy,2023.1.0,Win32,60.24096386,,,,,,,,,,,,,,,,,,,,,,,,,,,,,,,,,,,,,,,,,,,,
,,,,,,,-0.357291667,-0.674074074,1,0,0,,0,14,14,4,1,-0.33,-0.67,31,001,2024-12-02_14h23.43.527,Attention_exp_legacy,2023.1.0,Win32,60.24096386,,,,,,,,,,,,,,,,,,,,,,,,,,,,,,,,,,,,,,,,,,,,
,,,,,,,0.669791667,0.677777778,1,0,0,calibration_square,0,15,15,19,1,0.67,0.67,31,001,2024-12-02_14h23.43.527,Attention_exp_legacy,2023.1.0,Win32,60.24096386,,,,,,,,,,,,,,,,,,,,,,,,,,,,,,,,,,,,,,,,,,,,
,,,,,,,0.329166667,-0.32962963,1,0,0,calibration_square,0,16,16,15,1,0.33,-0.33,31,001,2024-12-02_14h23.43.527,Attention_exp_legacy,2023.1.0,Win32,60.24096386,,,,,,,,,,,,,,,,,,,,,,,,,,,,,,,,,,,,,,,,,,,,
,,,,,,,-0.66875,0.331481481,1,0,0,calibration_square,0,17,17,3,1,-0.67,0.33,31,001,2024-12-02_14h23.43.527,Attention_exp_legacy,2023.1.0,Win32,60.24096386,,,,,,,,,,,,,,,,,,,,,,,,,,,,,,,,,,,,,,,,,,,,
,,,,,,,-0.663541667,-0.314814815,1,0,0,,0,18,18,1,1,-0.67,-0.33,31,001,2024-12-02_14h23.43.527,Attention_exp_legacy,2023.1.0,Win32,60.24096386,,,,,,,,,,,,,,,,,,,,,,,,,,,,,,,,,,,,,,,,,,,,
,,,,,,,0.004166667,-0.011111111,1,0,0,,0,19,19,11,1,0,0,31,001,2024-12-02_14h23.43.527,Attention_exp_legacy,2023.1.0,Win32,60.24096386,,,,,,,,,,,,,,,,,,,,,,,,,,,,,,,,,,,,,,,,,,,,
,,,,,,,-0.335416667,0.342592593,1,0,0,,0,20,20,7,1,-0.33,0.33,31,001,2024-12-02_14h23.43.527,Attention_exp_legacy,2023.1.0,Win32,60.24096386,,,,,,,,,,,,,,,,,,,,,,,,,,,,,,,,,,,,,,,,,,,,
,,,,,,,,,,,,,,,,,,,,31,001,2024-12-02_14h23.43.527,Attention_exp_legacy,2023.1.0,Win32,60.24096386,"[1920,1080]","[640,480]",[-0.007291666666666667],[-0.48148148148148145],[1],[0],[0],[2.677800000000744],"[""StartButton""]",[0.011458333333333333],[0.3351851851851852],[1],[0],[0],[5.405000000000001],"[""Option1_label""]",Option1_label,1,6.4321,"[[0.0875,-0.337037037037037],[0.0875,-0.337037037037037],[0.0875,-0.337037037037037],[0.0875,-0.337037037037037],[0.0875,-0.337037037037037],[0.0875,-0.337037037037037],[0.0875,-0.337037037037037],[0.0875,-0.337037037037037],[0.0875,-0.337037037037037],[0.0875,-0.337037037037037],[0.0875,-0.337037037037037],[0.0875,-0.337037037037037],[0.0875,-0.337037037037037],[0.0875,-0.337037037037037],[0.0875,-0.337037037037037],[0.0875,-0.337037037037037],[0.0875,-0.337037037037037],[0.0875,-0.337037037037037],[0.0875,-0.337037037037037],[0.0875,-0.337037037037037],[0.0875,-0.337037037037037],[0.0875,-0.337037037037037],[0.0875,-0.337037037037037],[0.0875,-0.337037037037037],[0.0875,-0.337037037037037],[0.0875,-0.337037037037037],[0.0875,-0.337037037037037],[0.0875,-0.337037037037037],[0.0875,-0.337037037037037],[0.0875,-0.337037037037037],[0.0875,-0.337037037037037],[0.0875,-0.337037037037037],[0.0875,-0.337037037037037],[0.0875,-0.337037037037037],[0.0875,-0.337037037037037],[0.0875,-0.337037037037037],[0.0875,-0.337037037037037],[0.0875,-0.337037037037037],[0.0875,-0.337037037037037],[0.0875,-0.337037037037037],[0.0875,-0.337037037037037],[0.0875,-0.337037037037037],[0.0875,-0.337037037037037],[0.0875,-0.337037037037037],[0.0875,-0.337037037037037],[0.0875,-0.337037037037037],[0.0875,-0.337037037037037],[0.0875,-0.337037037037037],[0.0875,-0.337037037037037],[0.0875,-0.337037037037037],[0.0875,-0.337037037037037],[0.0875,-0.337037037037037],[0.0875,-0.337037037037037],[0.0875,-0.337037037037037],[0.0875,-0.337037037037037],[0.0875,-0.337037037037037],[0.0875,-0.337037037037037],[0.0875,-0.337037037037037],[0.0875,-0.337037037037037],[0.0875,-0.337037037037037],[0.0875,-0.337037037037037],[0.0875,-0.337037037037037],[0.0875,-0.337037037037037],[0.0875,-0.337037037037037],[0.0875,-0.337037037037037],[0.0875,-0.337037037037037],[0.0875,-0.337037037037037],[0.0875,-0.337037037037037],[0.0875,-0.337037037037037],[0.0875,-0.337037037037037],[0.0875,-0.337037037037037],[0.0875,-0.337037037037037],[0.0875,-0.337037037037037],[0.0875,-0.337037037037037],[0.0875,-0.337037037037037],[0.0875,-0.337037037037037],[0.0875,-0.337037037037037],[0.0875,-0.337037037037037],[0.0875,-0.337037037037037],[0.0875,-0.337037037037037],[0.0875,-0.337037037037037],[0.0875,-0.337037037037037],[0.0875,-0.337037037037037],[0.0875,-0.337037037037037],[0.0875,-0.337037037037037],[0.0875,-0.337037037037037],[0.0875,-0.337037037037037],[0.0875,-0.337037037037037],[0.0875,-0.337037037037037],[0.0875,-0.337037037037037],[0.0875,-0.337037037037037],[0.0875,-0.337037037037037],[0.0875,-0.337037037037037],[0.0875,-0.337037037037037],[0.0875,-0.337037037037037],[0.0875,-0.337037037037037],[0.0875,-0.337037037037037],[0.0875,-0.337037037037037],[0.0875,-0.337037037037037],[0.0875,-0.337037037037037],[0.0875,-0.337037037037037],[0.0875,-0.337037037037037],[0.0875,-0.337037037037037],[0.0875,-0.337037037037037],[0.0875,-0.337037037037037],[0.0875,-0.337037037037037],[0.0875,-0.337037037037037],[0.0875,-0.337037037037037],[0.0875,-0.337037037037037],[0.0875,-0.337037037037037],[0.0875,-0.337037037037037],[0.0875,-0.337037037037037],[0.0875,-0.337037037037037],[0.0875,-0.337037037037037],[0.0875,-0.337037037037037],[0.0875,-0.337037037037037],[0.0875,-0.337037037037037],[0.0875,-0.337037037037037],[0.0875,-0.337037037037037],[0.0875,-0.337037037037037],[0.0875,-0.337037037037037],[0.0875,-0.337037037037037],[0.0875,-0.337037037037037],[0.0875,-0.337037037037037],[0.0875,-0.337037037037037],[0.0875,-0.337037037037037],[0.0875,-0.337037037037037],[0.0875,-0.337037037037037],[0.0875,-0.337037037037037],[0.0875,-0.337037037037037],[0.0875,-0.337037037037037],[0.0875,-0.337037037037037],[0.0875,-0.337037037037037],[0.0875,-0.337037037037037],[0.0875,-0.337037037037037],[0.0875,-0.337037037037037],[0.0875,-0.337037037037037],[0.0875,-0.337037037037037],[0.0875,-0.337037037037037],[0.0875,-0.337037037037037],[0.0875,-0.337037037037037],[0.0875,-0.337037037037037],[0.0875,-0.337037037037037],[0.0875,-0.337037037037037],[0.0875,-0.337037037037037],[0.0875,-0.337037037037037],[0.0875,-0.337037037037037],[0.0875,-0.337037037037037],[0.0875,-0.337037037037037],[0.0875,-0.337037037037037],[0.0875,-0.337037037037037],[0.0875,-0.337037037037037],[0.0875,-0.337037037037037],[0.0875,-0.337037037037037],[0.0875,-0.337037037037037],[0.0875,-0.337037037037037],[0.0875,-0.337037037037037],[0.0875,-0.337037037037037],[0.0875,-0.337037037037037],[0.0875,-0.337037037037037],[0.0875,-0.337037037037037],[0.0875,-0.337037037037037],[0.0875,-0.337037037037037],[0.0875,-0.337037037037037],[0.0875,-0.337037037037037],[0.0875,-0.337037037037037],[0.0875,-0.337037037037037],[0.0875,-0.337037037037037],[0.0875,-0.337037037037037],[0.0875,-0.337037037037037],[0.0875,-0.337037037037037],[0.0875,-0.337037037037037],[0.0875,-0.337037037037037],[0.0875,-0.337037037037037],[0.0875,-0.337037037037037],[0.0875,-0.337037037037037],[0.0875,-0.337037037037037],[0.0875,-0.337037037037037],[0.0875,-0.337037037037037],[0.0875,-0.337037037037037],[0.0875,-0.337037037037037],[0.0875,-0.337037037037037],[0.0875,-0.337037037037037],[0.0875,-0.337037037037037],[0.084375,-0.337037037037037],[0.08333333333333333,-0.337037037037037],[0.08333333333333333,-0.337037037037037],[0.08229166666666667,-0.337037037037037],[0.08229166666666667,-0.337037037037037],[0.08229166666666667,-0.337037037037037],[0.08229166666666667,-0.337037037037037],[0.08229166666666667,-0.337037037037037],[0.08229166666666667,-0.337037037037037],[0.08229166666666667,-0.337037037037037],[0.08229166666666667,-0.337037037037037],[0.08229166666666667,-0.337037037037037],[0.08229166666666667,-0.337037037037037],[0.08229166666666667,-0.337037037037037],[0.08229166666666667,-0.337037037037037],[0.08229166666666667,-0.337037037037037],[0.08229166666666667,-0.337037037037037],[0.08229166666666667,-0.337037037037037],[0.08229166666666667,-0.337037037037037],[0.08229166666666667,-0.337037037037037],[0.08229166666666667,-0.337037037037037],[0.08229166666666667,-0.337037037037037],[0.08229166666666667,-0.337037037037037],[0.08229166666666667,-0.337037037037037],[0.08229166666666667,-0.337037037037037],[0.08229166666666667,-0.337037037037037],[0.08229166666666667,-0.337037037037037],[0.08229166666666667,-0.337037037037037],[0.08229166666666667,-0.337037037037037],[0.08229166666666667,-0.337037037037037],[0.08229166666666667,-0.337037037037037],[0.08229166666666667,-0.337037037037037],[0.08229166666666667,-0.337037037037037],[0.08229166666666667,-0.337037037037037],[0.08229166666666667,-0.337037037037037],[0.08229166666666667,-0.337037037037037],[0.08229166666666667,-0.337037037037037],[0.08229166666666667,-0.337037037037037],[0.08229166666666667,-0.337037037037037],[0.08229166666666667,-0.337037037037037],[0.08229166666666667,-0.337037037037037],[0.08229166666666667,-0.337037037037037],[0.08229166666666667,-0.337037037037037],[0.08229166666666667,-0.337037037037037],[0.08229166666666667,-0.337037037037037],[0.08229166666666667,-0.337037037037037],[0.08229166666666667,-0.337037037037037],[0.08229166666666667,-0.337037037037037],[0.08229166666666667,-0.337037037037037],[0.08229166666666667,-0.337037037037037],[0.08229166666666667,-0.337037037037037],[0.08229166666666667,-0.337037037037037],[0.08229166666666667,-0.337037037037037],[0.08229166666666667,-0.337037037037037],[0.08229166666666667,-0.337037037037037],[0.08229166666666667,-0.337037037037037],[0.08229166666666667,-0.337037037037037],[0.08229166666666667,-0.337037037037037],[0.08229166666666667,-0.337037037037037],[0.08229166666666667,-0.337037037037037],[0.08229166666666667,-0.337037037037037],[0.08229166666666667,-0.337037037037037],[0.08229166666666667,-0.337037037037037],[0.08229166666666667,-0.337037037037037],[0.08229166666666667,-0.337037037037037],[0.08229166666666667,-0.337037037037037],[0.08229166666666667,-0.337037037037037],[0.08229166666666667,-0.337037037037037],[0.08229166666666667,-0.337037037037037],[0.08229166666666667,-0.337037037037037],[0.08229166666666667,-0.337037037037037],[0.08229166666666667,-0.337037037037037],[0.08229166666666667,-0.337037037037037],[0.08229166666666667,-0.337037037037037],[0.08229166666666667,-0.337037037037037],[0.08229166666666667,-0.337037037037037],[0.08229166666666667,-0.337037037037037],[0.08229166666666667,-0.337037037037037],[0.08229166666666667,-0.337037037037037],[0.08229166666666667,-0.337037037037037],[0.08229166666666667,-0.337037037037037],[0.08229166666666667,-0.337037037037037],[0.08229166666666667,-0.337037037037037],[0.09166666666666666,-0.34444444444444444],[0.103125,-0.34444444444444444],[0.12291666666666666,-0.34444444444444444],[0.1625,-0.3314814814814815],[0.28020833333333334,-0.2851851851851852],[0.36666666666666664,-0.24444444444444444],[0.44375,-0.2],[0.509375,-0.15925925925925927],[0.553125,-0.13518518518518519],[0.5802083333333333,-0.11666666666666667],[0.5979166666666667,-0.1037037037037037],[0.6072916666666667,-0.09444444444444444],[0.6125,-0.08888888888888889],[0.6135416666666667,-0.08888888888888889],[0.6135416666666667,-0.08888888888888889],[0.6135416666666667,-0.08888888888888889],[0.6135416666666667,-0.08888888888888889],[0.6135416666666667,-0.08888888888888889],[0.6114583333333333,-0.07962962962962963],[0.6,-0.07222222222222222],[0.5854166666666667,-0.05555555555555555],[0.5708333333333333,-0.053703703703703705],[0.5552083333333333,-0.053703703703703705],[0.534375,-0.04814814814814815],[0.49375,-0.046296296296296294],[0.38333333333333336,-0.046296296296296294],[0.24791666666666667,-0.046296296296296294],[0.16041666666666668,-0.046296296296296294],[0.134375,-0.04259259259259259],[0.10520833333333333,-0.024074074074074074],[0.08541666666666667,-0.014814814814814815],[0.06666666666666667,-0.005555555555555556],[0.04895833333333333,0.003703703703703704],[0.03229166666666667,0.005555555555555556],[0.017708333333333333,0.011111111111111112],[0.014583333333333334,0.011111111111111112],[0.013541666666666667,0.011111111111111112],[0.013541666666666667,0.011111111111111112],[0.013541666666666667,0.011111111111111112],[0.013541666666666667,0.011111111111111112],[0.0125,0.011111111111111112],[0.011458333333333333,0.014814814814814815],[0.008333333333333333,0.03148148148148148],[0.00625,0.06296296296296296],[0.003125,0.10740740740740741],[0.0020833333333333333,0.15185185185185185],[0.0020833333333333333,0.2037037037037037],[0.0020833333333333333,0.25555555555555554],[0.0020833333333333333,0.2851851851851852],[0.0020833333333333333,0.30185185185185187],[0.003125,0.3111111111111111],[0.003125,0.3148148148148148],[0.00625,0.32407407407407407],[0.007291666666666667,0.3277777777777778],[0.009375,0.3333333333333333],[0.010416666666666666,0.3351851851851852],[0.011458333333333333,0.3351851851851852],[0.011458333333333333,0.3351851851851852],[0.011458333333333333,0.3351851851851852],[0.011458333333333333,0.3351851851851852],[0.011458333333333333,0.3351851851851852],[0.011458333333333333,0.3351851851851852],[0.011458333333333333,0.3351851851851852],[0.011458333333333333,0.3351851851851852],[0.0125,0.3351851851851852],[0.017708333333333333,0.3277777777777778],[0.028125,0.3037037037037037],[0.05,0.26666666666666666],[0.06979166666666667,0.23333333333333334],[0.08645833333333333,0.1962962962962963],[0.10520833333333333,0.15185185185185185],[0.11770833333333333,0.11851851851851852],[0.125,0.08888888888888889],[0.12708333333333333,0.06666666666666667],[0.12708333333333333,0.04259259259259259],[0.128125,0.027777777777777776],[0.128125,0.016666666666666666],[0.128125,0.011111111111111112],[0.128125,0.009259259259259259],[0.128125,0.009259259259259259],[0.128125,0.009259259259259259],[0.128125,0.009259259259259259],[0.128125,0.009259259259259259],[0.128125,0.009259259259259259],[0.128125,0.009259259259259259],[0.128125,0.009259259259259259],[0.128125,0.009259259259259259],[0.128125,0.009259259259259259],[0.128125,0.009259259259259259],[0.128125,0.009259259259259259],[0.128125,0.009259259259259259],[0.128125,0.009259259259259259],[0.128125,0.009259259259259259],[0.128125,0.009259259259259259],[0.128125,0.009259259259259259],[0.128125,0.009259259259259259],[0.128125,0.009259259259259259],[0.128125,0.009259259259259259],[0.128125,0.009259259259259259],[0.128125,0.009259259259259259],[0.128125,0.009259259259259259],[0.128125,0.009259259259259259],[0.128125,0.009259259259259259],[0.128125,0.009259259259259259],[0.128125,0.009259259259259259],[0.128125,0.009259259259259259],[0.128125,0.009259259259259259],[0.128125,0.009259259259259259],[0.128125,0.009259259259259259],[0.128125,0.009259259259259259],[0.128125,0.009259259259259259],[0.128125,0.009259259259259259],[0.128125,0.009259259259259259],[0.128125,0.009259259259259259],[0.128125,0.009259259259259259],[0.128125,0.009259259259259259],[0.128125,0.009259259259259259],[0.128125,0.009259259259259259],[0.128125,0.007407407407407408]]","[[0.11833333333333323,0.4051851851851851],[0.11833333333333323,0.4051851851851851],[0.13010416666666677,0.39888888888888885],[0.12916666666666668,0.39018518518518525],[0.13145833333333337,0.38333333333333336],[0.13937499999999994,0.36648148148148146],[0.1474999999999999,0.3622222222222223],[0.14229166666666657,0.3394444444444444],[0.13614583333333338,0.3161111111111112],[0.13072916666666667,0.2948148148148149],[0.1040625000000001,0.255925925925926],[0.08020833333333334,0.2611111111111111],[0.05572916666666667,0.26592592592592595],[0.025833333333333285,0.23759259259259252],[0.024166666666666715,0.22111111111111106],[0.019687499999999976,0.2116666666666666],[0.015208333333333357,0.2022222222222223],[0.025416666666666643,0.20759259259259263],[0.03156249999999995,0.22870370370370371],[0.04125000000000002,0.25314814814814823],[0.04520833333333331,0.24722222222222223],[0.04520833333333331,0.24722222222222223],[0.035520833333333356,0.20999999999999996],[0.009583333333333381,0.19611111111111107],[0.0068750000000000235,0.22074074074074082],[-0.022604166666666713,0.19129629629629621],[-0.06072916666666662,0.16203703703703703],[-0.09729166666666664,0.15425925925925918],[-0.1171875,0.1388888888888889],[-0.15739583333333335,0.0955555555555556],[-0.20281250000000003,0.048333333333333374],[-0.21760416666666665,0.05722222222222218],[-0.23239583333333336,0.06611111111111119],[-0.25187499999999996,0.057037037037036956],[-0.2713541666666667,0.04796296296296292],[-0.2938541666666667,0.051111111111111156],[-0.3132291666666667,0.06074074074074066],[-0.32135416666666666,0.05962962962962971],[-0.34614583333333326,0.06611111111111119],[-0.3259375,0.06611111111111119],[-0.3237499999999999,0.07314814814814814],[-0.325,0.06944444444444445],[-0.2921875,0.07666666666666662],[-0.23843749999999997,0.07851851851851847],[-0.14156249999999998,0.10092592592592593],[-0.050937499999999976,0.14370370370370375],[0.025937499999999978,0.15648148148148147],[0.06895833333333339,0.16277777777777774],[0.11937499999999991,0.18925925925925935],[0.14697916666666658,0.2162962962962962],[0.18562500000000004,0.23425925925925925],[0.25197916666666675,0.23666666666666658],[0.2842708333333334,0.22814814814814824],[0.29708333333333337,0.22407407407407406],[0.2695833333333333,0.1985185185185186],[0.2671875,0.14666666666666675],[0.28125,0.12111111111111107],[0.3294791666666666,0.1111111111111111],[0.3703125,0.08092592592592601],[0.44114583333333335,0.05462962962962963],[0.4943749999999999,0.03981481481481482],[0.5146874999999999,0.06314814814814819],[0.5504166666666668,0.07962962962962963],[0.5804166666666667,0.09240740740740737],[0.6076041666666666,0.10611111111111103],[0.6067708333333334,0.14240740740740737],[0.6011458333333333,0.22074074074074082],[0.5566666666666668,0.2683333333333333],[0.5121875,0.31592592592592594],[0.46114583333333337,0.3905555555555555],[0.42770833333333325,0.4537037037037037],[0.40437500000000004,0.5203703703703704],[0.365625,0.593888888888889],[0.3321875000000001,0.640925925925926],[0.29874999999999996,0.687962962962963],[0.28187499999999993,0.7181481481481481],[0.26979166666666665,0.7062962962962962],[0.2759375000000001,0.7129629629629629],[0.2820833333333333,0.7196296296296296],[0.26458333333333334,0.6781481481481483],[0.24708333333333338,0.6366666666666666],[0.24968750000000003,0.5459259259259258],[0.24968750000000003,0.5459259259259258],[0.2522916666666667,0.4551851851851851],[0.29541666666666655,0.3801851851851851],[0.32177083333333345,0.33240740740740743],[0.34093749999999995,0.29611111111111105],[0.3696875000000001,0.24537037037037038],[0.40593750000000006,0.18703703703703703],[0.4421875,0.1287037037037037],[0.4775000000000001,0.12222222222222222],[0.5128125,0.11574074074074074],[0.5349999999999999,0.11333333333333341],[0.5533333333333333,0.10277777777777777],[0.5361458333333334,0.09462962962962967],[0.5597916666666668,0.01574074074074074],[0.5834374999999999,-0.06314814814814819],[0.5920833333333334,-0.09685185185185187],[0.6007291666666668,-0.13055555555555556],[0.6007291666666668,-0.18370370370370367],[0.6007291666666668,-0.18370370370370367],[0.6040625000000001,-0.25333333333333335],[0.6040625000000001,-0.25333333333333335],[0.6110416666666666,-0.2964814814814815],[0.6110416666666666,-0.2964814814814815],[0.6160416666666667,-0.3485185185185185],[0.6160416666666667,-0.3485185185185185],[0.6207291666666668,-0.3701851851851851],[0.6207291666666668,-0.3701851851851851],[0.6393749999999999,-0.3761111111111112],[0.6393749999999999,-0.3761111111111112],[0.6067708333333334,-0.3127777777777777],[0.5682291666666667,-0.205],[0.5351041666666667,-0.127962962962963],[0.5351041666666667,-0.127962962962963],[0.49020833333333325,-0.05592592592592591],[0.49020833333333325,-0.05592592592592591],[0.4704166666666666,0.030740740740740784],[0.4704166666666666,0.030740740740740784],[0.42510416666666656,0.1205555555555556],[0.42510416666666656,0.1205555555555556],[0.3696875000000001,0.19148148148148145],[0.3696875000000001,0.19148148148148145],[0.28718750000000004,0.28888888888888886],[0.20270833333333324,0.3594444444444445],[0.12687499999999996,0.402962962962963],[0.07822916666666657,0.4207407407407408],[0.020729166666666642,0.397037037037037],[-0.03677083333333329,0.37333333333333335],[-0.1046875,0.3574074074074074],[-0.1890625,0.34629629629629627],[-0.20833333333333334,0.31962962962962965],[-0.2211458333333333,0.2853703703703704],[-0.2267708333333334,0.2729629629629629],[-0.22625000000000003,0.26518518518518525],[-0.240625,0.26888888888888896],[-0.25499999999999995,0.27259259259259266],[-0.25458333333333333,0.2733333333333334],[-0.2257291666666667,0.26722222222222214],[-0.1842708333333333,0.27462962962962956],[-0.14750000000000002,0.27018518518518514],[-0.15031249999999996,0.27814814814814826],[-0.15031249999999996,0.27814814814814826],[-0.16822916666666668,0.27870370370370373],[-0.17291666666666666,0.26296296296296295],[-0.16843750000000005,0.23981481481481481],[-0.1486458333333334,0.22759259259259254],[-0.14958333333333335,0.21814814814814806],[-0.15052083333333333,0.20870370370370378],[-0.18395833333333336,0.1962962962962963],[-0.2078125,0.1675925925925926],[-0.20864583333333328,0.1574074074074074],[-0.20729166666666668,0.175],[-0.18697916666666667,0.17740740740740732],[-0.1701041666666666,0.17833333333333326],[-0.16843750000000005,0.18722222222222226],[-0.1748958333333333,0.1925925925925926],[-0.16375000000000003,0.2012962962962964],[-0.15552083333333327,0.202962962962963],[-0.13114583333333332,0.21055555555555563],[-0.10677083333333333,0.21814814814814806],[-0.10072916666666672,0.21907407407407398],[-0.109375,0.2064814814814815],[-0.121875,0.21648148148148144],[-0.1203125,0.23499999999999996],[-0.11677083333333335,0.2551851851851851],[-0.11322916666666671,0.27537037037037043],[-0.10281250000000004,0.27518518518518525],[-0.0811458333333333,0.2920370370370371],[-0.07927083333333336,0.3096296296296297],[-0.07739583333333329,0.3272222222222223],[-0.050729166666666714,0.34074074074074073],[-0.011562500000000024,0.34],[0.016458333333333287,0.32037037037037036],[0.030416666666666713,0.29222222222222216],[0.0821875000000001,0.2442592592592592],[0.1234375,0.2162962962962962],[0.13927083333333337,0.22981481481481486],[0.14677083333333343,0.23333333333333334],[0.19812500000000005,0.2442592592592592],[0.24947916666666667,0.2551851851851851],[0.2607291666666666,0.23777777777777773],[0.27197916666666655,0.22037037037037038],[0.33781249999999996,0.24388888888888896],[0.4036458333333333,0.26740740740740737],[0.36916666666666675,0.3081481481481481],[0.32687499999999997,0.3362962962962963],[0.30625,0.33722222222222226],[0.28489583333333335,0.3277777777777778],[0.23114583333333344,0.3077777777777779],[0.17739583333333328,0.28777777777777774],[0.1492708333333333,0.3146296296296296],[0.12114583333333329,0.34148148148148144],[0.03093750000000005,0.33499999999999996],[-0.05927083333333331,0.3285185185185185],[-0.07854166666666665,0.35407407407407415],[-0.08145833333333338,0.37037037037037035],[-0.09718749999999995,0.37185185185185177],[-0.11364583333333336,0.38425925925925924],[-0.12208333333333338,0.4014814814814814],[-0.13052083333333328,0.41870370370370374],[-0.15499999999999994,0.4485185185185186],[-0.1794791666666666,0.4783333333333332],[-0.18354166666666671,0.4992592592592593],[-0.1953125,0.5270370370370371],[-0.20354166666666665,0.5307407407407407],[-0.20979166666666665,0.5362962962962964],[-0.20979166666666665,0.5362962962962964],[-0.22072916666666664,0.5272222222222223],[-0.2326041666666666,0.5407407407407407],[-0.25625,0.5557407407407408],[-0.2798958333333334,0.5707407407407408],[-0.3078125,0.5574074074074075],[-0.33572916666666663,0.544074074074074],[-0.36447916666666663,0.5512962962962964],[-0.3923958333333334,0.5449999999999999],[-0.41052083333333333,0.532037037037037],[-0.4422916666666667,0.5196296296296297],[-0.4565624999999999,0.5366666666666666],[-0.46739583333333334,0.5068518518518519],[-0.4782291666666667,0.4770370370370371],[-0.4670833333333333,0.4764814814814814],[-0.44593750000000004,0.4772222222222223],[-0.45114583333333336,0.4553703703703703],[-0.45729166666666665,0.4331481481481481],[-0.4311458333333333,0.41333333333333344],[-0.4227083333333333,0.3925925925925926],[-0.40270833333333333,0.362962962962963],[-0.3827083333333333,0.3333333333333333],[-0.35989583333333336,0.3303703703703703],[-0.33708333333333335,0.3274074074074073],[-0.34822916666666665,0.302962962962963],[-0.34822916666666665,0.302962962962963],[-0.359375,0.2785185185185185],[-0.359375,0.2785185185185185],[-0.36291666666666667,0.26703703703703713],[-0.36291666666666667,0.26703703703703713],[-0.3603125,0.28722222222222227],[-0.380625,0.3066666666666667],[-0.380625,0.3066666666666667],[-0.34708333333333335,0.3205555555555556],[-0.34708333333333335,0.3205555555555556],[-0.30708333333333326,0.3374074074074075],[-0.30708333333333326,0.3374074074074075],[-0.2856250000000001,0.3362962962962963],[-0.2856250000000001,0.3362962962962963],[-0.26458333333333334,0.33425925925925926],[-0.26458333333333334,0.33425925925925926],[-0.19572916666666665,0.3396296296296296],[-0.19572916666666665,0.3396296296296296],[-0.10249999999999998,0.33425925925925926],[-0.10249999999999998,0.33425925925925926],[0.013125000000000024,0.3164814814814814],[0.10489583333333338,0.32888888888888895],[0.10489583333333338,0.32888888888888895],[0.1931250000000001,0.331111111111111],[0.26291666666666674,0.30481481481481487],[0.2775000000000001,0.33777777777777773],[0.2978125000000001,0.3566666666666667],[0.33229166666666665,0.41203703703703703],[0.38468749999999996,0.45759259259259266],[0.38468749999999996,0.45759259259259266],[0.3892708333333334,0.4957407407407408],[0.3664583333333333,0.531111111111111],[0.32750000000000007,0.5775925925925925],[0.32447916666666665,0.6096296296296297],[0.31885416666666655,0.6201851851851852],[0.3304166666666667,0.6898148148148148],[0.32020833333333343,0.6481481481481481],[0.29625000000000007,0.6092592592592593],[0.27666666666666656,0.5518518518518518],[0.240625,0.5088888888888888],[0.20458333333333342,0.46592592592592597],[0.1921875,0.41999999999999993],[0.18864583333333323,0.3464814814814815],[0.1805208333333333,0.2759259259259259],[0.17770833333333325,0.21796296296296305],[0.18354166666666671,0.10407407407407415],[0.21427083333333338,0.08666666666666659],[0.24552083333333338,0.0772222222222223],[0.27677083333333335,0.06777777777777783],[0.303125,0.051666666666666625],[0.36218750000000005,0.03740740740740749],[0.41260416666666655,0.03185185185185194],[0.4036458333333333,0.058333333333333334],[0.4579166666666666,0.09370370370370375],[0.4908333333333334,0.09314814814814806],[0.4561458333333334,0.20777777777777787],[0.4196875000000001,0.28351851851851856],[0.47114583333333326,0.3153703703703703],[0.5226041666666668,0.3472222222222222],[0.5064583333333333,0.36944444444444446],[0.45760416666666665,0.38981481481481484],[0.4228125000000001,0.4257407407407407],[0.43385416666666665,0.4257407407407407],[0.3754166666666668,0.42296296296296293],[0.3754166666666668,0.42296296296296293],[0.3277083333333332,0.4192592592592592],[0.3485416666666666,0.337037037037037],[0.3478125000000001,0.24314814814814806],[0.26437499999999997,0.2024074074074073],[0.19364583333333343,0.16666666666666666],[0.19052083333333342,0.14055555555555552],[0.17020833333333343,0.10555555555555556],[0.13677083333333329,0.05814814814814811],[0.10177083333333338,0.04351851851851852],[0.075,0.034444444444444486],[0.05354166666666664,0.049629629629629544],[0.05354166666666664,0.049629629629629544],[0.03250000000000005,0.010925925925925884],[0.0625,0.010185185185185186],[0.07208333333333337,0.012777777777777735],[0.05489583333333338,-0.002407407407407323],[0.043958333333333384,-0.06314814814814819],[0.05020833333333338,-0.11500000000000005],[0.06333333333333328,-0.15629629629629627],[0.06229166666666662,-0.18370370370370367],[0.0884375000000001,-0.22962962962962963],[0.11458333333333333,-0.27555555555555555],[0.1015625,-0.27870370370370373],[0.059062500000000046,-0.3081481481481481],[0.059062500000000046,-0.3081481481481481],[0.03937499999999995,-0.34092592592592597],[0.023958333333333335,-0.3816666666666667],[0.002291666666666714,-0.3768518518518518],[0.01552083333333331,-0.34870370370370374],[0.020937500000000022,-0.33425925925925926],[0.019583333333333286,-0.32611111111111113],[0.0003124999999999526,-0.32018518518518513],[-0.01895833333333338,-0.31425925925925924],[0.009687499999999953,-0.29814814814814816],[0.03833333333333329,-0.28203703703703703],[0.0359375,-0.3087037037037037],[0.05572916666666667,-0.3072222222222222],[0.07552083333333333,-0.30574074074074076],[0.060104166666666715,-0.31851851851851853],[0.04718749999999995,-0.3138888888888889],[0.03229166666666667,-0.3359259259259259],[0.01739583333333338,-0.357962962962963],[0.01739583333333338,-0.357962962962963],[0.02645833333333331,-0.36629629629629634],[-0.0012500000000000473,-0.3811111111111111],[-0.028958333333333287,-0.39592592592592596],[-0.04354166666666662,-0.3768518518518518],[-0.05499999999999995,-0.34203703703703703],[-0.07124999999999998,-0.3098148148148148],[-0.06062500000000005,-0.2718518518518519],[-0.07604166666666666,-0.26351851851851854],[-0.06854166666666663,-0.2361111111111111],[-0.07687499999999996,-0.2140740740740741],[-0.10854166666666672,-0.20277777777777778],[-0.10052083333333334,-0.17685185185185184],[-0.08416666666666663,-0.14444444444444443],[-0.05437500000000005,-0.1037037037037037],[-0.03260416666666662,-0.06629629629629631],[-0.02302083333333336,-0.040740740740740744],[-0.05541666666666671,-0.052962962962963],[-0.04572916666666664,-0.024074074074074074],[-0.03604166666666669,0.004814814814814857],[-0.013229166666666714,0.04611111111111107],[0.008958333333333356,0.08444444444444449],[0.02052083333333338,0.06425925925925935],[0.02374999999999995,0.03759259259259251],[0.003125,0.005555555555555556],[0.003125,0.005555555555555556],[-0.016562499999999977,-0.039074074074074115],[-0.016562499999999977,-0.039074074074074115],[-0.01572916666666669,-0.10907407407407403],[-0.01572916666666669,-0.10907407407407403],[0.0014583333333333095,-0.12370370370370372],[0.018020833333333285,-0.147037037037037],[-0.0034374999999999527,-0.17703703703703708],[-0.0034374999999999527,-0.17703703703703708],[-0.024791666666666618,-0.21240740740740738],[-0.024791666666666618,-0.21240740740740738],[-0.02333333333333331,-0.2531481481481481],[-0.05239583333333329,-0.2455555555555556],[-0.08145833333333338,-0.23796296296296296],[-0.09375,-0.22240740740740744],[-0.09333333333333335,-0.19240740740740736],[-0.08645833333333333,-0.12462962962962965],[-0.07489583333333331,-0.09314814814814817],[-0.09541666666666669,-0.127962962962963],[-0.10864583333333329,-0.13185185185185183],[-0.11927083333333334,-0.1374074074074074],[-0.16000000000000003,-0.14296296296296293]]","[[0.11833333333333323,0.4051851851851851,0.00020000000111508598],[0.11833333333333323,0.4051851851851851,0.03999999999999915],[0.13010416666666677,0.39888888888888885,0.04730000000074597],[0.12916666666666668,0.39018518518518525,0.062099999999624345],[0.13145833333333337,0.38333333333333336,0.07859999999962497],[0.13937499999999994,0.36648148148148146,0.09530000000074068],[0.1474999999999999,0.3622222222222223,0.11199999999999477],[0.14229166666666657,0.3394444444444444,0.12890000000037105],[0.13614583333333338,0.3161111111111112,0.14530000000074494],[0.13072916666666667,0.2948148148148149,0.16209999999962577],[0.1040625000000001,0.255925925925926,0.17880000000074148],[0.08020833333333334,0.2611111111111111,0.1953000000007421],[0.05572916666666667,0.26592592592592595,0.2119999999999962],[0.025833333333333285,0.23759259259259252,0.22890000000037247],[0.024166666666666715,0.22111111111111106,0.24530000000073926],[0.019687499999999976,0.2116666666666666,0.26200000000000045],[0.015208333333333357,0.2022222222222223,0.2785999999996278],[0.025416666666666643,0.20759259259259263,0.2953000000007435],[0.03156249999999995,0.22870370370370371,0.31209999999962434],[0.04125000000000002,0.25314814814814823,0.3287000000011133],[0.04520833333333331,0.24722222222222223,0.345599999999628],[0.04520833333333331,0.24722222222222223,0.36220000000111696],[0.035520833333333356,0.20999999999999996,0.3788000000007443],[0.009583333333333381,0.19611111111111107,0.3957000000011135],[0.0068750000000000235,0.22074074074074082,0.41209999999962577],[-0.022604166666666713,0.19129629629629621,0.4288000000007415],[-0.06072916666666662,0.16203703703703703,0.44840000000036895],[-0.09729166666666664,0.15425925925925918,0.4619999999999962],[-0.1171875,0.1388888888888889,0.47859999999962355],[-0.15739583333333335,0.0955555555555556,0.49530000000073926],[-0.20281250000000003,0.048333333333333374,0.5120000000000005],[-0.21760416666666665,0.05722222222222218,0.5288000000007429],[-0.23239583333333336,0.06611111111111119,0.5453000000007435],[-0.25187499999999996,0.057037037037036956,0.5619999999999976],[-0.2713541666666667,0.04796296296296292,0.5788000000007401],[-0.2938541666666667,0.051111111111111156,0.5954000000003674],[-0.3132291666666667,0.06074074074074066,0.6153000000007438],[-0.32135416666666666,0.05962962962962971,0.6314000000003688],[-0.34614583333333326,0.06611111111111119,0.6453000000007449],[-0.3259375,0.06611111111111119,0.6619000000003723],[-0.3237499999999999,0.07314814814814814,0.6785999999996264],[-0.325,0.06944444444444445,0.6953000000007421],[-0.2921875,0.07666666666666662,0.7119999999999962],[-0.23843749999999997,0.07851851851851847,0.7287000000011119],[-0.14156249999999998,0.10092592592592593,0.7454999999999998],[-0.050937499999999976,0.14370370370370375,0.7620000000000005],[0.025937499999999978,0.15648148148148147,0.7787000000011162],[0.06895833333333339,0.16277777777777774,0.7958000000007459],[0.11937499999999991,0.18925925925925935,0.8119999999999976],[0.14697916666666658,0.2162962962962962,0.8315999999996251],[0.18562500000000004,0.23425925925925925,0.8454000000003674],[0.25197916666666675,0.23666666666666658,0.8619999999999948],[0.2842708333333334,0.22814814814814824,0.8787000000011176],[0.29708333333333337,0.22407407407407406,0.8953000000007449],[0.2695833333333333,0.1985185185185186,0.911999999999999],[0.2671875,0.14666666666666675,0.9289000000003682],[0.28125,0.12111111111111107,0.9453000000007421],[0.3294791666666666,0.1111111111111111,0.9619999999999962],[0.3703125,0.08092592592592601,0.9787000000011119],[0.44114583333333335,0.05462962962962963,0.9953000000007393],[0.4943749999999999,0.03981481481481482,1.0120000000000005],[0.5146874999999999,0.06314814814814819,1.028800000000743],[0.5504166666666668,0.07962962962962963,1.0453000000007435],[0.5804166666666667,0.09240740740740737,1.0622000000011127],[0.6076041666666666,0.10611111111111103,1.078599999999625],[0.6067708333333334,0.14240740740740737,1.0954000000003674],[0.6011458333333333,0.22074074074074082,1.1119999999999948],[0.5566666666666668,0.2683333333333333,1.1309000000003735],[0.5121875,0.31592592592592594,1.1454000000003717],[0.46114583333333337,0.3905555555555555,1.1622000000011141],[0.42770833333333325,0.4537037037037037,1.1785999999996264],[0.40437500000000004,0.5203703703703704,1.195300000000742],[0.365625,0.593888888888889,1.2119999999999962],[0.3321875000000001,0.640925925925926,1.2314000000003702],[0.29874999999999996,0.687962962962963,1.245400000000373],[0.28187499999999993,0.7181481481481481,1.2639999999999958],[0.26979166666666665,0.7062962962962962,1.2787000000011162],[0.2759375000000001,0.7129629629629629,1.2953000000007435],[0.2820833333333333,0.7196296296296296,1.3119999999999976],[0.26458333333333334,0.6781481481481483,1.3287000000011133],[0.24708333333333338,0.6366666666666666,1.3457000000011163],[0.24968750000000003,0.5459259259259258,1.3653000000007438],[0.24968750000000003,0.5459259259259258,1.3787000000011176],[0.2522916666666667,0.4551851851851851,1.3954000000003717],[0.29541666666666655,0.3801851851851851,1.411999999999999],[0.32177083333333345,0.33240740740740743,1.4288000000007415],[0.34093749999999995,0.29611111111111105,1.445300000000742],[0.3696875000000001,0.24537037037037038,1.4619999999999962],[0.40593750000000006,0.18703703703703703,1.4785999999996235],[0.4421875,0.1287037037037037,1.4954999999999998],[0.4775000000000001,0.12222222222222222,1.5120000000000005],[0.5128125,0.11574074074074074,1.5287000000011162],[0.5349999999999999,0.11333333333333341,1.545700000001112],[0.5533333333333333,0.10277777777777777,1.564],[0.5361458333333334,0.09462962962962967,1.5787000000011133],[0.5597916666666668,0.01574074074074074,1.5954000000003674],[0.5834374999999999,-0.06314814814814819,1.6119999999999948],[0.5920833333333334,-0.09685185185185187,1.6287000000011176],[0.6007291666666668,-0.13055555555555556,1.645300000000745],[0.6007291666666668,-0.18370370370370367,1.6620999999996258],[0.6007291666666668,-0.18370370370370367,1.6787000000011147],[0.6040625000000001,-0.25333333333333335,1.695300000000742],[0.6040625000000001,-0.25333333333333335,1.7119999999999962],[0.6110416666666666,-0.2964814814814815,1.7288000000007457],[0.6110416666666666,-0.2964814814814815,1.745400000000373],[0.6160416666666667,-0.3485185185185185,1.7620999999996272],[0.6160416666666667,-0.3485185185185185,1.7787000000011162],[0.6207291666666668,-0.3701851851851851,1.795499999999997],[0.6207291666666668,-0.3701851851851851,1.8119999999999976],[0.6393749999999999,-0.3761111111111112,1.82880000000074],[0.6393749999999999,-0.3761111111111112,1.8453000000007407],[0.6067708333333334,-0.3127777777777777,1.8619999999999948],[0.5682291666666667,-0.205,1.8785999999996221],[0.5351041666666667,-0.127962962962963,1.8990999999996276],[0.5351041666666667,-0.127962962962963,1.911999999999999],[0.49020833333333325,-0.05592592592592591,1.9288000000007415],[0.49020833333333325,-0.05592592592592591,1.9454000000003688],[0.4704166666666666,0.030740740740740784,1.9619999999999962],[0.4704166666666666,0.030740740740740784,1.9789000000003725],[0.42510416666666656,0.1205555555555556,1.9953000000007393],[0.42510416666666656,0.1205555555555556,2.0120000000000005],[0.3696875000000001,0.19148148148148145,2.028800000000743],[0.3696875000000001,0.19148148148148145,2.0453000000007435],[0.28718750000000004,0.28888888888888886,2.0619999999999976],[0.20270833333333324,0.3594444444444445,2.0787000000011133],[0.12687499999999996,0.402962962962963,2.0953000000007407],[0.07822916666666657,0.4207407407407408,2.1119999999999948],[0.020729166666666642,0.397037037037037,2.131300000000742],[-0.03677083333333329,0.37333333333333335,2.1454000000003717],[-0.1046875,0.3574074074074074,2.161999999999999],[-0.1890625,0.34629629629629627,2.1788000000007415],[-0.20833333333333334,0.31962962962962965,2.195400000000369],[-0.2211458333333333,0.2853703703703704,2.211999999999996],[-0.2267708333333334,0.2729629629629629,2.228999999999999],[-0.22625000000000003,0.26518518518518525,2.2453000000007393],[-0.240625,0.26888888888888896,2.2620000000000005],[-0.25499999999999995,0.27259259259259266,2.278700000001116],[-0.25458333333333333,0.2733333333333334,2.2953000000007435],[-0.2257291666666667,0.26722222222222214,2.3119999999999976],[-0.1842708333333333,0.27462962962962956,2.3290000000000006],[-0.14750000000000002,0.27018518518518514,2.3459999999999965],[-0.15031249999999996,0.27814814814814826,2.364099999999624],[-0.15031249999999996,0.27814814814814826,2.3788000000007443],[-0.16822916666666668,0.27870370370370373,2.395300000000745],[-0.17291666666666666,0.26296296296296295,2.4124000000003676],[-0.16843750000000005,0.23981481481481481,2.429300000000744],[-0.1486458333333334,0.22759259259259254,2.445300000000742],[-0.14958333333333335,0.21814814814814806,2.461999999999996],[-0.15052083333333333,0.20870370370370378,2.478700000001112],[-0.18395833333333336,0.1962962962962963,2.4953000000007393],[-0.2078125,0.1675925925925926,2.5120000000000005],[-0.20864583333333328,0.1574074074074074,2.528800000000743],[-0.20729166666666668,0.175,2.545200000001117],[-0.18697916666666667,0.17740740740740732,2.5619999999999976],[-0.1701041666666666,0.17833333333333326,2.5787000000011133],[-0.16843750000000005,0.18722222222222226,2.5954000000003674],[-0.1748958333333333,0.1925925925925926,2.611900000000368],[-0.16375000000000003,0.2012962962962964,2.6287000000011176],[-0.15552083333333327,0.202962962962963,2.645300000000745],[-0.13114583333333332,0.21055555555555563,2.6619000000003723],[-0.10677083333333333,0.21814814814814806,2.6785999999996264],[-0.10072916666666672,0.21907407407407398,2.695300000000742],[-0.109375,0.2064814814814815,2.7119000000003695],[-0.121875,0.21648148148148144,2.7285999999996235],[-0.1203125,0.23499999999999996,2.745400000000373],[-0.11677083333333335,0.2551851851851851,2.763999999999996],[-0.11322916666666671,0.27537037037037043,2.778700000001116],[-0.10281250000000004,0.27518518518518525,2.7955999999996237],[-0.0811458333333333,0.2920370370370371,2.8120999999996243],[-0.07927083333333336,0.3096296296296297,2.82880000000074],[-0.07739583333333329,0.3272222222222223,2.845200000001114],[-0.050729166666666714,0.34074074074074073,2.8619999999999948],[-0.011562500000000024,0.34,2.8787000000011176],[0.016458333333333287,0.32037037037037036,2.895300000000745],[0.030416666666666713,0.29222222222222216,2.911999999999999],[0.0821875000000001,0.2442592592592592,2.9287000000011147],[0.1234375,0.2162962962962962,2.9473000000007445],[0.13927083333333337,0.22981481481481486,2.961999999999996],[0.14677083333333343,0.23333333333333334,2.978700000001112],[0.19812500000000005,0.2442592592592592,2.995400000000373],[0.24947916666666667,0.2551851851851851,3.0152000000011157],[0.2607291666666666,0.23777777777777773,3.0310999999996255],[0.27197916666666655,0.22037037037037038,3.0453000000007435],[0.33781249999999996,0.24388888888888896,3.0619999999999976],[0.4036458333333333,0.26740740740740737,3.080999999999996],[0.36916666666666675,0.3081481481481481,3.0954000000003674],[0.32687499999999997,0.3362962962962963,3.1124000000003704],[0.30625,0.33722222222222226,3.131900000000371],[0.28489583333333335,0.3277777777777778,3.1473000000007403],[0.23114583333333344,0.3077777777777779,3.162200000001114],[0.17739583333333328,0.28777777777777774,3.1785999999996264],[0.1492708333333333,0.3146296296296296,3.1954999999999956],[0.12114583333333329,0.34148148148148144,3.211999999999996],[0.03093750000000005,0.33499999999999996,3.2312000000011167],[-0.05927083333333331,0.3285185185185185,3.2474000000003684],[-0.07854166666666665,0.35407407407407415,3.2620000000000005],[-0.08145833333333338,0.37037037037037035,3.278599999999628],[-0.09718749999999995,0.37185185185185177,3.2953000000007435],[-0.11364583333333336,0.38425925925925924,3.311900000000371],[-0.12208333333333338,0.4014814814814814,3.3287000000011133],[-0.13052083333333328,0.41870370370370374,3.345599999999628],[-0.15499999999999994,0.4485185185185186,3.3645999999996263],[-0.1794791666666666,0.4783333333333332,3.3790999999996245],[-0.18354166666666671,0.4992592592592593,3.395300000000745],[-0.1953125,0.5270370370370371,3.4154999999999944],[-0.20354166666666665,0.5307407407407407,3.4312000000011125],[-0.20979166666666665,0.5362962962962964,3.4497000000011155],[-0.20979166666666665,0.5362962962962964,3.4674000000003673],[-0.22072916666666664,0.5272222222222223,3.4829000000003703],[-0.2326041666666666,0.5407407407407407,3.498400000000373],[-0.25625,0.5557407407407408,3.5120000000000005],[-0.2798958333333334,0.5707407407407408,3.528700000001116],[-0.3078125,0.5574074074074075,3.5453000000007435],[-0.33572916666666663,0.544074074074074,3.5619999999999976],[-0.36447916666666663,0.5512962962962964,3.578599999999625],[-0.3923958333333334,0.5449999999999999,3.5972000000011164],[-0.41052083333333333,0.532037037037037,3.6147000000011147],[-0.4422916666666667,0.5196296296296297,3.6312000000011153],[-0.4565624999999999,0.5366666666666666,3.645300000000745],[-0.46739583333333334,0.5068518518518519,3.6619000000003723],[-0.4782291666666667,0.4770370370370371,3.681700000001115],[-0.4670833333333333,0.4764814814814814,3.6965000000000003],[-0.44593750000000004,0.4772222222222223,3.7119000000003695],[-0.45114583333333336,0.4553703703703703,3.7289000000003725],[-0.45729166666666665,0.4331481481481481,3.7453000000007393],[-0.4311458333333333,0.41333333333333344,3.7619000000003666],[-0.4227083333333333,0.3925925925925926,3.778599999999628],[-0.40270833333333333,0.362962962962963,3.795200000001117],[-0.3827083333333333,0.3333333333333333,3.811900000000371],[-0.35989583333333336,0.3303703703703703,3.8287000000011133],[-0.33708333333333335,0.3274074074074073,3.8453000000007407],[-0.34822916666666665,0.302962962962963,3.8619999999999948],[-0.34822916666666665,0.302962962962963,3.878599999999622],[-0.359375,0.2785185185185185,3.895300000000745],[-0.359375,0.2785185185185185,3.9120999999996258],[-0.36291666666666667,0.26703703703703713,3.9287000000011147],[-0.36291666666666667,0.26703703703703713,3.945300000000742],[-0.3603125,0.28722222222222227,3.961999999999996],[-0.380625,0.3066666666666667,3.978700000001112],[-0.380625,0.3066666666666667,3.9953000000007393],[-0.34708333333333335,0.3205555555555556,4.011900000000367],[-0.34708333333333335,0.3205555555555556,4.028700000001116],[-0.30708333333333326,0.3374074074074075,4.0453000000007435],[-0.30708333333333326,0.3374074074074075,4.061999999999998],[-0.2856250000000001,0.3362962962962963,4.078700000001113],[-0.2856250000000001,0.3362962962962963,4.095300000000741],[-0.26458333333333334,0.33425925925925926,4.111999999999995],[-0.26458333333333334,0.33425925925925926,4.128700000001118],[-0.19572916666666665,0.3396296296296296,4.145300000000745],[-0.19572916666666665,0.3396296296296296,4.161900000000372],[-0.10249999999999998,0.33425925925925926,4.178599999999626],[-0.10249999999999998,0.33425925925925926,4.195300000000742],[0.013125000000000024,0.3164814814814814,4.211999999999996],[0.10489583333333338,0.32888888888888895,4.233900000000368],[0.10489583333333338,0.32888888888888895,4.245300000000739],[0.1931250000000001,0.331111111111111,4.2620000000000005],[0.26291666666666674,0.30481481481481487,4.278599999999628],[0.2775000000000001,0.33777777777777773,4.2953000000007435],[0.2978125000000001,0.3566666666666667,4.311999999999998],[0.33229166666666665,0.41203703703703703,4.328700000001113],[0.38468749999999996,0.45759259259259266,4.345700000001116],[0.38468749999999996,0.45759259259259266,4.361999999999995],[0.3892708333333334,0.4957407407407408,4.378900000000371],[0.3664583333333333,0.531111111111111,4.395499999999998],[0.32750000000000007,0.5775925925925925,4.411999999999999],[0.32447916666666665,0.6096296296296297,4.4315],[0.31885416666666655,0.6201851851851852,4.4458000000007445],[0.3304166666666667,0.6898148148148148,4.464500000000001],[0.32020833333333343,0.6481481481481481,4.480200000001112],[0.29625000000000007,0.6092592592592593,4.495400000000373],[0.27666666666666656,0.5518518518518518,4.515099999999627],[0.240625,0.5088888888888888,4.530700000001119],[0.20458333333333342,0.46592592592592597,4.54540000000037],[0.1921875,0.41999999999999993,4.562099999999624],[0.18864583333333323,0.3464814814814815,4.5820999999996275],[0.1805208333333333,0.2759259259259259,4.596800000000741],[0.17770833333333325,0.21796296296296305,4.612099999999629],[0.18354166666666671,0.10407407407407415,4.631200000001115],[0.21427083333333338,0.08666666666666659,4.645499999999998],[0.24552083333333338,0.0772222222222223,4.662099999999626],[0.27677083333333335,0.06777777777777783,4.678700000001115],[0.303125,0.051666666666666625,4.695300000000742],[0.36218750000000005,0.03740740740740749,4.711999999999996],[0.41260416666666655,0.03185185185185194,4.728700000001112],[0.4036458333333333,0.058333333333333334,4.745300000000739],[0.4579166666666666,0.09370370370370375,4.763999999999996],[0.4908333333333334,0.09314814814814806,4.778800000000743],[0.4561458333333334,0.20777777777777787,4.795499999999997],[0.4196875000000001,0.28351851851851856,4.814499999999995],[0.47114583333333326,0.3153703703703703,4.831700000001113],[0.5226041666666668,0.3472222222222222,4.845499999999994],[0.5064583333333333,0.36944444444444446,4.861999999999995],[0.45760416666666665,0.38981481481481484,4.882800000000742],[0.4228125000000001,0.4257407407407407,4.896700000001118],[0.43385416666666665,0.4257407407407407,4.912099999999626],[0.3754166666666668,0.42296296296296293,4.9315999999996265],[0.3754166666666668,0.42296296296296293,4.945499999999996],[0.3277083333333332,0.4192592592592592,4.962200000001118],[0.3485416666666666,0.337037037037037,4.978800000000746],[0.3478125000000001,0.24314814814814806,4.997499999999995],[0.26437499999999997,0.2024074074074073,5.0120000000000005],[0.19364583333333343,0.16666666666666666,5.030800000000745],[0.19052083333333342,0.14055555555555552,5.04540000000037],[0.17020833333333343,0.10555555555555556,5.064400000000369],[0.13677083333333329,0.05814814814814811,5.078599999999625],[0.10177083333333338,0.04351851851851852,5.095300000000741],[0.075,0.034444444444444486,5.111999999999995],[0.05354166666666664,0.049629629629629544,5.131800000000744],[0.05354166666666664,0.049629629629629544,5.145300000000745],[0.03250000000000005,0.010925925925925884,5.162099999999626],[0.0625,0.010185185185185186,5.178900000000368],[0.07208333333333337,0.012777777777777735,5.197700000001113],[0.05489583333333338,-0.002407407407407323,5.212300000000745],[0.043958333333333384,-0.06314814814814819,5.229400000000368],[0.05020833333333338,-0.11500000000000005,5.245400000000373],[0.06333333333333328,-0.15629629629629627,5.264300000000745],[0.06229166666666662,-0.18370370370370367,5.278800000000743],[0.0884375000000001,-0.22962962962962963,5.295499999999997],[0.11458333333333333,-0.27555555555555555,5.315400000000373],[0.1015625,-0.27870370370370373,5.33180000000074],[0.059062500000000046,-0.3081481481481481,5.3478000000007455],[0.059062500000000046,-0.3081481481481481,5.365499999999997],[0.03937499999999995,-0.34092592592592597,5.378800000000744],[0.023958333333333335,-0.3816666666666667,5.395499999999998],[0.002291666666666714,-0.3768518518518518,5.411999999999999],[0.01552083333333331,-0.34870370370370374,5.4312000000011125],[0.020937500000000022,-0.33425925925925926,5.445200000001115],[0.019583333333333286,-0.32611111111111113,5.461999999999996],[0.0003124999999999526,-0.32018518518518513,5.4785999999996235],[-0.01895833333333338,-0.31425925925925924,5.4952000000011125],[0.009687499999999953,-0.29814814814814816,5.5120000000000005],[0.03833333333333329,-0.28203703703703703,5.53190000000037],[0.0359375,-0.3087037037037037,5.545999999999999],[0.05572916666666667,-0.3072222222222222,5.563599999999624],[0.07552083333333333,-0.30574074074074076,5.57880000000074],[0.060104166666666715,-0.31851851851851853,5.598499999999994],[0.04718749999999995,-0.3138888888888889,5.612099999999629],[0.03229166666666667,-0.3359259259259259,5.631200000001115],[0.01739583333333338,-0.357962962962963,5.649999999999999],[0.01739583333333338,-0.357962962962963,5.662099999999626],[0.02645833333333331,-0.36629629629629634,5.6788000000007415],[-0.0012500000000000473,-0.3811111111111111,5.695400000000369],[-0.028958333333333287,-0.39592592592592596,5.7152000000011185],[-0.04354166666666662,-0.3768518518518518,5.730599999999626],[-0.05499999999999995,-0.34203703703703703,5.747499999999995],[-0.07124999999999998,-0.3098148148148148,5.765499999999996],[-0.06062500000000005,-0.2718518518518519,5.780599999999623],[-0.07604166666666666,-0.26351851851851854,5.795200000001117],[-0.06854166666666663,-0.2361111111111111,5.811999999999998],[-0.07687499999999996,-0.2140740740740741,5.828599999999625],[-0.10854166666666672,-0.20277777777777778,5.845300000000741],[-0.10052083333333334,-0.17685185185185184,5.861900000000368],[-0.08416666666666663,-0.14444444444444443,5.878599999999622],[-0.05437500000000005,-0.1037037037037037,5.895200000001118],[-0.03260416666666662,-0.06629629629629631,5.911900000000372],[-0.02302083333333336,-0.040740740740740744,5.928700000001115],[-0.05541666666666671,-0.052962962962963,5.945200000001115],[-0.04572916666666664,-0.024074074074074074,5.9619000000003695],[-0.03604166666666669,0.004814814814814857,5.982200000001114],[-0.013229166666666714,0.04611111111111107,5.997200000001115],[0.008958333333333356,0.08444444444444449,6.0120000000000005],[0.02052083333333338,0.06425925925925935,6.030999999999999],[0.02374999999999995,0.03759259259259251,6.045200000001117],[0.003125,0.005555555555555556,6.061900000000371],[0.003125,0.005555555555555556,6.078599999999625],[-0.016562499999999977,-0.039074074074074115,6.095300000000741],[-0.016562499999999977,-0.039074074074074115,6.111900000000368],[-0.01572916666666669,-0.10907407407407403,6.128700000001118],[-0.01572916666666669,-0.10907407407407403,6.145300000000745],[0.0014583333333333095,-0.12370370370370372,6.161900000000372],[0.018020833333333285,-0.147037037037037,6.1839999999999975],[-0.0034374999999999527,-0.17703703703703708,6.199999999999996],[-0.0034374999999999527,-0.17703703703703708,6.2119000000003695],[-0.024791666666666618,-0.21240740740740738,6.2285999999996235],[-0.024791666666666618,-0.21240740740740738,6.2452000000011125],[-0.02333333333333331,-0.2531481481481481,6.261900000000367],[-0.05239583333333329,-0.2455555555555556,6.278599999999628],[-0.08145833333333338,-0.23796296296296296,6.295200000001117],[-0.09375,-0.22240740740740744,6.311900000000371],[-0.09333333333333335,-0.19240740740740736,6.329000000000001],[-0.08645833333333333,-0.12462962962962965,6.3459999999999965],[-0.07489583333333331,-0.09314814814814817,6.364700000001115],[-0.09541666666666669,-0.127962962962963,6.380700000001113],[-0.10864583333333329,-0.13185185185185183,6.396599999999623],[-0.11927083333333334,-0.1374074074074074,6.411900000000372],[-0.16000000000000003,-0.14296296296296293,6.432099999999622]]","[0.00020000000111508598,0.03999999999999915,0.04730000000074597,0.062099999999624345,0.07859999999962497,0.09530000000074068,0.11199999999999477,0.12890000000037105,0.14530000000074494,0.16209999999962577,0.17880000000074148,0.1953000000007421,0.2119999999999962,0.22890000000037247,0.24530000000073926,0.26200000000000045,0.2785999999996278,0.2953000000007435,0.31209999999962434,0.3287000000011133,0.345599999999628,0.36220000000111696,0.3788000000007443,0.3957000000011135,0.41209999999962577,0.4288000000007415,0.44840000000036895,0.4619999999999962,0.47859999999962355,0.49530000000073926,0.5120000000000005,0.5288000000007429,0.5453000000007435,0.5619999999999976,0.5788000000007401,0.5954000000003674,0.6153000000007438,0.6314000000003688,0.6453000000007449,0.6619000000003723,0.6785999999996264,0.6953000000007421,0.7119999999999962,0.7287000000011119,0.7454999999999998,0.7620000000000005,0.7787000000011162,0.7958000000007459,0.8119999999999976,0.8315999999996251,0.8454000000003674,0.8619999999999948,0.8787000000011176,0.8953000000007449,0.911999999999999,0.9289000000003682,0.9453000000007421,0.9619999999999962,0.9787000000011119,0.9953000000007393,1.0120000000000005,1.028800000000743,1.0453000000007435,1.0622000000011127,1.078599999999625,1.0954000000003674,1.1119999999999948,1.1309000000003735,1.1454000000003717,1.1622000000011141,1.1785999999996264,1.195300000000742,1.2119999999999962,1.2314000000003702,1.245400000000373,1.2639999999999958,1.2787000000011162,1.2953000000007435,1.3119999999999976,1.3287000000011133,1.3457000000011163,1.3653000000007438,1.3787000000011176,1.3954000000003717,1.411999999999999,1.4288000000007415,1.445300000000742,1.4619999999999962,1.4785999999996235,1.4954999999999998,1.5120000000000005,1.5287000000011162,1.545700000001112,1.564,1.5787000000011133,1.5954000000003674,1.6119999999999948,1.6287000000011176,1.645300000000745,1.6620999999996258,1.6787000000011147,1.695300000000742,1.7119999999999962,1.7288000000007457,1.745400000000373,1.7620999999996272,1.7787000000011162,1.795499999999997,1.8119999999999976,1.82880000000074,1.8453000000007407,1.8619999999999948,1.8785999999996221,1.8990999999996276,1.911999999999999,1.9288000000007415,1.9454000000003688,1.9619999999999962,1.9789000000003725,1.9953000000007393,2.0120000000000005,2.028800000000743,2.0453000000007435,2.0619999999999976,2.0787000000011133,2.0953000000007407,2.1119999999999948,2.131300000000742,2.1454000000003717,2.161999999999999,2.1788000000007415,2.195400000000369,2.211999999999996,2.228999999999999,2.2453000000007393,2.2620000000000005,2.278700000001116,2.2953000000007435,2.3119999999999976,2.3290000000000006,2.3459999999999965,2.364099999999624,2.3788000000007443,2.395300000000745,2.4124000000003676,2.429300000000744,2.445300000000742,2.461999999999996,2.478700000001112,2.4953000000007393,2.5120000000000005,2.528800000000743,2.545200000001117,2.5619999999999976,2.5787000000011133,2.5954000000003674,2.611900000000368,2.6287000000011176,2.645300000000745,2.6619000000003723,2.6785999999996264,2.695300000000742,2.7119000000003695,2.7285999999996235,2.745400000000373,2.763999999999996,2.778700000001116,2.7955999999996237,2.8120999999996243,2.82880000000074,2.845200000001114,2.8619999999999948,2.8787000000011176,2.895300000000745,2.911999999999999,2.9287000000011147,2.9473000000007445,2.961999999999996,2.978700000001112,2.995400000000373,3.0152000000011157,3.0310999999996255,3.0453000000007435,3.0619999999999976,3.080999999999996,3.0954000000003674,3.1124000000003704,3.131900000000371,3.1473000000007403,3.162200000001114,3.1785999999996264,3.1954999999999956,3.211999999999996,3.2312000000011167,3.2474000000003684,3.2620000000000005,3.278599999999628,3.2953000000007435,3.311900000000371,3.3287000000011133,3.345599999999628,3.3645999999996263,3.3790999999996245,3.395300000000745,3.4154999999999944,3.4312000000011125,3.4497000000011155,3.4674000000003673,3.4829000000003703,3.498400000000373,3.5120000000000005,3.528700000001116,3.5453000000007435,3.5619999999999976,3.578599999999625,3.5972000000011164,3.6147000000011147,3.6312000000011153,3.645300000000745,3.6619000000003723,3.681700000001115,3.6965000000000003,3.7119000000003695,3.7289000000003725,3.7453000000007393,3.7619000000003666,3.778599999999628,3.795200000001117,3.811900000000371,3.8287000000011133,3.8453000000007407,3.8619999999999948,3.878599999999622,3.895300000000745,3.9120999999996258,3.9287000000011147,3.945300000000742,3.961999999999996,3.978700000001112,3.9953000000007393,4.011900000000367,4.028700000001116,4.0453000000007435,4.061999999999998,4.078700000001113,4.095300000000741,4.111999999999995,4.128700000001118,4.145300000000745,4.161900000000372,4.178599999999626,4.195300000000742,4.211999999999996,4.233900000000368,4.245300000000739,4.2620000000000005,4.278599999999628,4.2953000000007435,4.311999999999998,4.328700000001113,4.345700000001116,4.361999999999995,4.378900000000371,4.395499999999998,4.411999999999999,4.4315,4.4458000000007445,4.464500000000001,4.480200000001112,4.495400000000373,4.515099999999627,4.530700000001119,4.54540000000037,4.562099999999624,4.5820999999996275,4.596800000000741,4.612099999999629,4.631200000001115,4.645499999999998,4.662099999999626,4.678700000001115,4.695300000000742,4.711999999999996,4.728700000001112,4.745300000000739,4.763999999999996,4.778800000000743,4.795499999999997,4.814499999999995,4.831700000001113,4.845499999999994,4.861999999999995,4.882800000000742,4.896700000001118,4.912099999999626,4.9315999999996265,4.945499999999996,4.962200000001118,4.978800000000746,4.997499999999995,5.0120000000000005,5.030800000000745,5.04540000000037,5.064400000000369,5.078599999999625,5.095300000000741,5.111999999999995,5.131800000000744,5.145300000000745,5.162099999999626,5.178900000000368,5.197700000001113,5.212300000000745,5.229400000000368,5.245400000000373,5.264300000000745,5.278800000000743,5.295499999999997,5.315400000000373,5.33180000000074,5.3478000000007455,5.365499999999997,5.378800000000744,5.395499999999998,5.411999999999999,5.4312000000011125,5.445200000001115,5.461999999999996,5.4785999999996235,5.4952000000011125,5.5120000000000005,5.53190000000037,5.545999999999999,5.563599999999624,5.57880000000074,5.598499999999994,5.612099999999629,5.631200000001115,5.649999999999999,5.662099999999626,5.6788000000007415,5.695400000000369,5.7152000000011185,5.730599999999626,5.747499999999995,5.765499999999996,5.780599999999623,5.795200000001117,5.811999999999998,5.828599999999625,5.845300000000741,5.861900000000368,5.878599999999622,5.895200000001118,5.911900000000372,5.928700000001115,5.945200000001115,5.9619000000003695,5.982200000001114,5.997200000001115,6.0120000000000005,6.030999999999999,6.045200000001117,6.061900000000371,6.078599999999625,6.095300000000741,6.111900000000368,6.128700000001118,6.145300000000745,6.161900000000372,6.1839999999999975,6.199999999999996,6.2119000000003695,6.2285999999996235,6.2452000000011125,6.261900000000367,6.278599999999628,6.295200000001117,6.311900000000371,6.329000000000001,6.3459999999999965,6.364700000001115,6.380700000001113,6.396599999999623,6.411900000000372,6.432099999999622]","[1733120666804,1733120666837,1733120666844,1733120666859,1733120666875,1733120666892,1733120666908,1733120666925,1733120666942,1733120666959,1733120666975,1733120666992,1733120667009,1733120667025,1733120667042,1733120667058,1733120667075,1733120667092,1733120667109,1733120667125,1733120667142,1733120667159,1733120667175,1733120667192,1733120667208,1733120667225,1733120667245,1733120667258,1733120667275,1733120667292,1733120667308,1733120667325,1733120667342,1733120667358,1733120667375,1733120667392,1733120667412,1733120667428,1733120667442,1733120667458,1733120667475,1733120667492,1733120667508,1733120667525,1733120667542,1733120667558,1733120667575,1733120667592,1733120667609,1733120667628,1733120667642,1733120667658,1733120667675,1733120667692,1733120667708,1733120667725,1733120667742,1733120667758,1733120667775,1733120667792,1733120667808,1733120667825,1733120667842,1733120667859,1733120667875,1733120667892,1733120667908,1733120667927,1733120667942,1733120667959,1733120667975,1733120667992,1733120668008,1733120668028,1733120668042,1733120668060,1733120668075,1733120668092,1733120668108,1733120668125,1733120668142,1733120668162,1733120668175,1733120668192,1733120668208,1733120668225,1733120668242,1733120668258,1733120668275,1733120668292,1733120668308,1733120668325,1733120668342,1733120668361,1733120668375,1733120668392,1733120668409,1733120668425,1733120668442,1733120668459,1733120668475,1733120668492,1733120668508,1733120668525,1733120668542,1733120668558,1733120668575,1733120668592,1733120668608,1733120668625,1733120668642,1733120668658,1733120668675,1733120668696,1733120668708,1733120668725,1733120668742,1733120668759,1733120668775,1733120668792,1733120668808,1733120668825,1733120668842,1733120668858,1733120668875,1733120668892,1733120668908,1733120668928,1733120668942,1733120668958,1733120668975,1733120668992,1733120669008,1733120669025,1733120669042,1733120669058,1733120669075,1733120669092,1733120669108,1733120669125,1733120669143,1733120669161,1733120669175,1733120669192,1733120669209,1733120669226,1733120669242,1733120669258,1733120669275,1733120669292,1733120669308,1733120669325,1733120669342,1733120669358,1733120669375,1733120669392,1733120669408,1733120669425,1733120669442,1733120669458,1733120669475,1733120669492,1733120669508,1733120669525,1733120669542,1733120669560,1733120669575,1733120669592,1733120669609,1733120669625,1733120669642,1733120669658,1733120669675,1733120669692,1733120669708,1733120669725,1733120669744,1733120669758,1733120669775,1733120669792,1733120669812,1733120669828,1733120669842,1733120669858,1733120669877,1733120669892,1733120669909,1733120669928,1733120669944,1733120669959,1733120669975,1733120669992,1733120670008,1733120670028,1733120670044,1733120670058,1733120670075,1733120670092,1733120670108,1733120670125,1733120670142,1733120670161,1733120670176,1733120670192,1733120670212,1733120670228,1733120670246,1733120670264,1733120670279,1733120670295,1733120670308,1733120670325,1733120670342,1733120670358,1733120670375,1733120670394,1733120670411,1733120670428,1733120670442,1733120670458,1733120670478,1733120670493,1733120670508,1733120670525,1733120670542,1733120670558,1733120670575,1733120670592,1733120670608,1733120670625,1733120670642,1733120670658,1733120670675,1733120670692,1733120670709,1733120670725,1733120670742,1733120670758,1733120670775,1733120670792,1733120670808,1733120670825,1733120670842,1733120670858,1733120670875,1733120670892,1733120670908,1733120670925,1733120670942,1733120670958,1733120670975,1733120670992,1733120671008,1733120671030,1733120671042,1733120671059,1733120671075,1733120671092,1733120671108,1733120671125,1733120671142,1733120671158,1733120671175,1733120671192,1733120671208,1733120671228,1733120671242,1733120671261,1733120671277,1733120671292,1733120671312,1733120671327,1733120671342,1733120671359,1733120671379,1733120671393,1733120671409,1733120671428,1733120671442,1733120671459,1733120671475,1733120671492,1733120671508,1733120671525,1733120671542,1733120671560,1733120671575,1733120671592,1733120671611,1733120671628,1733120671642,1733120671659,1733120671679,1733120671693,1733120671709,1733120671728,1733120671742,1733120671759,1733120671775,1733120671794,1733120671809,1733120671827,1733120671842,1733120671861,1733120671875,1733120671892,1733120671908,1733120671928,1733120671942,1733120671959,1733120671975,1733120671994,1733120672009,1733120672026,1733120672042,1733120672061,1733120672075,1733120672092,1733120672112,1733120672128,1733120672144,1733120672162,1733120672175,1733120672192,1733120672209,1733120672228,1733120672242,1733120672258,1733120672275,1733120672292,1733120672308,1733120672328,1733120672342,1733120672360,1733120672375,1733120672395,1733120672409,1733120672428,1733120672446,1733120672459,1733120672475,1733120672492,1733120672512,1733120672527,1733120672544,1733120672562,1733120672577,1733120672592,1733120672608,1733120672625,1733120672642,1733120672658,1733120672675,1733120672692,1733120672708,1733120672725,1733120672742,1733120672758,1733120672779,1733120672794,1733120672808,1733120672827,1733120672842,1733120672858,1733120672875,1733120672892,1733120672908,1733120672925,1733120672942,1733120672958,1733120672981,1733120672997,1733120673008,1733120673025,1733120673042,1733120673058,1733120673075,1733120673092,1733120673108,1733120673125,1733120673143,1733120673161,1733120673177,1733120673193,1733120673208,1733120673229]","[[1073.6,758.8],[1073.6,758.8],[1084.9,755.4],[1084,750.7],[1086.2,747],[1093.8,737.9],[1101.6,735.6],[1096.6,723.3],[1090.7,710.7],[1085.5,699.2],[1059.9,678.2],[1037,681],[1013.5,683.6],[984.8,668.3],[983.2,659.4],[978.9,654.3],[974.6,649.2],[984.4,652.1],[990.3,663.5],[999.6,676.7],[1003.4,673.5],[1003.4,673.5],[994.1,653.4],[969.2,645.9],[966.6,659.2],[938.3,643.3],[901.7,627.5],[866.6,623.3],[847.5,615],[808.9,591.6],[765.3,566.1],[751.1,570.9],[736.9,575.7],[718.2,570.8],[699.5,565.9],[677.9,567.6],[659.3,572.8],[651.5,572.2],[627.7,575.7],[647.1,575.7],[649.2,579.5],[648,577.5],[679.5,581.4],[731.1,582.4],[824.1,594.5],[911.1,617.6],[984.9,624.5],[1026.2,627.9],[1074.6,642.2],[1101.1,656.8],[1138.2,666.5],[1201.9,667.8],[1232.9,663.2],[1245.2,661],[1218.8,647.2],[1216.5,619.2],[1230,605.4],[1276.3,600],[1315.5,583.7],[1383.5,569.5],[1434.6,561.5],[1454.1,574.1],[1488.4,583],[1517.2,589.9],[1543.3,597.3],[1542.5,616.9],[1537.1,659.2],[1494.4,684.9],[1451.7,710.6],[1402.7,750.9],[1370.6,785],[1348.2,821],[1311,860.7],[1278.9,886.1],[1246.8,911.5],[1230.6,927.8],[1219,921.4],[1224.9,925],[1230.8,928.6],[1214,906.2],[1197.2,883.8],[1199.7,834.8],[1199.7,834.8],[1202.2,785.8],[1243.6,745.3],[1268.9,719.5],[1287.3,699.9],[1314.9,672.5],[1349.7,641],[1384.5,609.5],[1418.4,606],[1452.3,602.5],[1473.6,601.2],[1491.2,595.5],[1474.7,591.1],[1497.4,548.5],[1520.1,505.9],[1528.4,487.7],[1536.7,469.5],[1536.7,440.8],[1536.7,440.8],[1539.9,403.2],[1539.9,403.2],[1546.6,379.9],[1546.6,379.9],[1551.4,351.8],[1551.4,351.8],[1555.9,340.1],[1555.9,340.1],[1573.8,336.9],[1573.8,336.9],[1542.5,371.1],[1505.5,429.3],[1473.7,470.9],[1473.7,470.9],[1430.6,509.8],[1430.6,509.8],[1411.6,556.6],[1411.6,556.6],[1368.1,605.1],[1368.1,605.1],[1314.9,643.4],[1314.9,643.4],[1235.7,696],[1154.6,734.1],[1081.8,757.6],[1035.1,767.2],[979.9,754.4],[924.7,741.6],[859.5,733],[778.5,727],[760,712.6],[747.7,694.1],[742.3,687.4],[742.8,683.2],[729,685.2],[715.2,687.2],[715.6,687.6],[743.3,684.3],[783.1,688.3],[818.4,685.9],[815.7,690.2],[815.7,690.2],[798.5,690.5],[794,682],[798.3,669.5],[817.3,662.9],[816.4,657.8],[815.5,652.7],[783.4,646],[760.5,630.5],[759.7,625],[761,634.5],[780.5,635.8],[796.7,636.3],[798.3,641.1],[792.1,644],[802.8,648.7],[810.7,649.6],[834.1,653.7],[857.5,657.8],[863.3,658.3],[855,651.5],[843,656.9],[844.5,666.9],[847.9,677.8],[851.3,688.7],[861.3,688.6],[882.1,697.7],[883.9,707.2],[885.7,716.7],[911.3,724],[948.9,723.6],[975.8,713],[989.2,697.8],[1038.9,671.9],[1078.5,656.8],[1093.7,664.1],[1100.9,666],[1150.2,671.9],[1199.5,677.8],[1210.3,668.4],[1221.1,659],[1284.3,671.7],[1347.5,684.4],[1314.4,706.4],[1273.8,721.6],[1254,722.1],[1233.5,717],[1181.9,706.2],[1130.3,695.4],[1103.3,709.9],[1076.3,724.4],[989.7,720.9],[903.1,717.4],[884.6,731.2],[881.8,740],[866.7,740.8],[850.9,747.5],[842.8,756.8],[834.7,766.1],[811.2,782.2],[787.7,798.3],[783.8,809.6],[772.5,824.6],[764.6,826.6],[758.6,829.6],[758.6,829.6],[748.1,824.7],[736.7,832],[714,840.1],[691.3,848.2],[664.5,841],[637.7,833.8],[610.1,837.7],[583.3,834.3],[565.9,827.3],[535.4,820.6],[521.7,829.8],[511.3,813.7],[500.9,797.6],[511.6,797.3],[531.9,797.7],[526.9,785.9],[521,773.9],[546.1,763.2],[554.2,752],[573.4,736],[592.6,720],[614.5,718.4],[636.4,716.8],[625.7,703.6],[625.7,703.6],[615,690.4],[615,690.4],[611.6,684.2],[611.6,684.2],[614.1,695.1],[594.6,705.6],[594.6,705.6],[626.8,713.1],[626.8,713.1],[665.2,722.2],[665.2,722.2],[685.8,721.6],[685.8,721.6],[706,720.5],[706,720.5],[772.1,723.4],[772.1,723.4],[861.6,720.5],[861.6,720.5],[972.6,710.9],[1060.7,717.6],[1060.7,717.6],[1145.4,718.8],[1212.4,704.6],[1226.4,722.4],[1245.9,732.6],[1279,762.5],[1329.3,787.1],[1329.3,787.1],[1333.7,807.7],[1311.8,826.8],[1274.4,851.9],[1271.5,869.2],[1266.1,874.9],[1277.2,912.5],[1267.4,890],[1244.4,869],[1225.6,838],[1191,814.8],[1156.4,791.6],[1144.5,766.8],[1141.1,727.1],[1133.3,689],[1130.6,657.7],[1136.2,596.2],[1165.7,586.8],[1195.7,581.7],[1225.7,576.6],[1251,567.9],[1307.7,560.2],[1356.1,557.2],[1347.5,571.5],[1399.6,590.6],[1431.2,590.3],[1397.9,652.2],[1362.9,693.1],[1412.3,710.3],[1461.7,727.5],[1446.2,739.5],[1399.3,750.5],[1365.9,769.9],[1376.5,769.9],[1320.4,768.4],[1320.4,768.4],[1274.6,766.4],[1294.6,722],[1293.9,671.3],[1213.8,649.3],[1145.9,630],[1142.9,615.9],[1123.4,597],[1091.3,571.4],[1057.7,563.5],[1032,558.6],[1011.4,566.8],[1011.4,566.8],[991.2,545.9],[1020,545.5],[1029.2,546.9],[1012.7,538.7],[1002.2,505.9],[1008.2,477.9],[1020.8,455.6],[1019.8,440.8],[1044.9,416],[1070,391.2],[1057.5,389.5],[1016.7,373.6],[1016.7,373.6],[997.8,355.9],[983,333.9],[962.2,336.5],[974.9,351.7],[980.1,359.5],[978.8,363.9],[960.3,367.1],[941.8,370.3],[969.3,379],[996.8,387.7],[994.5,373.3],[1013.5,374.1],[1032.5,374.9],[1017.7,368],[1005.3,370.5],[991,358.6],[976.7,346.7],[976.7,346.7],[985.4,342.2],[958.8,334.2],[932.2,326.2],[918.2,336.5],[907.2,355.3],[891.6,372.7],[901.8,393.2],[887,397.7],[894.2,412.5],[886.2,424.4],[855.8,430.5],[863.5,444.5],[879.2,462],[907.8,484],[928.7,504.2],[937.9,518],[906.8,511.4],[916.1,527],[925.4,542.6],[947.3,564.9],[968.6,585.6],[979.7,574.7],[982.8,560.3],[963,543],[963,543],[944.1,518.9],[944.1,518.9],[944.9,481.1],[944.9,481.1],[961.4,473.2],[977.3,460.6],[956.7,444.4],[956.7,444.4],[936.2,425.3],[936.2,425.3],[937.6,403.3],[909.7,407.4],[881.8,411.5],[870,419.9],[870.4,436.1],[877,472.7],[888.1,489.7],[868.4,470.9],[855.7,468.8],[845.5,465.8],[806.4,462.8]]","[0,0.37864299999999995]","[0.37864299999999995,0.37864299999999995]","[-0.37864299999999995,0]","[-0.37864299999999995,-0.37864299999999995]","[0,0]","[0.37864299999999995,0]","[0,-0.37864299999999995]","[0.37864299999999995,-0.37864299999999995]",0,0,0,0,1,1,Laptop,7,7,15,9
