inst1_resp.keys,inst1_resp.rt,calibrationMouse.x,calibrationMouse.y,calibrationMouse.leftButton,calibrationMouse.midButton,calibrationMouse.rightButton,calibrationClick.x,calibrationClick.y,calibrationClick.leftButton,calibrationClick.midButton,calibrationClick.rightButton,trialsc.thisRepN,trialsc.thisTrialN,trialsc.thisN,trialsc.thisIndex,trialsc.ran,calibration_x,calibration_y,participant,session,date,expName,psychopyVersion,OS,frameRate,calibrationClick.clicked_name,ScreenRes_pixels,Camera_pixels,mouse_2.x,mouse_2.y,mouse_2.leftButton,mouse_2.midButton,mouse_2.rightButton,mouse_2.time,mouse_2.clicked_name,mouse.x,mouse.y,mouse.leftButton,mouse.midButton,mouse.rightButton,mouse.time,mouse.clicked_name,Choice,Trial,TrialDuration,MOUSE_GAZE,ET_GAZE,ET_GAZE_x_T,time,unixTime,ET_GAZE_NF,Loc_Option1_label,Loc_Option2_label,Loc_Cost_label,Loc_Qual_label,Loc_Option1_cost,Loc_Option2_cost,Loc_Option1_quality,Loc_Option2_quality,trials.thisRepN,trials.thisTrialN,trials.thisN,trials.thisIndex,trials.ran,Block,Device,cost1,qual1,cost2,qual2
space,2.0477,0.184375,0.32037037,1,0,0,-0.328125,-0.3,1,0,0,0,0,0,5,1,-0.33,-0.33,43,001,2024-12-02_15h31.28.803,Attention_exp_legacy,2023.1.0,Win32,60.24096386,,,,,,,,,,,,,,,,,,,,,,,,,,,,,,,,,,,,,,,,,,,,,
,,,,,,,-0.678125,0.340740741,1,0,0,0,1,1,3,1,-0.67,0.33,43,001,2024-12-02_15h31.28.803,Attention_exp_legacy,2023.1.0,Win32,60.24096386,,,,,,,,,,,,,,,,,,,,,,,,,,,,,,,,,,,,,,,,,,,,,
,,,,,,,0.325,-0.335185185,1,0,0,0,2,2,15,1,0.33,-0.33,43,001,2024-12-02_15h31.28.803,Attention_exp_legacy,2023.1.0,Win32,60.24096386,calibration_square,,,,,,,,,,,,,,,,,,,,,,,,,,,,,,,,,,,,,,,,,,,,
,,,,,,,-0.010416667,0.681481481,1,0,0,0,3,3,13,1,0,0.67,43,001,2024-12-02_15h31.28.803,Attention_exp_legacy,2023.1.0,Win32,60.24096386,,,,,,,,,,,,,,,,,,,,,,,,,,,,,,,,,,,,,,,,,,,,,
,,,,,,,-0.33125,0.001851852,1,0,0,0,4,4,6,1,-0.33,0,43,001,2024-12-02_15h31.28.803,Attention_exp_legacy,2023.1.0,Win32,60.24096386,calibration_square,,,,,,,,,,,,,,,,,,,,,,,,,,,,,,,,,,,,,,,,,,,,
,,,,,,,-0.663541667,-0.322222222,1,0,0,0,5,5,1,1,-0.67,-0.33,43,001,2024-12-02_15h31.28.803,Attention_exp_legacy,2023.1.0,Win32,60.24096386,calibration_square,,,,,,,,,,,,,,,,,,,,,,,,,,,,,,,,,,,,,,,,,,,,
,,,,,,,0.319791667,0.342592593,1,0,0,0,6,6,17,1,0.33,0.33,43,001,2024-12-02_15h31.28.803,Attention_exp_legacy,2023.1.0,Win32,60.24096386,,,,,,,,,,,,,,,,,,,,,,,,,,,,,,,,,,,,,,,,,,,,,
,,,,,,,-0.683333333,-0.687037037,1,0,0,0,7,7,0,1,-0.67,-0.67,43,001,2024-12-02_15h31.28.803,Attention_exp_legacy,2023.1.0,Win32,60.24096386,,,,,,,,,,,,,,,,,,,,,,,,,,,,,,,,,,,,,,,,,,,,,
,,,,,,,0.66875,0.651851852,1,0,0,0,8,8,19,1,0.67,0.67,43,001,2024-12-02_15h31.28.803,Attention_exp_legacy,2023.1.0,Win32,60.24096386,,,,,,,,,,,,,,,,,,,,,,,,,,,,,,,,,,,,,,,,,,,,,
,,,,,,,0.352083333,0.435185185,1,0,0,0,9,9,10,1,0,-0.33,43,001,2024-12-02_15h31.28.803,Attention_exp_legacy,2023.1.0,Win32,60.24096386,,,,,,,,,,,,,,,,,,,,,,,,,,,,,,,,,,,,,,,,,,,,,
,,,,,,,0.007291667,-0.675925926,1,0,0,0,10,10,9,1,0,-0.67,43,001,2024-12-02_15h31.28.803,Attention_exp_legacy,2023.1.0,Win32,60.24096386,calibration_square,,,,,,,,,,,,,,,,,,,,,,,,,,,,,,,,,,,,,,,,,,,,
,,,,,,,0.322916667,-0.016666667,1,0,0,0,11,11,16,1,0.33,0,43,001,2024-12-02_15h31.28.803,Attention_exp_legacy,2023.1.0,Win32,60.24096386,,,,,,,,,,,,,,,,,,,,,,,,,,,,,,,,,,,,,,,,,,,,,
,,,,,,,-0.345833333,0.346296296,1,0,0,0,12,12,7,1,-0.33,0.33,43,001,2024-12-02_15h31.28.803,Attention_exp_legacy,2023.1.0,Win32,60.24096386,,,,,,,,,,,,,,,,,,,,,,,,,,,,,,,,,,,,,,,,,,,,,
,,,,,,,0.321875,0.67037037,1,0,0,0,13,13,18,1,0.33,0.67,43,001,2024-12-02_15h31.28.803,Attention_exp_legacy,2023.1.0,Win32,60.24096386,calibration_square,,,,,,,,,,,,,,,,,,,,,,,,,,,,,,,,,,,,,,,,,,,,
,,,,,,,0,0.324074074,1,0,0,0,14,14,12,1,0,0.33,43,001,2024-12-02_15h31.28.803,Attention_exp_legacy,2023.1.0,Win32,60.24096386,calibration_square,,,,,,,,,,,,,,,,,,,,,,,,,,,,,,,,,,,,,,,,,,,,
,,,,,,,-0.703125,0.005555556,1,0,0,0,15,15,2,1,-0.67,0,43,001,2024-12-02_15h31.28.803,Attention_exp_legacy,2023.1.0,Win32,60.24096386,,,,,,,,,,,,,,,,,,,,,,,,,,,,,,,,,,,,,,,,,,,,,
,,,,,,,-0.026041667,0.005555556,1,0,0,0,16,16,11,1,0,0,43,001,2024-12-02_15h31.28.803,Attention_exp_legacy,2023.1.0,Win32,60.24096386,,,,,,,,,,,,,,,,,,,,,,,,,,,,,,,,,,,,,,,,,,,,,
,,,,,,,0.678125,-0.683333333,1,0,0,0,17,17,20,1,0.67,-0.67,43,001,2024-12-02_15h31.28.803,Attention_exp_legacy,2023.1.0,Win32,60.24096386,,,,,,,,,,,,,,,,,,,,,,,,,,,,,,,,,,,,,,,,,,,,,
,,,,,,,-0.31875,-0.692592593,1,0,0,0,18,18,4,1,-0.33,-0.67,43,001,2024-12-02_15h31.28.803,Attention_exp_legacy,2023.1.0,Win32,60.24096386,,,,,,,,,,,,,,,,,,,,,,,,,,,,,,,,,,,,,,,,,,,,,
,,,,,,,0.321875,-0.709259259,1,0,0,0,19,19,14,1,0.33,-0.67,43,001,2024-12-02_15h31.28.803,Attention_exp_legacy,2023.1.0,Win32,60.24096386,,,,,,,,,,,,,,,,,,,,,,,,,,,,,,,,,,,,,,,,,,,,,
,,,,,,,-0.326041667,0.690740741,1,0,0,0,20,20,8,1,-0.33,0.67,43,001,2024-12-02_15h31.28.803,Attention_exp_legacy,2023.1.0,Win32,60.24096386,,,,,,,,,,,,,,,,,,,,,,,,,,,,,,,,,,,,,,,,,,,,,
,,,,,,,,,,,,,,,,,,,43,001,2024-12-02_15h31.28.803,Attention_exp_legacy,2023.1.0,Win32,60.24096386,,"[1920,1080]","[640,480]",[0.057291666666666664],[-0.4444444444444444],[1],[0],[0],[1.947100000001484],[],[0.384375],[0.29074074074074074],[1],[0],[0],[5.0049999999999955],"[""Option2_label""]",Option2_label,1,6.0125,"[[-0.05416666666666667,-0.6814814814814815],[-0.05416666666666667,-0.6814814814814815],[-0.05416666666666667,-0.6814814814814815],[-0.05416666666666667,-0.6814814814814815],[-0.05416666666666667,-0.6814814814814815],[-0.05416666666666667,-0.6833333333333333],[-0.053125,-0.6833333333333333],[-0.052083333333333336,-0.6814814814814815],[-0.052083333333333336,-0.6814814814814815],[-0.052083333333333336,-0.6814814814814815],[-0.052083333333333336,-0.6814814814814815],[-0.052083333333333336,-0.6814814814814815],[-0.052083333333333336,-0.6814814814814815],[-0.052083333333333336,-0.6814814814814815],[-0.052083333333333336,-0.6814814814814815],[-0.052083333333333336,-0.6814814814814815],[-0.052083333333333336,-0.6814814814814815],[-0.052083333333333336,-0.6814814814814815],[-0.052083333333333336,-0.6814814814814815],[-0.052083333333333336,-0.6814814814814815],[-0.05,-0.6814814814814815],[-0.05,-0.6814814814814815],[-0.04895833333333333,-0.6833333333333333],[-0.04895833333333333,-0.6851851851851852],[-0.04895833333333333,-0.6851851851851852],[-0.04895833333333333,-0.6851851851851852],[-0.04895833333333333,-0.6851851851851852],[-0.04895833333333333,-0.6851851851851852],[-0.04895833333333333,-0.6851851851851852],[-0.04895833333333333,-0.6851851851851852],[-0.04895833333333333,-0.6851851851851852],[-0.04895833333333333,-0.6851851851851852],[-0.04895833333333333,-0.6851851851851852],[-0.04895833333333333,-0.6851851851851852],[-0.04895833333333333,-0.6851851851851852],[-0.04895833333333333,-0.6851851851851852],[-0.04895833333333333,-0.6851851851851852],[-0.04895833333333333,-0.6851851851851852],[-0.04895833333333333,-0.6851851851851852],[-0.04895833333333333,-0.6851851851851852],[-0.04895833333333333,-0.6851851851851852],[-0.04895833333333333,-0.6851851851851852],[-0.04895833333333333,-0.6851851851851852],[-0.04895833333333333,-0.6851851851851852],[-0.04895833333333333,-0.6851851851851852],[-0.04895833333333333,-0.6851851851851852],[-0.04895833333333333,-0.6851851851851852],[-0.04895833333333333,-0.6851851851851852],[-0.04895833333333333,-0.6851851851851852],[-0.04895833333333333,-0.6851851851851852],[-0.04895833333333333,-0.6851851851851852],[-0.04895833333333333,-0.6851851851851852],[-0.04895833333333333,-0.6851851851851852],[-0.04895833333333333,-0.6851851851851852],[-0.04895833333333333,-0.6851851851851852],[-0.04895833333333333,-0.6851851851851852],[-0.04895833333333333,-0.6851851851851852],[-0.04895833333333333,-0.6851851851851852],[-0.04895833333333333,-0.6851851851851852],[-0.04895833333333333,-0.6851851851851852],[-0.046875,-0.6851851851851852],[-0.041666666666666664,-0.6666666666666666],[-0.035416666666666666,-0.65],[-0.026041666666666668,-0.6203703703703703],[-0.017708333333333333,-0.5888888888888889],[-0.008333333333333333,-0.5611111111111111],[0.0020833333333333333,-0.5370370370370371],[0.011458333333333333,-0.5185185185185185],[0.017708333333333333,-0.5018518518518519],[0.017708333333333333,-0.5],[0.019791666666666666,-0.49074074074074076],[0.020833333333333332,-0.4703703703703704],[0.020833333333333332,-0.4462962962962963],[0.020833333333333332,-0.42962962962962964],[0.020833333333333332,-0.4203703703703704],[0.020833333333333332,-0.4166666666666667],[0.020833333333333332,-0.4148148148148148],[0.020833333333333332,-0.4111111111111111],[0.020833333333333332,-0.4111111111111111],[0.020833333333333332,-0.40925925925925927],[0.019791666666666666,-0.4074074074074074],[0.019791666666666666,-0.40555555555555556],[0.01875,-0.40370370370370373],[0.017708333333333333,-0.40185185185185185],[0.016666666666666666,-0.3962962962962963],[0.016666666666666666,-0.3851851851851852],[0.015625,-0.37222222222222223],[0.014583333333333334,-0.3611111111111111],[0.013541666666666667,-0.35],[0.0125,-0.3388888888888889],[0.011458333333333333,-0.3277777777777778],[0.010416666666666666,-0.31666666666666665],[0.009375,-0.3074074074074074],[0.009375,-0.3],[0.007291666666666667,-0.29259259259259257],[0.007291666666666667,-0.29074074074074074],[0.007291666666666667,-0.28703703703703703],[0.007291666666666667,-0.28703703703703703],[0.00625,-0.2851851851851852],[0.00625,-0.2851851851851852],[0.00625,-0.2851851851851852],[0.00625,-0.2851851851851852],[0.00625,-0.2851851851851852],[0.00625,-0.2851851851851852],[0.00625,-0.2851851851851852],[0.00625,-0.2851851851851852],[0.00625,-0.2851851851851852],[0.00625,-0.2851851851851852],[0.00625,-0.2851851851851852],[0.00625,-0.2851851851851852],[0.00625,-0.2851851851851852],[0.00625,-0.2851851851851852],[0.00625,-0.2851851851851852],[0.00625,-0.2851851851851852],[0.007291666666666667,-0.2833333333333333],[0.010416666666666666,-0.2777777777777778],[0.011458333333333333,-0.2759259259259259],[0.013541666666666667,-0.26666666666666666],[0.013541666666666667,-0.2574074074074074],[0.013541666666666667,-0.2518518518518518],[0.013541666666666667,-0.24444444444444444],[0.011458333333333333,-0.23333333333333334],[0.007291666666666667,-0.22407407407407406],[-0.0010416666666666667,-0.2111111111111111],[-0.009375,-0.20185185185185187],[-0.023958333333333335,-0.19444444444444445],[-0.04583333333333333,-0.18703703703703703],[-0.06770833333333333,-0.18333333333333332],[-0.0875,-0.17777777777777778],[-0.103125,-0.17407407407407408],[-0.11770833333333333,-0.1685185185185185],[-0.12916666666666668,-0.16666666666666666],[-0.140625,-0.16666666666666666],[-0.15,-0.16666666666666666],[-0.16041666666666668,-0.16666666666666666],[-0.16770833333333332,-0.16666666666666666],[-0.17604166666666668,-0.16666666666666666],[-0.18229166666666666,-0.16666666666666666],[-0.1875,-0.16666666666666666],[-0.18958333333333333,-0.16666666666666666],[-0.190625,-0.16666666666666666],[-0.190625,-0.16666666666666666],[-0.190625,-0.16666666666666666],[-0.190625,-0.16666666666666666],[-0.18125,-0.1648148148148148],[-0.16145833333333334,-0.1574074074074074],[-0.14166666666666666,-0.14629629629629629],[-0.115625,-0.13703703703703704],[-0.09166666666666666,-0.12962962962962962],[-0.065625,-0.12037037037037036],[-0.040625,-0.11666666666666667],[-0.01875,-0.1111111111111111],[-0.0010416666666666667,-0.10740740740740741],[0.01875,-0.1],[0.05520833333333333,-0.09444444444444444],[0.08229166666666667,-0.09444444444444444],[0.10729166666666666,-0.09444444444444444],[0.12916666666666668,-0.09444444444444444],[0.14479166666666668,-0.09444444444444444],[0.15625,-0.09444444444444444],[0.1625,-0.09259259259259259],[0.16458333333333333,-0.09259259259259259],[0.16770833333333332,-0.09259259259259259],[0.171875,-0.09074074074074075],[0.17604166666666668,-0.09074074074074075],[0.18645833333333334,-0.08703703703703704],[0.20520833333333333,-0.08333333333333333],[0.21979166666666666,-0.08148148148148149],[0.23541666666666666,-0.07962962962962963],[0.253125,-0.07407407407407407],[0.26979166666666665,-0.07407407407407407],[0.28854166666666664,-0.07222222222222222],[0.30520833333333336,-0.07222222222222222],[0.321875,-0.07222222222222222],[0.3416666666666667,-0.07222222222222222],[0.359375,-0.07222222222222222],[0.38333333333333336,-0.07407407407407407],[0.38958333333333334,-0.07592592592592592],[0.40625,-0.08148148148148149],[0.41354166666666664,-0.08148148148148149],[0.4197916666666667,-0.08333333333333333],[0.421875,-0.08333333333333333],[0.42291666666666666,-0.08518518518518518],[0.42291666666666666,-0.08518518518518518],[0.42291666666666666,-0.08518518518518518],[0.42291666666666666,-0.08518518518518518],[0.42291666666666666,-0.08518518518518518],[0.42291666666666666,-0.08518518518518518],[0.42291666666666666,-0.08518518518518518],[0.42291666666666666,-0.08518518518518518],[0.42291666666666666,-0.08518518518518518],[0.42291666666666666,-0.08518518518518518],[0.42291666666666666,-0.08518518518518518],[0.42291666666666666,-0.08518518518518518],[0.42291666666666666,-0.08518518518518518],[0.42291666666666666,-0.08518518518518518],[0.42291666666666666,-0.08518518518518518],[0.42291666666666666,-0.08518518518518518],[0.42291666666666666,-0.08518518518518518],[0.42291666666666666,-0.08518518518518518],[0.42291666666666666,-0.08518518518518518],[0.42291666666666666,-0.08518518518518518],[0.42291666666666666,-0.08518518518518518],[0.42291666666666666,-0.08518518518518518],[0.42291666666666666,-0.08518518518518518],[0.42291666666666666,-0.08518518518518518],[0.42291666666666666,-0.08518518518518518],[0.42291666666666666,-0.08518518518518518],[0.42291666666666666,-0.08518518518518518],[0.42291666666666666,-0.08518518518518518],[0.42291666666666666,-0.08518518518518518],[0.42291666666666666,-0.08518518518518518],[0.42291666666666666,-0.08518518518518518],[0.42291666666666666,-0.08518518518518518],[0.42291666666666666,-0.08518518518518518],[0.42291666666666666,-0.08703703703703704],[0.42291666666666666,-0.08703703703703704],[0.42291666666666666,-0.08703703703703704],[0.42291666666666666,-0.08703703703703704],[0.42291666666666666,-0.09074074074074075],[0.421875,-0.09259259259259259],[0.421875,-0.09814814814814815],[0.42083333333333334,-0.10185185185185185],[0.4197916666666667,-0.11481481481481481],[0.4197916666666667,-0.1259259259259259],[0.4197916666666667,-0.13333333333333333],[0.4197916666666667,-0.16296296296296298],[0.4197916666666667,-0.18518518518518517],[0.4197916666666667,-0.2074074074074074],[0.4197916666666667,-0.22777777777777777],[0.4197916666666667,-0.24814814814814815],[0.4197916666666667,-0.26851851851851855],[0.4197916666666667,-0.29259259259259257],[0.4197916666666667,-0.31851851851851853],[0.4197916666666667,-0.34629629629629627],[0.4197916666666667,-0.3685185185185185],[0.4197916666666667,-0.3814814814814815],[0.4197916666666667,-0.39444444444444443],[0.4197916666666667,-0.4],[0.4197916666666667,-0.40185185185185185],[0.4197916666666667,-0.40555555555555556],[0.4197916666666667,-0.40555555555555556],[0.4197916666666667,-0.4074074074074074],[0.4197916666666667,-0.4074074074074074],[0.4197916666666667,-0.4074074074074074],[0.4197916666666667,-0.4074074074074074],[0.4197916666666667,-0.4074074074074074],[0.4197916666666667,-0.4074074074074074],[0.4197916666666667,-0.4074074074074074],[0.4197916666666667,-0.4074074074074074],[0.4197916666666667,-0.4074074074074074],[0.4197916666666667,-0.4074074074074074],[0.4197916666666667,-0.4074074074074074],[0.4197916666666667,-0.4074074074074074],[0.4197916666666667,-0.4074074074074074],[0.4197916666666667,-0.4074074074074074],[0.4197916666666667,-0.4074074074074074],[0.4197916666666667,-0.4074074074074074],[0.4197916666666667,-0.39814814814814814],[0.41458333333333336,-0.3685185185185185],[0.40729166666666666,-0.32407407407407407],[0.39791666666666664,-0.27037037037037037],[0.3885416666666667,-0.19814814814814816],[0.38229166666666664,-0.15555555555555556],[0.378125,-0.12222222222222222],[0.37395833333333334,-0.10185185185185185],[0.371875,-0.08518518518518518],[0.371875,-0.08148148148148149],[0.371875,-0.07777777777777778],[0.371875,-0.07592592592592592],[0.37083333333333335,-0.07407407407407407],[0.37083333333333335,-0.07222222222222222],[0.37083333333333335,-0.06481481481481481],[0.37083333333333335,-0.05555555555555555],[0.37083333333333335,-0.025925925925925925],[0.37083333333333335,-0.001851851851851852],[0.37083333333333335,0.027777777777777776],[0.37083333333333335,0.06111111111111111],[0.37083333333333335,0.09074074074074075],[0.37083333333333335,0.12222222222222222],[0.37083333333333335,0.14444444444444443],[0.37083333333333335,0.16666666666666666],[0.37083333333333335,0.1814814814814815],[0.37083333333333335,0.19074074074074074],[0.371875,0.1962962962962963],[0.371875,0.20185185185185187],[0.371875,0.20925925925925926],[0.37395833333333334,0.21481481481481482],[0.37395833333333334,0.22037037037037038],[0.37604166666666666,0.22777777777777777],[0.3770833333333333,0.23333333333333334],[0.378125,0.2388888888888889],[0.37916666666666665,0.2462962962962963],[0.38125,0.25555555555555554],[0.38229166666666664,0.26666666666666666],[0.38229166666666664,0.2740740740740741],[0.38333333333333336,0.2796296296296296],[0.384375,0.28703703703703703],[0.384375,0.29074074074074074],[0.384375,0.29074074074074074],[0.384375,0.29074074074074074],[0.384375,0.29074074074074074],[0.384375,0.29074074074074074],[0.384375,0.29074074074074074],[0.384375,0.29074074074074074],[0.384375,0.29074074074074074],[0.384375,0.29074074074074074],[0.384375,0.29074074074074074],[0.384375,0.29074074074074074],[0.384375,0.29074074074074074],[0.384375,0.29074074074074074],[0.384375,0.29074074074074074],[0.384375,0.29074074074074074],[0.384375,0.29074074074074074],[0.384375,0.29074074074074074],[0.384375,0.29074074074074074],[0.384375,0.29074074074074074],[0.384375,0.29074074074074074],[0.384375,0.29074074074074074],[0.384375,0.29074074074074074],[0.384375,0.29074074074074074],[0.384375,0.29074074074074074],[0.384375,0.29074074074074074],[0.384375,0.29074074074074074],[0.384375,0.29074074074074074],[0.384375,0.29074074074074074],[0.384375,0.29074074074074074],[0.384375,0.29074074074074074],[0.384375,0.29074074074074074],[0.384375,0.29074074074074074],[0.384375,0.29074074074074074],[0.384375,0.29074074074074074],[0.384375,0.29074074074074074],[0.384375,0.29074074074074074],[0.384375,0.29074074074074074],[0.384375,0.29074074074074074],[0.384375,0.29074074074074074],[0.384375,0.29074074074074074],[0.384375,0.29074074074074074],[0.384375,0.29074074074074074],[0.384375,0.29074074074074074],[0.38333333333333336,0.28703703703703703],[0.38333333333333336,0.28703703703703703],[0.38333333333333336,0.28703703703703703],[0.38333333333333336,0.28703703703703703],[0.38333333333333336,0.28703703703703703],[0.38333333333333336,0.28703703703703703],[0.38333333333333336,0.28703703703703703],[0.38333333333333336,0.28703703703703703],[0.38333333333333336,0.28703703703703703],[0.38333333333333336,0.28703703703703703],[0.38333333333333336,0.28703703703703703],[0.38333333333333336,0.28703703703703703],[0.38333333333333336,0.28703703703703703],[0.38333333333333336,0.28703703703703703],[0.38333333333333336,0.28703703703703703],[0.38333333333333336,0.28703703703703703],[0.38333333333333336,0.28703703703703703],[0.38333333333333336,0.28703703703703703],[0.38333333333333336,0.28703703703703703],[0.38333333333333336,0.28703703703703703]]","[[-0.4126041666666667,0.6724074074074075],[-0.4126041666666667,0.6724074074074075],[-0.3890625,0.6644444444444444],[-0.37437499999999996,0.6653703703703703],[-0.3625,0.6738888888888889],[-0.3466666666666666,0.6618518518518518],[-0.29322916666666665,0.6662962962962962],[-0.2594791666666667,0.6635185185185184],[-0.2594791666666667,0.6635185185185184],[-0.24770833333333328,0.6746296296296296],[-0.24312499999999998,0.7257407407407407],[-0.24156249999999999,0.7475925925925927],[-0.22749999999999998,0.7468518518518518],[-0.22843749999999996,0.759074074074074],[-0.19760416666666672,0.8042592592592592],[-0.19281250000000003,0.8398148148148148],[-0.18677083333333327,0.9009259259259259],[-0.21447916666666664,0.9303703703703705],[-0.2283333333333334,0.9935185185185185],[-0.246875,1.030185185185185],[-0.23812500000000003,0.9762962962962963],[-0.23781249999999995,0.9305555555555556],[-0.26020833333333326,0.8894444444444444],[-0.2856250000000001,0.8375925925925926],[-0.29656250000000006,0.7979629629629629],[-0.3141666666666667,0.7759259259259259],[-0.28875000000000006,0.7372222222222222],[-0.2795833333333333,0.737037037037037],[-0.23125,0.6674074074074073],[-0.18500000000000003,0.6079629629629629],[-0.15916666666666662,0.630925925925926],[-0.1716666666666666,0.6744444444444445],[-0.13854166666666667,0.717962962962963],[-0.13447916666666668,0.7329629629629629],[-0.10322916666666669,0.6555555555555556],[-0.06510416666666667,0.6888888888888889],[-0.06520833333333335,0.7150000000000001],[-0.03333333333333333,0.7074074074074074],[-0.000416666666666643,0.727037037037037],[0.020937500000000022,0.7511111111111112],[0.0375,0.6516666666666666],[0.08322916666666676,0.5729629629629629],[0.06239583333333331,0.5231481481481481],[0.09510416666666661,0.5218518518518518],[0.1462500000000001,0.5112962962962964],[0.13083333333333325,0.4246296296296295],[0.17395833333333333,0.2462962962962963],[0.18781249999999997,0.09759259259259268],[0.15302083333333344,-0.03037037037037033],[0.12302083333333323,-0.15407407407407406],[0.12062499999999995,-0.20907407407407402],[0.12552083333333333,-0.2505555555555556],[0.17895833333333327,-0.3242592592592593],[0.18885416666666663,-0.3861111111111111],[0.1430208333333333,-0.4131481481481482],[0.1430208333333333,-0.4131481481481482],[0.1703125,-0.4255555555555556],[0.1703125,-0.4255555555555556],[0.10927083333333343,-0.35833333333333334],[0.10927083333333343,-0.35833333333333334],[0.03197916666666671,-0.24444444444444444],[0.03197916666666671,-0.24444444444444444],[0.014479166666666644,-0.1361111111111111],[0.005729166666666666,-0.04592592592592584],[0.005729166666666666,-0.04592592592592584],[-0.03322916666666664,0.08407407407407404],[-0.06822916666666666,0.16833333333333328],[-0.12479166666666662,0.23537037037037042],[-0.12479166666666662,0.23537037037037042],[-0.13447916666666668,0.31370370370370365],[-0.1342708333333333,0.45444444444444443],[-0.1352083333333333,0.5385185185185184],[-0.12114583333333329,0.6401851851851853],[-0.03729166666666662,0.5935185185185186],[-0.018229166666666668,0.5777777777777777],[-0.013125000000000024,0.5851851851851851],[0.022708333333333285,0.5527777777777778],[0.057500000000000044,0.5018518518518519],[0.08312499999999995,0.5349999999999999],[0.12312500000000005,0.5107407407407406],[0.08375000000000009,0.43925925925925935],[0.08583333333333343,0.37537037037037047],[0.08864583333333324,0.31444444444444436],[0.041979166666666616,0.3625925925925925],[0.040625,0.35555555555555557],[0.04802083333333336,0.3411111111111112],[0.021458333333333357,0.3072222222222222],[0.02510416666666669,0.3464814814814815],[0.03677083333333329,0.33277777777777784],[0.002499999999999976,0.36629629629629623],[0.02302083333333336,0.4170370370370371],[-0.022395833333333334,0.44833333333333336],[-0.03999999999999997,0.4546296296296296],[-0.03833333333333329,0.3961111111111111],[-0.06458333333333334,0.41277777777777774],[-0.07218749999999995,0.3848148148148147],[-0.058437500000000024,0.4624074074074075],[-0.07416666666666671,0.4905555555555555],[-0.04645833333333336,0.4507407407407407],[-0.03927083333333338,0.43333333333333335],[-0.01593749999999995,0.38129629629629624],[0.02833333333333338,0.3844444444444445],[0.05656249999999995,0.4111111111111111],[0.04739583333333333,0.4757407407407407],[0.04562499999999995,0.5120370370370371],[0.015104166666666667,0.4977777777777777],[0.007291666666666667,0.4366666666666666],[-0.021979166666666692,0.3168518518518519],[-0.05791666666666669,0.28129629629629627],[-0.06510416666666667,0.1603703703703704],[-0.11656249999999997,0.11814814814814806],[-0.16656249999999997,0.032037037037036954],[-0.20656249999999995,0.0014814814814813973],[-0.20656249999999995,0.0014814814814813973],[-0.2273958333333333,-0.03555555555555564],[-0.2094791666666667,-0.1255555555555556],[-0.18468749999999995,-0.12851851851851848],[-0.1798958333333334,-0.13962962962962958],[-0.18531249999999996,-0.1022222222222222],[-0.19135416666666671,-0.13444444444444448],[-0.16937500000000003,-0.1014814814814815],[-0.12104166666666671,-0.0933333333333333],[-0.09416666666666665,-0.06092592592592588],[-0.05947916666666669,-0.0727777777777778],[-0.03104166666666662,-0.07333333333333338],[-0.019583333333333286,-0.05759259259259263],[-0.03260416666666662,-0.03981481481481482],[-0.005416666666666714,-0.018703703703703747],[-0.005416666666666714,-0.018703703703703747],[0.003958333333333286,0.004259259259259175],[0.006979166666666714,0.08981481481481482],[0.000416666666666643,0.11259259259259251],[-0.021041666666666715,0.1337037037037038],[-0.02374999999999995,0.14166666666666666],[-0.078125,0.13870370370370366],[-0.09968750000000005,0.11907407407407399],[-0.09458333333333328,0.130925925925926],[-0.06958333333333329,0.13962962962962958],[-0.10802083333333339,0.14666666666666675],[-0.11541666666666663,0.15425925925925918],[-0.1430208333333333,0.11370370370370367],[-0.16354166666666667,0.11500000000000005],[-0.17583333333333329,0.13203703703703695],[-0.15375000000000003,0.14351851851851852],[-0.12416666666666672,0.15222222222222231],[-0.11479166666666671,0.1638888888888889],[-0.15625,0.15407407407407417],[-0.18781249999999997,0.15185185185185185],[-0.16145833333333334,0.11740740740740736],[-0.11197916666666667,0.102962962962963],[-0.08937499999999995,0.08814814814814818],[-0.115625,0.11037037037037041],[-0.11854166666666661,0.09796296296296292],[-0.11135416666666664,0.09703703703703699],[-0.07781250000000005,0.0985185185185186],[-0.013854166666666619,0.0787037037037037],[0.046875,0.07518518518518523],[0.10552083333333329,0.07333333333333338],[0.115625,0.10351851851851848],[0.14500000000000005,0.1361111111111111],[0.22645833333333343,0.13537037037037042],[0.31906249999999997,0.10425925925925918],[0.41302083333333334,0.01518518518518527],[0.39739583333333334,-0.044444444444444446],[0.40604166666666663,-0.15351851851851847],[0.3841666666666666,-0.192037037037037],[0.38260416666666663,-0.21592592592592597],[0.3810416666666666,-0.23981481481481481],[0.39114583333333336,-0.23129629629629625],[0.3622916666666666,-0.2574074074074074],[0.3334374999999999,-0.26185185185185184],[0.31354166666666666,-0.252962962962963],[0.29270833333333335,-0.18185185185185182],[0.32364583333333335,-0.14222222222222225],[0.32364583333333335,-0.14222222222222225],[0.31531250000000005,-0.05],[0.3476041666666667,-0.012222222222222264],[0.3571875000000001,0.017407407407407365],[0.3667708333333332,0.047037037037036995],[0.3780208333333334,0.012037037037037037],[0.3958333333333333,0.012037037037037037],[0.3966666666666666,0.0477777777777777],[0.4382291666666667,0.04018518518518527],[0.46749999999999997,0.034074074074074034],[0.5037499999999999,0.007037037037036953],[0.5535416666666667,-0.02629629629629638],[0.5544791666666666,-0.0198148148148149],[0.5544791666666666,-0.0198148148148149],[0.5344791666666666,-0.04259259259259259],[0.5344791666666666,-0.04259259259259259],[0.5104166666666666,-0.04685185185185177],[0.49343750000000003,-0.05333333333333336],[0.49343750000000003,-0.05333333333333336],[0.5241666666666667,-0.05499999999999998],[0.5241666666666667,-0.05499999999999998],[0.5145833333333333,-0.04685185185185177],[0.5145833333333333,-0.04685185185185177],[0.47531249999999997,-0.032777777777777864],[0.45677083333333335,-0.04277777777777782],[0.44989583333333344,-0.041111111111111195],[0.4148958333333333,-0.004074074074074159],[0.41437499999999994,-0.03925925925925934],[0.4180208333333333,-0.06574074074074074],[0.4460416666666667,-0.12092592592592595],[0.46885416666666657,-0.15055555555555558],[0.4587500000000001,-0.1977777777777778],[0.4432291666666667,-0.20759259259259263],[0.43739583333333343,-0.21425925925925923],[0.39562499999999995,-0.17629629629629628],[0.3564583333333334,-0.14962962962962964],[0.34833333333333344,-0.16888888888888887],[0.32447916666666665,-0.1527777777777778],[0.32937500000000003,-0.10796296296296298],[0.31395833333333345,-0.052962962962963],[0.3150000000000001,-0.0016666666666666245],[0.3103125000000001,0.04796296296296292],[0.31187500000000007,0.02092592592592584],[0.29635416666666664,0.0011111111111111532],[0.3115624999999999,-0.06759259259259259],[0.29697916666666657,-0.12240740740740745],[0.2961458333333333,-0.1824074074074074],[0.30406250000000007,-0.21185185185185182],[0.27395833333333336,-0.26222222222222225],[0.2561458333333334,-0.27259259259259255],[0.21343750000000009,-0.2851851851851852],[0.17645833333333344,-0.297037037037037],[0.1943749999999999,-0.3098148148148148],[0.22364583333333338,-0.29814814814814816],[0.17520833333333338,-0.27388888888888885],[0.22916666666666666,-0.23277777777777775],[0.20104166666666667,-0.17296296296296293],[0.16010416666666671,-0.11074074074074076],[0.16302083333333334,-0.10333333333333336],[0.14635416666666667,-0.13925925925925925],[0.14833333333333343,-0.008148148148148106],[0.13072916666666667,0.10185185185185185],[0.13697916666666668,0.17555555555555546],[0.1271874999999999,0.23648148148148157],[0.18135416666666657,0.3742592592592593],[0.14406249999999995,0.44240740740740736],[0.10499999999999995,0.5798148148148149],[0.10760416666666663,0.6375925925925925],[0.07833333333333338,0.6966666666666668],[0.17697916666666677,0.8598148148148147],[0.25968749999999996,0.7933333333333333],[0.3177083333333333,0.7070370370370369],[0.36604166666666677,0.6903703703703703],[0.4174999999999999,0.6857407407407407],[0.4671875,0.6199999999999999],[0.5383333333333333,0.5998148148148148],[0.5383333333333333,0.5998148148148148],[0.6474999999999999,0.5692592592592592],[0.7322916666666667,0.531111111111111],[0.8335416666666667,0.5527777777777778],[0.7991666666666667,0.4885185185185184],[0.7620833333333332,0.4868518518518518],[0.7504166666666667,0.5553703703703703],[0.7287499999999999,0.6048148148148148],[0.7181250000000001,0.6459259259259258],[0.6713541666666667,0.6385185185185185],[0.6174999999999999,0.677962962962963],[0.5739583333333333,0.6390740740740741],[0.5390625,0.6218518518518518],[0.5013541666666667,0.5979629629629629],[0.4580208333333334,0.5840740740740741],[0.41468749999999993,0.5701851851851851],[0.44406249999999997,0.490925925925926],[0.43156249999999996,0.419074074074074],[0.4091666666666666,0.3635185185185184],[0.38875000000000004,0.35425925925925916],[0.38958333333333334,0.2537037037037037],[0.43624999999999997,0.1935185185185185],[0.42864583333333334,0.14907407407407408],[0.44500000000000006,0.09574074074074082],[0.48197916666666674,0.017592592592592594],[0.5081249999999999,-0.028518518518518478],[0.4740624999999999,-0.03981481481481482],[0.45499999999999996,-0.043703703703703745],[0.44468750000000007,-0.06370370370370367],[0.44197916666666665,-0.10333333333333336],[0.45197916666666677,-0.11351851851851855],[0.43468749999999995,-0.1653703703703704],[0.4313541666666666,-0.1624074074074074],[0.4131249999999999,-0.147037037037037],[0.4111458333333334,-0.11574074074074074],[0.3868750000000001,-0.10111111111111115],[0.42177083333333343,-0.12240740740740745],[0.421875,-0.14074074074074075],[0.4170833333333334,-0.19611111111111107],[0.4114583333333333,-0.22851851851851848],[0.3944791666666667,-0.2433333333333333],[0.3655208333333334,-0.2207407407407407],[0.3441666666666668,-0.21648148148148144],[0.33354166666666674,-0.18314814814814812],[0.31354166666666666,-0.20666666666666672],[0.37833333333333335,-0.2535185185185185],[0.38395833333333323,-0.2644444444444445],[0.36864583333333345,-0.2692592592592592],[0.3498958333333334,-0.25259259259259254],[0.37437500000000007,-0.2651851851851852],[0.378125,-0.2757407407407407],[0.39562499999999995,-0.30277777777777776],[0.4188541666666666,-0.3501851851851852],[0.42510416666666656,-0.4235185185185185],[0.41822916666666665,-0.47314814814814815],[0.3536458333333333,-0.5268518518518519],[0.28489583333333335,-0.544074074074074],[0.2791666666666667,-0.5690740740740741],[0.2791666666666667,-0.5690740740740741],[0.28406250000000005,-0.595],[0.28406250000000005,-0.595],[0.2552083333333333,-0.620925925925926],[0.2552083333333333,-0.620925925925926],[0.24031250000000004,-0.575925925925926],[0.2203125,-0.5424074074074073],[0.2462500000000001,-0.49611111111111106],[0.21833333333333324,-0.47759259259259257],[0.17708333333333334,-0.45203703703703707],[0.17708333333333334,-0.45203703703703707],[0.121875,-0.40425925925925926],[0.121875,-0.40425925925925926],[0.10541666666666671,-0.36870370370370376],[0.03312499999999995,-0.38851851851851854],[0.03312499999999995,-0.38851851851851854],[-0.016354166666666715,-0.34296296296296297],[-0.016354166666666715,-0.34296296296296297],[-0.04906250000000002,-0.2687037037037037],[-0.04906250000000002,-0.2687037037037037],[-0.09322916666666667,-0.31722222222222224],[-0.09322916666666667,-0.31722222222222224],[-0.14677083333333332,-0.31148148148148147],[-0.2101041666666667,-0.3087037037037037],[-0.2509375,-0.2655555555555555],[-0.26833333333333337,-0.21814814814814817],[-0.22875000000000004,-0.16796296296296295],[-0.22374999999999995,-0.14203703703703702],[-0.18635416666666665,-0.08333333333333333],[-0.1920833333333333,-0.12129629629629629],[-0.178125,-0.18499999999999997],[-0.20281250000000003,-0.1735185185185185],[-0.159375,-0.24277777777777781],[-0.159375,-0.24277777777777781],[-0.13447916666666668,-0.24018518518518517],[-0.1252083333333334,-0.3044444444444444],[-0.12406250000000002,-0.3857407407407408],[-0.17687499999999995,-0.42666666666666664],[-0.21864583333333332,-0.43703703703703706],[-0.20843750000000003,-0.47851851851851845],[-0.18854166666666666,-0.48777777777777775],[-0.20677083333333332,-0.4524074074074074],[-0.20677083333333332,-0.4524074074074074],[-0.1476041666666667,-0.47481481481481475],[-0.17927083333333335,-0.44666666666666666],[-0.20020833333333338,-0.5385185185185185],[-0.15822916666666664,-0.5444444444444444],[-0.08739583333333331,-0.5161111111111111],[-0.015104166666666667,-0.5409259259259259],[0.07354166666666657,-0.5574074074074075],[0.11843750000000004,-0.522962962962963],[0.178125,-0.5003703703703704],[0.2224999999999999,-0.5435185185185185]]","[[-0.4126041666666667,0.6724074074074075,0.000199999999253464],[-0.4126041666666667,0.6724074074074075,0.03919999999925494],[-0.3890625,0.6644444444444444,0.045299999998874796],[-0.37437499999999996,0.6653703703703703,0.06199999999999761],[-0.3625,0.6738888888888889,0.07879999999887843],[-0.3466666666666666,0.6618518518518518,0.09819999999925244],[-0.29322916666666665,0.6662962962962962,0.11279999999887025],[-0.2594791666666667,0.6635185185185184,0.13259999999962702],[-0.2594791666666667,0.6635185185185184,0.14540000000036457],[-0.24770833333333328,0.6746296296296296,0.16209999999962577],[-0.24312499999999998,0.7257407407407407,0.17859999999961929],[-0.24156249999999999,0.7475925925925927,0.19529999999888048],[-0.22749999999999998,0.7468518518518518,0.21199999999998909],[-0.22843749999999996,0.759074074074074,0.22869999999925028],[-0.19760416666666672,0.8042592592592592,0.2454000000003731],[-0.19281250000000003,0.8398148148148148,0.2619000000003666],[-0.18677083333333327,0.9009259259259259,0.2785999999996278],[-0.21447916666666664,0.9303703703703705,0.2952999999988748],[-0.2283333333333334,0.9935185185185185,0.3119999999999976],[-0.246875,1.030185185185185,0.32879999999887843],[-0.23812500000000003,0.9762962962962963,0.3484000000003675],[-0.23781249999999995,0.9305555555555556,0.36199999999999477],[-0.26020833333333326,0.8894444444444444,0.3789999999999907],[-0.2856250000000001,0.8375925925925926,0.3954999999999984],[-0.29656250000000006,0.7979629629629629,0.41209999999962577],[-0.3141666666666667,0.7759259259259259,0.4286999999992531],[-0.28875000000000006,0.7372222222222222,0.4452999999988805],[-0.2795833333333333,0.737037037037037,0.4619999999999891],[-0.23125,0.6674074074074073,0.4786999999992503],[-0.18500000000000003,0.6079629629629629,0.49529999999887764],[-0.15916666666666662,0.630925925925926,0.5140999999996154],[-0.1716666666666666,0.6744444444444445,0.5291999999992498],[-0.13854166666666667,0.717962962962963,0.5452999999988748],[-0.13447916666666668,0.7329629629629629,0.5619999999999976],[-0.10322916666666669,0.6555555555555556,0.578599999999625],[-0.06510416666666667,0.6888888888888889,0.595299999998872],[-0.06520833333333335,0.7150000000000001,0.6119999999999948],[-0.03333333333333333,0.7074074074074074,0.6287999999988756],[-0.000416666666666643,0.727037037037037,0.6454000000003646],[0.020937500000000022,0.7511111111111112,0.6619000000003723],[0.0375,0.6516666666666666,0.6785999999996193],[0.08322916666666676,0.5729629629629629,0.6954000000003617],[0.06239583333333331,0.5231481481481481,0.7144000000003672],[0.09510416666666661,0.5218518518518518,0.7291999999992527],[0.1462500000000001,0.5112962962962964,0.7490999999996149],[0.13083333333333325,0.4246296296296295,0.7619000000003666],[0.17395833333333333,0.2462962962962963,0.7786999999992474],[0.18781249999999997,0.09759259259259268,0.7954000000003703],[0.15302083333333344,-0.03037037037037033,0.8119999999999976],[0.12302083333333323,-0.15407407407407406,0.828599999999625],[0.12062499999999995,-0.20907407407407402,0.8489999999999895],[0.12552083333333333,-0.2505555555555556,0.8664999999999878],[0.17895833333333327,-0.3242592592592593,0.8817999999988757],[0.18885416666666663,-0.3861111111111111,0.8996999999992426],[0.1430208333333333,-0.4131481481481482,0.9170999999996212],[0.1430208333333333,-0.4131481481481482,0.9285999999996193],[0.1703125,-0.4255555555555556,0.9452999999988805],[0.1703125,-0.4255555555555556,0.9619999999999891],[0.10927083333333343,-0.35833333333333334,0.9786999999992503],[0.10927083333333343,-0.35833333333333334,0.9954000000003731],[0.03197916666666671,-0.24444444444444444,1.015799999998876],[0.03197916666666671,-0.24444444444444444,1.0287999999988813],[0.014479166666666644,-0.1361111111111111,1.0454999999999899],[0.005729166666666666,-0.04592592592592584,1.0677999999988828],[0.005729166666666666,-0.04592592592592584,1.0789000000003597],[-0.03322916666666664,0.08407407407407404,1.0954000000003674],[-0.06822916666666666,0.16833333333333328,1.1120999999996144],[-0.12479166666666662,0.23537037037037042,1.1329999999999956],[-0.12479166666666662,0.23537037037037042,1.1456999999992519],[-0.13447916666666668,0.31370370370370365,1.1622999999988792],[-0.1342708333333333,0.45444444444444443,1.1787999999988727],[-0.1352083333333333,0.5385185185185184,1.1997999999988735],[-0.12114583333333329,0.6401851851851853,1.2147999999988741],[-0.03729166666666662,0.5935185185185186,1.2291999999992527],[-0.018229166666666668,0.5777777777777777,1.2477999999988754],[-0.013125000000000024,0.5851851851851851,1.2644000000003643],[0.022708333333333285,0.5527777777777778,1.2789000000003625],[0.057500000000000044,0.5018518518518519,1.2954999999999899],[0.08312499999999995,0.5349999999999999,1.3119999999999976],[0.12312500000000005,0.5107407407407406,1.3329000000003646],[0.08375000000000009,0.43925925925925935,1.349199999999243],[0.08583333333333343,0.37537037037037047,1.3651999999992483],[0.08864583333333324,0.31444444444444436,1.3787999999988756],[0.041979166666666616,0.3625925925925925,1.397799999998881],[0.040625,0.35555555555555557,1.4120999999996258],[0.04802083333333336,0.3411111111111112,1.4292999999988751],[0.021458333333333357,0.3072222222222222,1.4486999999992491],[0.02510416666666669,0.3464814814814815,1.4635999999996159],[0.03677083333333329,0.33277777777777784,1.4789000000003654],[0.002499999999999976,0.36629629629629623,1.4954999999999927],[0.02302083333333336,0.4170370370370371,1.515199999999254],[-0.022395833333333334,0.44833333333333336,1.5291999999992498],[-0.03999999999999997,0.4546296296296296,1.5454000000003703],[-0.03833333333333329,0.3961111111111111,1.562199999999251],[-0.06458333333333334,0.41277777777777774,1.5819999999999936],[-0.07218749999999995,0.3848148148148147,1.5974000000003628],[-0.058437500000000024,0.4624074074074075,1.6121999999992482],[-0.07416666666666671,0.4905555555555555,1.6319000000003712],[-0.04645833333333336,0.4507407407407407,1.6507999999988812],[-0.03927083333333338,0.43333333333333335,1.6674999999999898],[-0.01593749999999995,0.38129629629629624,1.6824999999999903],[0.02833333333333338,0.3844444444444445,1.695999999999998],[0.05656249999999995,0.4111111111111111,1.7119000000003695],[0.04739583333333333,0.4757407407407407,1.7290999999996188],[0.04562499999999995,0.5120370370370371,1.74579999999888],[0.015104166666666667,0.4977777777777777,1.7620000000000005],[0.007291666666666667,0.4366666666666666,1.7785999999996278],[-0.021979166666666692,0.3168518518518519,1.7954000000003703],[-0.05791666666666669,0.28129629629629627,1.8119000000003638],[-0.06510416666666667,0.1603703703703704,1.8287999999988784],[-0.11656249999999997,0.11814814814814806,1.8469000000003604],[-0.16656249999999997,0.032037037037036954,1.8619999999999948],[-0.20656249999999995,0.0014814814814813973,1.8827999999988805],[-0.20656249999999995,0.0014814814814813973,1.8997999999988764],[-0.2273958333333333,-0.03555555555555564,1.91629999999887],[-0.2094791666666667,-0.1255555555555556,1.931999999999988],[-0.18468749999999995,-0.12851851851851848,1.9454999999999956],[-0.1798958333333334,-0.13962962962962958,1.9621999999992426],[-0.18531249999999996,-0.1022222222222222,1.9819999999999993],[-0.19135416666666671,-0.13444444444444448,1.9954999999999927],[-0.16937500000000003,-0.1014814814814815,2.01209999999962],[-0.12104166666666671,-0.0933333333333333,2.03219999999925],[-0.09416666666666665,-0.06092592592592588,2.047599999999619],[-0.05947916666666669,-0.0727777777777778,2.0620999999996172],[-0.03104166666666662,-0.07333333333333338,2.0787999999988784],[-0.019583333333333286,-0.05759259259259263,2.097599999999616],[-0.03260416666666662,-0.03981481481481482,2.1121999999992482],[-0.005416666666666714,-0.018703703703703747,2.128900000000371],[-0.005416666666666714,-0.018703703703703747,2.1489999999999867],[0.003958333333333286,0.004259259259259175,2.1624000000003605],[0.006979166666666714,0.08981481481481482,2.178699999999253],[0.000416666666666643,0.11259259259259251,2.1954000000003617],[-0.021041666666666715,0.1337037037037038,2.214999999999989],[-0.02374999999999995,0.14166666666666666,2.2294999999999874],[-0.078125,0.13870370370370366,2.2454999999999927],[-0.09968750000000005,0.11907407407407399,2.2647999999988713],[-0.09458333333333328,0.130925925925926,2.2787999999988813],[-0.06958333333333329,0.13962962962962958,2.29549999999999],[-0.10802083333333339,0.14666666666666675,2.3149999999999977],[-0.11541666666666663,0.15425925925925918,2.329199999999247],[-0.1430208333333333,0.11370370370370367,2.345499999999987],[-0.16354166666666667,0.11500000000000005,2.361900000000361],[-0.17583333333333329,0.13203703703703695,2.378599999999622],[-0.15375000000000003,0.14351851851851852,2.395299999998869],[-0.12416666666666672,0.15222222222222231,2.41440000000037],[-0.11479166666666671,0.1638888888888889,2.4290999999996217],[-0.15625,0.15407407407407417,2.445999999999998],[-0.18781249999999997,0.15185185185185185,2.4651999999992427],[-0.16145833333333334,0.11740740740740736,2.47879999999887],[-0.11197916666666667,0.102962962962963,2.495400000000373],[-0.08937499999999995,0.08814814814814818,2.514599999999618],[-0.115625,0.11037037037037041,2.5287999999988813],[-0.11854166666666661,0.09796296296296292,2.5456999999992433],[-0.11135416666666664,0.09703703703703699,2.5619999999999976],[-0.07781250000000005,0.0985185185185186,2.5814000000003716],[-0.013854166666666619,0.0787037037037037,2.595499999999987],[0.046875,0.07518518518518523,2.6120999999996144],[0.10552083333333329,0.07333333333333338,2.632599999999627],[0.115625,0.10351851851851848,2.647099999999625],[0.14500000000000005,0.1361111111111111,2.6620999999996258],[0.22645833333333343,0.13537037037037042,2.678699999999253],[0.31906249999999997,0.10425925925925918,2.698699999999249],[0.41302083333333334,0.01518518518518527,2.7136999999992497],[0.39739583333333334,-0.044444444444444446,2.728999999999999],[0.40604166666666663,-0.15351851851851847,2.747599999999622],[0.3841666666666666,-0.192037037037037,2.76209999999962],[0.38260416666666663,-0.21592592592592597,2.7786999999992474],[0.3810416666666666,-0.23981481481481481,2.7954000000003703],[0.39114583333333336,-0.23129629629629625,2.814599999999615],[0.3622916666666666,-0.2574074074074074,2.8289999999999935],[0.3334374999999999,-0.26185185185185184,2.8454000000003674],[0.31354166666666666,-0.252962962962963,2.8620999999996144],[0.29270833333333335,-0.18185185185185182,2.8810000000000002],[0.32364583333333335,-0.14222222222222225,2.8954999999999984],[0.32364583333333335,-0.14222222222222225,2.9121999999992454],[0.31531250000000005,-0.05,2.933499999999995],[0.3476041666666667,-0.012222222222222264,2.948799999998883],[0.3571875000000001,0.017407407407407365,2.962099999999623],[0.3667708333333332,0.047037037037036995,2.97879999999887],[0.3780208333333334,0.012037037037037037,2.9991999999992487],[0.3958333333333333,0.012037037037037037,3.014299999998869],[0.3966666666666666,0.0477777777777777,3.02919999999925],[0.4382291666666667,0.04018518518518527,3.0454000000003703],[0.46749999999999997,0.034074074074074034,3.0619999999999976],[0.5037499999999999,0.007037037037036953,3.0809000000003692],[0.5535416666666667,-0.02629629629629638,3.095299999998872],[0.5544791666666666,-0.0198148148148149,3.1191999999992532],[0.5544791666666666,-0.0198148148148149,3.128599999999622],[0.5344791666666666,-0.04259259259259259,3.1454000000003646],[0.5344791666666666,-0.04259259259259259,3.161999999999992],[0.5104166666666666,-0.04685185185185177,3.178699999999253],[0.49343750000000003,-0.05333333333333336,3.198999999999998],[0.49343750000000003,-0.05333333333333336,3.2119000000003695],[0.5241666666666667,-0.05499999999999998,3.2286999999992503],[0.5241666666666667,-0.05499999999999998,3.245400000000373],[0.5145833333333333,-0.04685185185185177,3.2620000000000005],[0.5145833333333333,-0.04685185185185177,3.278599999999628],[0.47531249999999997,-0.032777777777777864,3.295199999999255],[0.45677083333333335,-0.04277777777777782,3.3119000000003638],[0.44989583333333344,-0.041111111111111195,3.3286999999992446],[0.4148958333333333,-0.004074074074074159,3.345299999998872],[0.41437499999999994,-0.03925925925925934,3.3619999999999948],[0.4180208333333333,-0.06574074074074074,3.3787999999988756],[0.4460416666666667,-0.12092592592592595,3.395299999998869],[0.46885416666666657,-0.15055555555555558,3.4119000000003723],[0.4587500000000001,-0.1977777777777778,3.428699999999253],[0.4432291666666667,-0.20759259259259263,3.4452999999988805],[0.43739583333333343,-0.21425925925925923,3.461999999999989],[0.39562499999999995,-0.17629629629629628,3.478499999999997],[0.3564583333333334,-0.14962962962962964,3.4952999999988776],[0.34833333333333344,-0.16888888888888887,3.5119000000003666],[0.32447916666666665,-0.1527777777777778,3.5286999999992474],[0.32937500000000003,-0.10796296296296298,3.5474999999999994],[0.31395833333333345,-0.052962962962963,3.5619000000003638],[0.3150000000000001,-0.0016666666666666245,3.5786999999992446],[0.3103125000000001,0.04796296296296292,3.5980999999996186],[0.31187500000000007,0.02092592592592584,3.611900000000361],[0.29635416666666664,0.0011111111111111532,3.6289999999999907],[0.3115624999999999,-0.06759259259259259,3.6454999999999984],[0.29697916666666657,-0.12240740740740745,3.664699999999243],[0.2961458333333333,-0.1824074074074074,3.678900000000368],[0.30406250000000007,-0.21185185185185182,3.6954999999999956],[0.27395833333333336,-0.26222222222222225,3.716099999999628],[0.2561458333333334,-0.27259259259259255,3.7319000000003655],[0.21343750000000009,-0.2851851851851852,3.7479999999999905],[0.17645833333333344,-0.297037037037037,3.7646999999992516],[0.1943749999999999,-0.3098148148148148,3.77919999999925],[0.22364583333333338,-0.29814814814814816,3.7954000000003703],[0.17520833333333338,-0.27388888888888885,3.8122999999988707],[0.22916666666666666,-0.23277777777777775,3.83190000000036],[0.20104166666666667,-0.17296296296296293,3.848499999999987],[0.16010416666666671,-0.11074074074074076,3.86399999999999],[0.16302083333333334,-0.10333333333333336,3.8786999999992418],[0.14635416666666667,-0.13925925925925925,3.8980999999996158],[0.14833333333333343,-0.008148148148148106,3.914199999999255],[0.13072916666666667,0.10185185185185185,3.9291999999992413],[0.13697916666666668,0.17555555555555546,3.9494999999999862],[0.1271874999999999,0.23648148148148157,3.9634999999999962],[0.18135416666666657,0.3742592592592593,3.97879999999887],[0.14406249999999995,0.44240740740740736,3.9994000000003638],[0.10499999999999995,0.5798148148148149,4.014599999999618],[0.10760416666666663,0.6375925925925925,4.03019999999924],[0.07833333333333338,0.6966666666666668,4.051299999998875],[0.17697916666666677,0.8598148148148147,4.06559999999962],[0.25968749999999996,0.7933333333333333,4.079099999999613],[0.3177083333333333,0.7070370370370369,4.095299999998872],[0.36604166666666677,0.6903703703703703,4.111900000000361],[0.4174999999999999,0.6857407407407407,4.128799999998876],[0.4671875,0.6199999999999999,4.145299999998869],[0.5383333333333333,0.5998148148148148,4.166599999999619],[0.5383333333333333,0.5998148148148148,4.178999999999988],[0.6474999999999999,0.5692592592592592,4.195299999998866],[0.7322916666666667,0.531111111111111,4.2119000000003695],[0.8335416666666667,0.5527777777777778,4.22869999999925],[0.7991666666666667,0.4885185185185184,4.245299999998878],[0.7620833333333332,0.4868518518518518,4.261900000000367],[0.7504166666666667,0.5553703703703703,4.278599999999614],[0.7287499999999999,0.6048148148148148,4.295199999999241],[0.7181250000000001,0.6459259259259258,4.3144000000003615],[0.6713541666666667,0.6385185185185185,4.3289999999999935],[0.6174999999999999,0.677962962962963,4.345499999999987],[0.5739583333333333,0.6390740740740741,4.361999999999995],[0.5390625,0.6218518518518518,4.38109999999962],[0.5013541666666667,0.5979629629629629,4.395400000000365],[0.4580208333333334,0.5840740740740741,4.4120999999996116],[0.41468749999999993,0.5701851851851851,4.432699999999244],[0.44406249999999997,0.490925925925926,4.447199999999242],[0.43156249999999996,0.419074074074074,4.462099999999623],[0.4091666666666666,0.3635185185185184,4.481099999999614],[0.38875000000000004,0.35425925925925916,4.495400000000359],[0.38958333333333334,0.2537037037037037,4.511999999999986],[0.43624999999999997,0.1935185185185185,4.528799999998867],[0.42864583333333334,0.14907407407407408,4.548199999999241],[0.44500000000000006,0.09574074074074082,4.562099999999617],[0.48197916666666674,0.017592592592592594,4.579099999999613],[0.5081249999999999,-0.028518518518518478,4.595400000000367],[0.4740624999999999,-0.03981481481481482,4.614099999999624],[0.45499999999999996,-0.043703703703703745,4.630400000000364],[0.44468750000000007,-0.06370370370370367,4.645599999999618],[0.44197916666666665,-0.10333333333333336,4.665400000000361],[0.45197916666666677,-0.11351851851851855,4.680400000000361],[0.43468749999999995,-0.1653703703703704,4.695299999998866],[0.4313541666666666,-0.1624074074074074,4.714299999998872],[0.4131249999999999,-0.147037037037037,4.7291999999992385],[0.4111458333333334,-0.11574074074074074,4.745599999999612],[0.3868750000000001,-0.10111111111111115,4.76209999999962],[0.42177083333333343,-0.12240740740740745,4.780999999999992],[0.421875,-0.14074074074074075,4.79549999999999],[0.4170833333333334,-0.19611111111111107,4.812699999999239],[0.4114583333333333,-0.22851851851851848,4.833799999998874],[0.3944791666666667,-0.2433333333333333,4.848099999999619],[0.3655208333333334,-0.2207407407407407,4.861999999999995],[0.3441666666666668,-0.21648148148148144,4.878799999998876],[0.33354166666666674,-0.18314814814814812,4.899299999998874],[0.31354166666666666,-0.20666666666666672,4.9151999999992455],[0.37833333333333335,-0.2535185185185185,4.932599999999624],[0.38395833333333323,-0.2644444444444445,4.9500999999996225],[0.36864583333333345,-0.2692592592592592,4.964599999999621],[0.3498958333333334,-0.25259259259259254,4.979400000000368],[0.37437500000000007,-0.2651851851851852,4.995199999999244],[0.378125,-0.2757407407407407,5.011900000000367],[0.39562499999999995,-0.30277777777777776,5.0289000000003625],[0.4188541666666666,-0.3501851851851852,5.048599999999624],[0.42510416666666656,-0.4235185185185185,5.06259999999962],[0.41822916666666665,-0.47314814814814815,5.078699999999245],[0.3536458333333333,-0.5268518518518519,5.095199999999238],[0.28489583333333335,-0.544074074074074,5.111900000000361],[0.2791666666666667,-0.5690740740740741,5.128999999999991],[0.2791666666666667,-0.5690740740740741,5.145299999998869],[0.28406250000000005,-0.595,5.161999999999992],[0.28406250000000005,-0.595,5.178799999998873],[0.2552083333333333,-0.620925925925926,5.211999999999989],[0.2552083333333333,-0.620925925925926,5.219599999999616],[0.24031250000000004,-0.575925925925926,5.2307999999988795],[0.2203125,-0.5424074074074073,5.245599999999612],[0.2462500000000001,-0.49611111111111106,5.261900000000367],[0.21833333333333324,-0.47759259259259257,5.278999999999996],[0.17708333333333334,-0.45203703703703707,5.295299999998875],[0.17708333333333334,-0.45203703703703707,5.312099999999617],[0.121875,-0.40425925925925926,5.328699999999245],[0.121875,-0.40425925925925926,5.345299999998872],[0.10541666666666671,-0.36870370370370376,5.361999999999995],[0.03312499999999995,-0.38851851851851854,5.38409999999962],[0.03312499999999995,-0.38851851851851854,5.395299999998869],[-0.016354166666666715,-0.34296296296296297,5.411999999999992],[-0.016354166666666715,-0.34296296296296297,5.428599999999619],[-0.04906250000000002,-0.2687037037037037,5.445299999998866],[-0.04906250000000002,-0.2687037037037037,5.4619000000003695],[-0.09322916666666667,-0.31722222222222224,5.478599999999616],[-0.09322916666666667,-0.31722222222222224,5.495199999999244],[-0.14677083333333332,-0.31148148148148147,5.511999999999986],[-0.2101041666666667,-0.3087037037037037,5.52919999999925],[-0.2509375,-0.2655555555555555,5.545199999999241],[-0.26833333333333337,-0.21814814814814817,5.561900000000364],[-0.22875000000000004,-0.16796296296296295,5.578599999999611],[-0.22374999999999995,-0.14203703703703702,5.595199999999238],[-0.18635416666666665,-0.08333333333333333,5.611900000000361],[-0.1920833333333333,-0.12129629629629629,5.628699999999242],[-0.178125,-0.18499999999999997,5.645499999999984],[-0.20281250000000003,-0.1735185185185185,5.661900000000358],[-0.159375,-0.24277777777777781,5.678699999999239],[-0.159375,-0.24277777777777781,5.698499999999996],[-0.13447916666666668,-0.24018518518518517,5.7119000000003695],[-0.1252083333333334,-0.3044444444444444,5.729400000000368],[-0.12406250000000002,-0.3857407407407408,5.745299999998878],[-0.17687499999999995,-0.42666666666666664,5.761900000000367],[-0.21864583333333332,-0.43703703703703706,5.778799999998867],[-0.20843750000000003,-0.47851851851851845,5.795299999998875],[-0.18854166666666666,-0.48777777777777775,5.811900000000364],[-0.20677083333333332,-0.4524074074074074,5.828699999999245],[-0.20677083333333332,-0.4524074074074074,5.845499999999987],[-0.1476041666666667,-0.47481481481481475,5.861900000000361],[-0.17927083333333335,-0.44666666666666666,5.878499999999988],[-0.20020833333333338,-0.5385185185185185,5.895299999998869],[-0.15822916666666664,-0.5444444444444444,5.911900000000358],[-0.08739583333333331,-0.5161111111111111,5.928699999999239],[-0.015104166666666667,-0.5409259259259259,5.945299999998866],[0.07354166666666657,-0.5574074074074075,5.9619000000003695],[0.11843750000000004,-0.522962962962963,5.978599999999616],[0.178125,-0.5003703703703704,5.995299999998878],[0.2224999999999999,-0.5435185185185185,6.012499999999989]]","[0.000199999999253464,0.03919999999925494,0.045299999998874796,0.06199999999999761,0.07879999999887843,0.09819999999925244,0.11279999999887025,0.13259999999962702,0.14540000000036457,0.16209999999962577,0.17859999999961929,0.19529999999888048,0.21199999999998909,0.22869999999925028,0.2454000000003731,0.2619000000003666,0.2785999999996278,0.2952999999988748,0.3119999999999976,0.32879999999887843,0.3484000000003675,0.36199999999999477,0.3789999999999907,0.3954999999999984,0.41209999999962577,0.4286999999992531,0.4452999999988805,0.4619999999999891,0.4786999999992503,0.49529999999887764,0.5140999999996154,0.5291999999992498,0.5452999999988748,0.5619999999999976,0.578599999999625,0.595299999998872,0.6119999999999948,0.6287999999988756,0.6454000000003646,0.6619000000003723,0.6785999999996193,0.6954000000003617,0.7144000000003672,0.7291999999992527,0.7490999999996149,0.7619000000003666,0.7786999999992474,0.7954000000003703,0.8119999999999976,0.828599999999625,0.8489999999999895,0.8664999999999878,0.8817999999988757,0.8996999999992426,0.9170999999996212,0.9285999999996193,0.9452999999988805,0.9619999999999891,0.9786999999992503,0.9954000000003731,1.015799999998876,1.0287999999988813,1.0454999999999899,1.0677999999988828,1.0789000000003597,1.0954000000003674,1.1120999999996144,1.1329999999999956,1.1456999999992519,1.1622999999988792,1.1787999999988727,1.1997999999988735,1.2147999999988741,1.2291999999992527,1.2477999999988754,1.2644000000003643,1.2789000000003625,1.2954999999999899,1.3119999999999976,1.3329000000003646,1.349199999999243,1.3651999999992483,1.3787999999988756,1.397799999998881,1.4120999999996258,1.4292999999988751,1.4486999999992491,1.4635999999996159,1.4789000000003654,1.4954999999999927,1.515199999999254,1.5291999999992498,1.5454000000003703,1.562199999999251,1.5819999999999936,1.5974000000003628,1.6121999999992482,1.6319000000003712,1.6507999999988812,1.6674999999999898,1.6824999999999903,1.695999999999998,1.7119000000003695,1.7290999999996188,1.74579999999888,1.7620000000000005,1.7785999999996278,1.7954000000003703,1.8119000000003638,1.8287999999988784,1.8469000000003604,1.8619999999999948,1.8827999999988805,1.8997999999988764,1.91629999999887,1.931999999999988,1.9454999999999956,1.9621999999992426,1.9819999999999993,1.9954999999999927,2.01209999999962,2.03219999999925,2.047599999999619,2.0620999999996172,2.0787999999988784,2.097599999999616,2.1121999999992482,2.128900000000371,2.1489999999999867,2.1624000000003605,2.178699999999253,2.1954000000003617,2.214999999999989,2.2294999999999874,2.2454999999999927,2.2647999999988713,2.2787999999988813,2.29549999999999,2.3149999999999977,2.329199999999247,2.345499999999987,2.361900000000361,2.378599999999622,2.395299999998869,2.41440000000037,2.4290999999996217,2.445999999999998,2.4651999999992427,2.47879999999887,2.495400000000373,2.514599999999618,2.5287999999988813,2.5456999999992433,2.5619999999999976,2.5814000000003716,2.595499999999987,2.6120999999996144,2.632599999999627,2.647099999999625,2.6620999999996258,2.678699999999253,2.698699999999249,2.7136999999992497,2.728999999999999,2.747599999999622,2.76209999999962,2.7786999999992474,2.7954000000003703,2.814599999999615,2.8289999999999935,2.8454000000003674,2.8620999999996144,2.8810000000000002,2.8954999999999984,2.9121999999992454,2.933499999999995,2.948799999998883,2.962099999999623,2.97879999999887,2.9991999999992487,3.014299999998869,3.02919999999925,3.0454000000003703,3.0619999999999976,3.0809000000003692,3.095299999998872,3.1191999999992532,3.128599999999622,3.1454000000003646,3.161999999999992,3.178699999999253,3.198999999999998,3.2119000000003695,3.2286999999992503,3.245400000000373,3.2620000000000005,3.278599999999628,3.295199999999255,3.3119000000003638,3.3286999999992446,3.345299999998872,3.3619999999999948,3.3787999999988756,3.395299999998869,3.4119000000003723,3.428699999999253,3.4452999999988805,3.461999999999989,3.478499999999997,3.4952999999988776,3.5119000000003666,3.5286999999992474,3.5474999999999994,3.5619000000003638,3.5786999999992446,3.5980999999996186,3.611900000000361,3.6289999999999907,3.6454999999999984,3.664699999999243,3.678900000000368,3.6954999999999956,3.716099999999628,3.7319000000003655,3.7479999999999905,3.7646999999992516,3.77919999999925,3.7954000000003703,3.8122999999988707,3.83190000000036,3.848499999999987,3.86399999999999,3.8786999999992418,3.8980999999996158,3.914199999999255,3.9291999999992413,3.9494999999999862,3.9634999999999962,3.97879999999887,3.9994000000003638,4.014599999999618,4.03019999999924,4.051299999998875,4.06559999999962,4.079099999999613,4.095299999998872,4.111900000000361,4.128799999998876,4.145299999998869,4.166599999999619,4.178999999999988,4.195299999998866,4.2119000000003695,4.22869999999925,4.245299999998878,4.261900000000367,4.278599999999614,4.295199999999241,4.3144000000003615,4.3289999999999935,4.345499999999987,4.361999999999995,4.38109999999962,4.395400000000365,4.4120999999996116,4.432699999999244,4.447199999999242,4.462099999999623,4.481099999999614,4.495400000000359,4.511999999999986,4.528799999998867,4.548199999999241,4.562099999999617,4.579099999999613,4.595400000000367,4.614099999999624,4.630400000000364,4.645599999999618,4.665400000000361,4.680400000000361,4.695299999998866,4.714299999998872,4.7291999999992385,4.745599999999612,4.76209999999962,4.780999999999992,4.79549999999999,4.812699999999239,4.833799999998874,4.848099999999619,4.861999999999995,4.878799999998876,4.899299999998874,4.9151999999992455,4.932599999999624,4.9500999999996225,4.964599999999621,4.979400000000368,4.995199999999244,5.011900000000367,5.0289000000003625,5.048599999999624,5.06259999999962,5.078699999999245,5.095199999999238,5.111900000000361,5.128999999999991,5.145299999998869,5.161999999999992,5.178799999998873,5.211999999999989,5.219599999999616,5.2307999999988795,5.245599999999612,5.261900000000367,5.278999999999996,5.295299999998875,5.312099999999617,5.328699999999245,5.345299999998872,5.361999999999995,5.38409999999962,5.395299999998869,5.411999999999992,5.428599999999619,5.445299999998866,5.4619000000003695,5.478599999999616,5.495199999999244,5.511999999999986,5.52919999999925,5.545199999999241,5.561900000000364,5.578599999999611,5.595199999999238,5.611900000000361,5.628699999999242,5.645499999999984,5.661900000000358,5.678699999999239,5.698499999999996,5.7119000000003695,5.729400000000368,5.745299999998878,5.761900000000367,5.778799999998867,5.795299999998875,5.811900000000364,5.828699999999245,5.845499999999987,5.861900000000361,5.878499999999988,5.895299999998869,5.911900000000358,5.928699999999239,5.945299999998866,5.9619000000003695,5.978599999999616,5.995299999998878,6.012499999999989]","[1733124739680,1733124739712,1733124739718,1733124739735,1733124739752,1733124739771,1733124739786,1733124739806,1733124739818,1733124739835,1733124739852,1733124739868,1733124739885,1733124739902,1733124739918,1733124739935,1733124739952,1733124739968,1733124739985,1733124740002,1733124740021,1733124740035,1733124740052,1733124740068,1733124740085,1733124740102,1733124740118,1733124740135,1733124740152,1733124740168,1733124740187,1733124740202,1733124740218,1733124740235,1733124740252,1733124740268,1733124740285,1733124740302,1733124740318,1733124740335,1733124740352,1733124740368,1733124740387,1733124740402,1733124740422,1733124740435,1733124740452,1733124740468,1733124740485,1733124740502,1733124740522,1733124740539,1733124740555,1733124740573,1733124740590,1733124740602,1733124740618,1733124740635,1733124740652,1733124740668,1733124740689,1733124740702,1733124740718,1733124740741,1733124740752,1733124740768,1733124740785,1733124740806,1733124740819,1733124740835,1733124740852,1733124740873,1733124740888,1733124740902,1733124740921,1733124740937,1733124740952,1733124740968,1733124740985,1733124741006,1733124741022,1733124741038,1733124741052,1733124741071,1733124741085,1733124741102,1733124741122,1733124741137,1733124741152,1733124741168,1733124741188,1733124741202,1733124741218,1733124741235,1733124741255,1733124741270,1733124741285,1733124741305,1733124741324,1733124741340,1733124741355,1733124741369,1733124741385,1733124741402,1733124741419,1733124741435,1733124741452,1733124741468,1733124741485,1733124741502,1733124741520,1733124741535,1733124741556,1733124741573,1733124741589,1733124741605,1733124741618,1733124741635,1733124741655,1733124741668,1733124741685,1733124741705,1733124741721,1733124741735,1733124741752,1733124741771,1733124741785,1733124741802,1733124741822,1733124741835,1733124741852,1733124741868,1733124741888,1733124741902,1733124741918,1733124741938,1733124741952,1733124741968,1733124741988,1733124742002,1733124742018,1733124742035,1733124742052,1733124742068,1733124742087,1733124742102,1733124742119,1733124742138,1733124742152,1733124742168,1733124742188,1733124742202,1733124742219,1733124742235,1733124742254,1733124742268,1733124742285,1733124742306,1733124742320,1733124742335,1733124742352,1733124742372,1733124742387,1733124742402,1733124742421,1733124742435,1733124742452,1733124742468,1733124742488,1733124742502,1733124742518,1733124742535,1733124742554,1733124742568,1733124742585,1733124742606,1733124742622,1733124742635,1733124742652,1733124742672,1733124742687,1733124742702,1733124742718,1733124742735,1733124742754,1733124742768,1733124742792,1733124742802,1733124742818,1733124742835,1733124742852,1733124742872,1733124742885,1733124742902,1733124742918,1733124742935,1733124742952,1733124742968,1733124742985,1733124743002,1733124743018,1733124743035,1733124743052,1733124743068,1733124743085,1733124743102,1733124743118,1733124743135,1733124743152,1733124743168,1733124743185,1733124743202,1733124743220,1733124743235,1733124743252,1733124743271,1733124743285,1733124743302,1733124743318,1733124743338,1733124743352,1733124743368,1733124743389,1733124743405,1733124743421,1733124743438,1733124743452,1733124743468,1733124743485,1733124743505,1733124743521,1733124743537,1733124743552,1733124743571,1733124743587,1733124743602,1733124743622,1733124743636,1733124743652,1733124743672,1733124743688,1733124743703,1733124743724,1733124743739,1733124743752,1733124743768,1733124743785,1733124743802,1733124743818,1733124743840,1733124743852,1733124743868,1733124743885,1733124743902,1733124743918,1733124743935,1733124743952,1733124743968,1733124743987,1733124744002,1733124744018,1733124744035,1733124744054,1733124744068,1733124744085,1733124744106,1733124744120,1733124744135,1733124744154,1733124744168,1733124744185,1733124744202,1733124744221,1733124744235,1733124744252,1733124744268,1733124744287,1733124744303,1733124744318,1733124744338,1733124744353,1733124744368,1733124744387,1733124744402,1733124744419,1733124744435,1733124744454,1733124744468,1733124744486,1733124744507,1733124744521,1733124744535,1733124744552,1733124744572,1733124744588,1733124744606,1733124744623,1733124744638,1733124744652,1733124744668,1733124744685,1733124744702,1733124744722,1733124744736,1733124744752,1733124744768,1733124744785,1733124744802,1733124744818,1733124744835,1733124744852,1733124744885,1733124744893,1733124744904,1733124744919,1733124744935,1733124744952,1733124744968,1733124744985,1733124745002,1733124745018,1733124745035,1733124745057,1733124745068,1733124745085,1733124745102,1733124745118,1733124745135,1733124745152,1733124745168,1733124745185,1733124745202,1733124745218,1733124745235,1733124745251,1733124745268,1733124745285,1733124745302,1733124745318,1733124745335,1733124745352,1733124745371,1733124745385,1733124745402,1733124745418,1733124745435,1733124745452,1733124745468,1733124745485,1733124745502,1733124745518,1733124745535,1733124745551,1733124745568,1733124745585,1733124745602,1733124745618,1733124745635,1733124745652,1733124745668,1733124745685]","[[563.9,903.1],[563.9,903.1],[586.5,898.8],[600.6,899.3],[612,903.9],[627.2,897.4],[678.5,899.8],[710.9,898.3],[710.9,898.3],[722.2,904.3],[726.6,931.9],[728.1,943.7],[741.6,943.3],[740.7,949.9],[770.3,974.3],[774.9,993.5],[780.7,1026.5],[754.1,1042.4],[740.8,1076.5],[723,1096.3],[731.4,1067.2],[731.7,1042.5],[710.2,1020.3],[685.8,992.3],[675.3,970.9],[658.4,959],[682.8,938.1],[691.6,938],[738,900.4],[782.4,868.3],[807.2,880.7],[795.2,904.2],[827,927.7],[830.9,935.8],[860.9,894],[897.5,912],[897.4,926.1],[928,922],[959.6,932.6],[980.1,945.6],[996,891.9],[1039.9,849.4],[1019.9,822.5],[1051.3,821.8],[1100.4,816.1],[1085.6,769.3],[1127,673],[1140.3,592.7],[1106.9,523.6],[1078.1,456.8],[1075.8,427.1],[1080.5,404.7],[1131.8,364.9],[1141.3,331.5],[1097.3,316.9],[1097.3,316.9],[1123.5,310.2],[1123.5,310.2],[1064.9,346.5],[1064.9,346.5],[990.7,408],[990.7,408],[973.9,466.5],[965.5,515.2],[965.5,515.2],[928.1,585.4],[894.5,630.9],[840.2,667.1],[840.2,667.1],[830.9,709.4],[831.1,785.4],[830.2,830.8],[843.7,885.7],[924.2,860.5],[942.5,852],[947.4,856],[981.8,838.5],[1015.2,811],[1039.8,828.9],[1078.2,815.8],[1040.4,777.2],[1042.4,742.7],[1045.1,709.8],[1000.3,735.8],[999,732],[1006.1,724.2],[980.6,705.9],[984.1,727.1],[995.3,719.7],[962.4,737.8],[982.1,765.2],[938.5,782.1],[921.6,785.5],[923.2,753.9],[898,762.9],[890.7,747.8],[903.9,789.7],[888.8,804.9],[915.4,783.4],[922.3,774],[944.7,745.9],[987.2,747.6],[1014.3,762],[1005.5,796.9],[1003.8,816.5],[974.5,808.8],[967,775.8],[938.9,711.1],[904.4,691.9],[897.5,626.6],[848.1,603.8],[800.1,557.3],[761.7,540.8],[761.7,540.8],[741.7,520.8],[758.9,472.2],[782.7,470.6],[787.3,464.6],[782.1,484.8],[776.3,467.4],[797.4,485.2],[843.8,489.6],[869.6,507.1],[902.9,500.7],[930.2,500.4],[941.2,508.9],[928.7,518.5],[954.8,529.9],[954.8,529.9],[963.8,542.3],[966.7,588.5],[960.4,600.8],[939.8,612.2],[937.2,616.5],[885,614.9],[864.3,604.3],[869.2,610.7],[893.2,615.4],[856.3,619.2],[849.2,623.3],[822.7,601.4],[803,602.1],[791.2,611.3],[812.4,617.5],[840.8,622.2],[849.8,628.5],[810,623.2],[779.7,622],[805,603.4],[852.5,595.6],[874.2,587.6],[849,599.6],[846.2,592.9],[853.1,592.4],[885.3,593.2],[946.7,582.5],[1005,580.6],[1061.3,579.6],[1071,595.9],[1099.2,613.5],[1177.4,613.1],[1266.3,596.3],[1356.5,548.2],[1341.5,516],[1349.8,457.1],[1328.8,436.3],[1327.3,423.4],[1325.8,410.5],[1335.5,415.1],[1307.8,401],[1280.1,398.6],[1261,403.4],[1241,441.8],[1270.7,463.2],[1270.7,463.2],[1262.7,513],[1293.7,533.4],[1302.9,549.4],[1312.1,565.4],[1322.9,546.5],[1340,546.5],[1340.8,565.8],[1380.7,561.7],[1408.8,558.4],[1443.6,543.8],[1491.4,525.8],[1492.3,529.3],[1492.3,529.3],[1473.1,517],[1473.1,517],[1450,514.7],[1433.7,511.2],[1433.7,511.2],[1463.2,510.3],[1463.2,510.3],[1454,514.7],[1454,514.7],[1416.3,522.3],[1398.5,516.9],[1391.9,517.8],[1358.3,537.8],[1357.8,518.8],[1361.3,504.5],[1388.2,474.7],[1410.1,458.7],[1400.4,433.2],[1385.5,427.9],[1379.9,424.3],[1339.8,444.8],[1302.2,459.2],[1294.4,448.8],[1271.5,457.5],[1276.2,481.7],[1261.4,511.4],[1262.4,539.1],[1257.9,565.9],[1259.4,551.3],[1244.5,540.6],[1259.1,503.5],[1245.1,473.9],[1244.3,441.5],[1251.9,425.6],[1223,398.4],[1205.9,392.8],[1164.9,386],[1129.4,379.6],[1146.6,372.7],[1174.7,379],[1128.2,392.1],[1180,414.3],[1153,446.6],[1113.7,480.2],[1116.5,484.2],[1100.5,464.8],[1102.4,535.6],[1085.5,595],[1091.5,634.8],[1082.1,667.7],[1134.1,742.1],[1098.3,778.9],[1060.8,853.1],[1063.3,884.3],[1035.2,916.2],[1129.9,1004.3],[1209.3,968.4],[1265,921.8],[1311.4,912.8],[1360.8,910.3],[1408.5,874.8],[1476.8,863.9],[1476.8,863.9],[1581.6,847.4],[1663,826.8],[1760.2,838.5],[1727.2,803.8],[1691.6,802.9],[1680.4,839.9],[1659.6,866.6],[1649.4,888.8],[1604.5,884.8],[1552.8,906.1],[1511,885.1],[1477.5,875.8],[1441.3,862.9],[1399.7,855.4],[1358.1,847.9],[1386.3,805.1],[1374.3,766.3],[1352.8,736.3],[1333.2,731.3],[1334,677],[1378.8,644.5],[1371.5,620.5],[1387.2,591.7],[1422.7,549.5],[1447.8,524.6],[1415.1,518.5],[1396.8,516.4],[1386.9,505.6],[1384.3,484.2],[1393.9,478.7],[1377.3,450.7],[1374.1,452.3],[1356.6,460.6],[1354.7,477.5],[1331.4,485.4],[1364.9,473.9],[1365,464],[1360.4,434.1],[1355,416.6],[1338.7,408.6],[1310.9,420.8],[1290.4,423.1],[1280.2,441.1],[1261,428.4],[1323.2,403.1],[1328.6,397.2],[1313.9,394.6],[1295.9,403.6],[1319.4,396.8],[1323,391.1],[1339.8,376.5],[1362.1,350.9],[1368.1,311.3],[1361.5,284.5],[1299.5,255.5],[1233.5,246.2],[1228,232.7],[1228,232.7],[1232.7,218.7],[1232.7,218.7],[1205,204.7],[1205,204.7],[1190.7,229],[1171.5,247.1],[1196.4,272.1],[1169.6,282.1],[1130,295.9],[1130,295.9],[1077,321.7],[1077,321.7],[1061.2,340.9],[991.8,330.2],[991.8,330.2],[944.3,354.8],[944.3,354.8],[912.9,394.9],[912.9,394.9],[870.5,368.7],[870.5,368.7],[819.1,371.8],[758.3,373.3],[719.1,396.6],[702.4,422.2],[740.4,449.3],[745.2,463.3],[781.1,495],[775.6,474.5],[789,440.1],[765.3,446.3],[807,408.9],[807,408.9],[830.9,410.3],[839.8,375.6],[840.9,331.7],[790.2,309.6],[750.1,304],[759.9,281.6],[779,276.6],[761.5,295.7],[761.5,295.7],[818.3,283.6],[787.9,298.8],[767.8,249.2],[808.1,246],[876.1,261.3],[945.5,247.9],[1030.6,239],[1073.7,257.6],[1131,269.8],[1173.6,246.5]]","[0,0.3527331528]","[0.3527331528,0.3527331528]","[-0.3527331528,-0.3527331528]","[-0.3527331528,0]","[0,-0.3527331528]","[0.3527331528,-0.3527331528]","[0,0]","[0.3527331528,0]",0,0,0,0,1,2,Tablet,7,1,11,9
