inst1_resp.keys,inst1_resp.rt,calibrationMouse.x,calibrationMouse.y,calibrationMouse.leftButton,calibrationMouse.midButton,calibrationMouse.rightButton,calibrationClick.x,calibrationClick.y,calibrationClick.leftButton,calibrationClick.midButton,calibrationClick.rightButton,calibrationClick.clicked_name,trialsc.thisRepN,trialsc.thisTrialN,trialsc.thisN,trialsc.thisIndex,trialsc.ran,calibration_x,calibration_y,participant,session,date,expName,psychopyVersion,OS,frameRate,ScreenRes_pixels,Camera_pixels,mouse_2.x,mouse_2.y,mouse_2.leftButton,mouse_2.midButton,mouse_2.rightButton,mouse_2.time,mouse_2.clicked_name,mouse.x,mouse.y,mouse.leftButton,mouse.midButton,mouse.rightButton,mouse.time,mouse.clicked_name,Choice,Trial,TrialDuration,MOUSE_GAZE,ET_GAZE,ET_GAZE_x_T,time,unixTime,ET_GAZE_NF,Loc_Option1_label,Loc_Option2_label,Loc_Cost_label,Loc_Qual_label,Loc_Option1_cost,Loc_Option2_cost,Loc_Option1_quality,Loc_Option2_quality,trials.thisRepN,trials.thisTrialN,trials.thisN,trials.thisIndex,trials.ran,Block,Device,cost1,qual1,cost2,qual2
space,1.298,0.176041667,-0.116666667,1,0,0,-0.670833333,0,1,0,0,calibration_square,0,0,0,2,1,-0.67,0,11,001,2024-12-02_11h46.45.673,Attention_exp_legacy,2023.1.0,Win32,59.88023952,,,,,,,,,,,,,,,,,,,,,,,,,,,,,,,,,,,,,,,,,,,,
,,,,,,,0.666666667,0.685185185,1,0,0,,0,1,1,19,1,0.67,0.67,11,001,2024-12-02_11h46.45.673,Attention_exp_legacy,2023.1.0,Win32,59.88023952,,,,,,,,,,,,,,,,,,,,,,,,,,,,,,,,,,,,,,,,,,,,
,,,,,,,0.33125,0.001851852,1,0,0,calibration_square,0,2,2,16,1,0.33,0,11,001,2024-12-02_11h46.45.673,Attention_exp_legacy,2023.1.0,Win32,59.88023952,,,,,,,,,,,,,,,,,,,,,,,,,,,,,,,,,,,,,,,,,,,,
,,,,,,,-0.003125,0.67962963,1,0,0,calibration_square,0,3,3,13,1,0,0.67,11,001,2024-12-02_11h46.45.673,Attention_exp_legacy,2023.1.0,Win32,59.88023952,,,,,,,,,,,,,,,,,,,,,,,,,,,,,,,,,,,,,,,,,,,,
,,,,,,,0.328125,0.674074074,1,0,0,calibration_square,0,4,4,18,1,0.33,0.67,11,001,2024-12-02_11h46.45.673,Attention_exp_legacy,2023.1.0,Win32,59.88023952,,,,,,,,,,,,,,,,,,,,,,,,,,,,,,,,,,,,,,,,,,,,
,,,,,,,0.675,-0.668518519,1,0,0,calibration_square,0,5,5,20,1,0.67,-0.67,11,001,2024-12-02_11h46.45.673,Attention_exp_legacy,2023.1.0,Win32,59.88023952,,,,,,,,,,,,,,,,,,,,,,,,,,,,,,,,,,,,,,,,,,,,
,,,,,,,0.001041667,0.011111111,1,0,0,,0,6,6,11,1,0,0,11,001,2024-12-02_11h46.45.673,Attention_exp_legacy,2023.1.0,Win32,59.88023952,,,,,,,,,,,,,,,,,,,,,,,,,,,,,,,,,,,,,,,,,,,,
,,,,,,,-0.334375,-0.675925926,1,0,0,calibration_square,0,7,7,4,1,-0.33,-0.67,11,001,2024-12-02_11h46.45.673,Attention_exp_legacy,2023.1.0,Win32,59.88023952,,,,,,,,,,,,,,,,,,,,,,,,,,,,,,,,,,,,,,,,,,,,
,,,,,,,0.321875,-0.67037037,1,0,0,calibration_square,0,8,8,14,1,0.33,-0.67,11,001,2024-12-02_11h46.45.673,Attention_exp_legacy,2023.1.0,Win32,59.88023952,,,,,,,,,,,,,,,,,,,,,,,,,,,,,,,,,,,,,,,,,,,,
,,,,,,,-0.332291667,-0.333333333,1,0,0,calibration_square,0,9,9,5,1,-0.33,-0.33,11,001,2024-12-02_11h46.45.673,Attention_exp_legacy,2023.1.0,Win32,59.88023952,,,,,,,,,,,,,,,,,,,,,,,,,,,,,,,,,,,,,,,,,,,,
,,,,,,,0.319791667,0.337037037,1,0,0,,0,10,10,17,1,0.33,0.33,11,001,2024-12-02_11h46.45.673,Attention_exp_legacy,2023.1.0,Win32,59.88023952,,,,,,,,,,,,,,,,,,,,,,,,,,,,,,,,,,,,,,,,,,,,
,,,,,,,0.002083333,0.331481481,1,0,0,calibration_square,0,11,11,12,1,0,0.33,11,001,2024-12-02_11h46.45.673,Attention_exp_legacy,2023.1.0,Win32,59.88023952,,,,,,,,,,,,,,,,,,,,,,,,,,,,,,,,,,,,,,,,,,,,
,,,,,,,-0.326041667,0.32037037,1,0,0,calibration_square,0,12,12,7,1,-0.33,0.33,11,001,2024-12-02_11h46.45.673,Attention_exp_legacy,2023.1.0,Win32,59.88023952,,,,,,,,,,,,,,,,,,,,,,,,,,,,,,,,,,,,,,,,,,,,
,,,,,,,0.003125,-0.672222222,1,0,0,calibration_square,0,13,13,9,1,0,-0.67,11,001,2024-12-02_11h46.45.673,Attention_exp_legacy,2023.1.0,Win32,59.88023952,,,,,,,,,,,,,,,,,,,,,,,,,,,,,,,,,,,,,,,,,,,,
,,,,,,,-0.667708333,-0.662962963,1,0,0,calibration_square,0,14,14,0,1,-0.67,-0.67,11,001,2024-12-02_11h46.45.673,Attention_exp_legacy,2023.1.0,Win32,59.88023952,,,,,,,,,,,,,,,,,,,,,,,,,,,,,,,,,,,,,,,,,,,,
,,,,,,,0.005208333,-0.312962963,1,0,0,,0,15,15,10,1,0,-0.33,11,001,2024-12-02_11h46.45.673,Attention_exp_legacy,2023.1.0,Win32,59.88023952,,,,,,,,,,,,,,,,,,,,,,,,,,,,,,,,,,,,,,,,,,,,
,,,,,,,-0.665625,0.333333333,1,0,0,calibration_square,0,16,16,3,1,-0.67,0.33,11,001,2024-12-02_11h46.45.673,Attention_exp_legacy,2023.1.0,Win32,59.88023952,,,,,,,,,,,,,,,,,,,,,,,,,,,,,,,,,,,,,,,,,,,,
,,,,,,,0.322916667,-0.324074074,1,0,0,calibration_square,0,17,17,15,1,0.33,-0.33,11,001,2024-12-02_11h46.45.673,Attention_exp_legacy,2023.1.0,Win32,59.88023952,,,,,,,,,,,,,,,,,,,,,,,,,,,,,,,,,,,,,,,,,,,,
,,,,,,,-0.319791667,0.001851852,1,0,0,,0,18,18,6,1,-0.33,0,11,001,2024-12-02_11h46.45.673,Attention_exp_legacy,2023.1.0,Win32,59.88023952,,,,,,,,,,,,,,,,,,,,,,,,,,,,,,,,,,,,,,,,,,,,
,,,,,,,-0.323958333,0.651851852,1,0,0,,0,19,19,8,1,-0.33,0.67,11,001,2024-12-02_11h46.45.673,Attention_exp_legacy,2023.1.0,Win32,59.88023952,,,,,,,,,,,,,,,,,,,,,,,,,,,,,,,,,,,,,,,,,,,,
,,,,,,,-0.672916667,-0.32962963,1,0,0,calibration_square,0,20,20,1,1,-0.67,-0.33,11,001,2024-12-02_11h46.45.673,Attention_exp_legacy,2023.1.0,Win32,59.88023952,,,,,,,,,,,,,,,,,,,,,,,,,,,,,,,,,,,,,,,,,,,,
,,,,,,,,,,,,,,,,,,,,11,001,2024-12-02_11h46.45.673,Attention_exp_legacy,2023.1.0,Win32,59.88023952,"[1920,1080]","[640,480]",[0.03333333333333333],[-0.4925925925925926],[1],[0],[0],[1.361099999999979],"[""StartButton""]",[0.08229166666666667],[0.5351851851851852],[1],[0],[0],[3.329799999999935],"[""Option1_label""]",Option1_label,1,4.3561,"[[0.040625,-0.2],[0.040625,-0.2],[0.040625,-0.2],[0.040625,-0.2],[0.040625,-0.2],[0.040625,-0.2],[0.040625,-0.2],[0.040625,-0.2],[0.040625,-0.2],[0.040625,-0.2],[0.040625,-0.2],[0.040625,-0.2],[0.040625,-0.2],[0.040625,-0.2],[0.040625,-0.2],[0.040625,-0.2],[0.040625,-0.2],[0.040625,-0.2],[0.040625,-0.2],[0.040625,-0.2],[0.040625,-0.2],[0.040625,-0.2],[0.040625,-0.2],[0.040625,-0.2],[0.040625,-0.2],[0.040625,-0.2],[0.03958333333333333,-0.2],[0.03958333333333333,-0.2],[0.03958333333333333,-0.2],[0.03958333333333333,-0.2],[0.03958333333333333,-0.2],[0.03958333333333333,-0.2],[0.03958333333333333,-0.2],[0.03958333333333333,-0.2],[0.03854166666666667,-0.19444444444444445],[0.03854166666666667,-0.19074074074074074],[0.03854166666666667,-0.1814814814814815],[0.03854166666666667,-0.17962962962962964],[0.03854166666666667,-0.17962962962962964],[0.03854166666666667,-0.17962962962962964],[0.03854166666666667,-0.17962962962962964],[0.03854166666666667,-0.17962962962962964],[0.03854166666666667,-0.17962962962962964],[0.03854166666666667,-0.17962962962962964],[0.03854166666666667,-0.17962962962962964],[0.03854166666666667,-0.17962962962962964],[0.03854166666666667,-0.17962962962962964],[0.03854166666666667,-0.17962962962962964],[0.03854166666666667,-0.17962962962962964],[0.03854166666666667,-0.17962962962962964],[0.03854166666666667,-0.17962962962962964],[0.03854166666666667,-0.17962962962962964],[0.03854166666666667,-0.17962962962962964],[0.03854166666666667,-0.17962962962962964],[0.03854166666666667,-0.17962962962962964],[0.03854166666666667,-0.17962962962962964],[0.03854166666666667,-0.17962962962962964],[0.03854166666666667,-0.17962962962962964],[0.03854166666666667,-0.17962962962962964],[0.03854166666666667,-0.17962962962962964],[0.03854166666666667,-0.17962962962962964],[0.03854166666666667,-0.17962962962962964],[0.03854166666666667,-0.17962962962962964],[0.03854166666666667,-0.17962962962962964],[0.03854166666666667,-0.17962962962962964],[0.03854166666666667,-0.17962962962962964],[0.03854166666666667,-0.17962962962962964],[0.03854166666666667,-0.17962962962962964],[0.03854166666666667,-0.17962962962962964],[0.03854166666666667,-0.17962962962962964],[0.03854166666666667,-0.17962962962962964],[0.03854166666666667,-0.17962962962962964],[0.03854166666666667,-0.17962962962962964],[0.03854166666666667,-0.17962962962962964],[0.03854166666666667,-0.17962962962962964],[0.03854166666666667,-0.17962962962962964],[0.03854166666666667,-0.17962962962962964],[0.03854166666666667,-0.17962962962962964],[0.03854166666666667,-0.17962962962962964],[0.03854166666666667,-0.17962962962962964],[0.03854166666666667,-0.17962962962962964],[0.0375,-0.17962962962962964],[0.04375,-0.17592592592592593],[0.05,-0.17407407407407408],[0.05,-0.17592592592592593],[0.05,-0.17592592592592593],[0.05,-0.17592592592592593],[0.053125,-0.17407407407407408],[0.057291666666666664,-0.14814814814814814],[0.0625,-0.09444444444444444],[0.065625,-0.05],[0.06666666666666667,0.003703703703703704],[0.06666666666666667,0.06481481481481481],[0.06666666666666667,0.1259259259259259],[0.07291666666666667,0.19814814814814816],[0.078125,0.24814814814814815],[0.08125,0.29074074074074074],[0.08541666666666667,0.32222222222222224],[0.08854166666666667,0.3425925925925926],[0.09375,0.3537037037037037],[0.09375,0.3537037037037037],[0.09375,0.3537037037037037],[0.09375,0.3537037037037037],[0.09375,0.3537037037037037],[0.09375,0.3537037037037037],[0.09375,0.3537037037037037],[0.09375,0.3537037037037037],[0.09375,0.3537037037037037],[0.09375,0.3537037037037037],[0.09375,0.3537037037037037],[0.09375,0.3537037037037037],[0.09375,0.3537037037037037],[0.09375,0.3537037037037037],[0.09375,0.3537037037037037],[0.09375,0.3537037037037037],[0.09375,0.3537037037037037],[0.09375,0.3537037037037037],[0.09375,0.3537037037037037],[0.09375,0.3537037037037037],[0.09375,0.3537037037037037],[0.09479166666666666,0.3537037037037037],[0.09479166666666666,0.3537037037037037],[0.09479166666666666,0.3537037037037037],[0.09479166666666666,0.3537037037037037],[0.09479166666666666,0.35],[0.09583333333333334,0.34814814814814815],[0.096875,0.34814814814814815],[0.09791666666666667,0.34814814814814815],[0.09895833333333333,0.34814814814814815],[0.1,0.34444444444444444],[0.10104166666666667,0.34444444444444444],[0.10104166666666667,0.34444444444444444],[0.10104166666666667,0.34444444444444444],[0.10104166666666667,0.34444444444444444],[0.10104166666666667,0.34444444444444444],[0.10104166666666667,0.34444444444444444],[0.10104166666666667,0.34444444444444444],[0.10104166666666667,0.34444444444444444],[0.10104166666666667,0.34444444444444444],[0.10104166666666667,0.34444444444444444],[0.10104166666666667,0.34444444444444444],[0.10104166666666667,0.34444444444444444],[0.10104166666666667,0.34444444444444444],[0.10104166666666667,0.34444444444444444],[0.10104166666666667,0.34444444444444444],[0.10104166666666667,0.34444444444444444],[0.10104166666666667,0.34444444444444444],[0.10104166666666667,0.34444444444444444],[0.10104166666666667,0.34444444444444444],[0.10104166666666667,0.34444444444444444],[0.10104166666666667,0.34444444444444444],[0.10104166666666667,0.34444444444444444],[0.10104166666666667,0.34444444444444444],[0.10104166666666667,0.34444444444444444],[0.10104166666666667,0.34444444444444444],[0.10104166666666667,0.34444444444444444],[0.10104166666666667,0.34444444444444444],[0.10104166666666667,0.34444444444444444],[0.10104166666666667,0.34444444444444444],[0.103125,0.34444444444444444],[0.10520833333333333,0.34444444444444444],[0.10729166666666666,0.34444444444444444],[0.1125,0.34629629629629627],[0.11875,0.34814814814814815],[0.12708333333333333,0.35],[0.14166666666666666,0.3537037037037037],[0.16041666666666668,0.3574074074074074],[0.18125,0.362962962962963],[0.19479166666666667,0.362962962962963],[0.2,0.362962962962963],[0.203125,0.362962962962963],[0.20416666666666666,0.362962962962963],[0.20416666666666666,0.362962962962963],[0.20520833333333333,0.362962962962963],[0.20520833333333333,0.362962962962963],[0.20520833333333333,0.362962962962963],[0.20520833333333333,0.362962962962963],[0.20520833333333333,0.362962962962963],[0.20625,0.3648148148148148],[0.20625,0.37222222222222223],[0.20416666666666666,0.3851851851851852],[0.19270833333333334,0.4074074074074074],[0.17604166666666668,0.43148148148148147],[0.13854166666666667,0.4722222222222222],[0.125,0.48518518518518516],[0.09583333333333334,0.5185185185185185],[0.08541666666666667,0.5314814814814814],[0.08229166666666667,0.5351851851851852],[0.08229166666666667,0.5351851851851852],[0.08229166666666667,0.5351851851851852],[0.08229166666666667,0.5351851851851852],[0.08229166666666667,0.5351851851851852],[0.08229166666666667,0.5351851851851852],[0.08229166666666667,0.5351851851851852],[0.08229166666666667,0.5351851851851852],[0.08229166666666667,0.5351851851851852],[0.08229166666666667,0.5351851851851852],[0.08229166666666667,0.5351851851851852],[0.08229166666666667,0.5351851851851852],[0.08229166666666667,0.5351851851851852],[0.08229166666666667,0.5351851851851852],[0.08229166666666667,0.5351851851851852],[0.08229166666666667,0.5351851851851852],[0.08229166666666667,0.5351851851851852],[0.08229166666666667,0.5351851851851852],[0.08229166666666667,0.5351851851851852],[0.08229166666666667,0.5351851851851852],[0.08229166666666667,0.5351851851851852],[0.08229166666666667,0.5351851851851852],[0.08229166666666667,0.5351851851851852],[0.08229166666666667,0.5351851851851852],[0.08229166666666667,0.5351851851851852],[0.08229166666666667,0.5351851851851852],[0.08229166666666667,0.5351851851851852],[0.08229166666666667,0.5351851851851852],[0.08229166666666667,0.5351851851851852],[0.08229166666666667,0.5351851851851852],[0.08229166666666667,0.5351851851851852],[0.08229166666666667,0.5351851851851852],[0.08229166666666667,0.5351851851851852],[0.08229166666666667,0.5351851851851852],[0.08229166666666667,0.5388888888888889],[0.08229166666666667,0.5388888888888889],[0.08229166666666667,0.5388888888888889],[0.08229166666666667,0.5388888888888889],[0.08229166666666667,0.5388888888888889],[0.08229166666666667,0.5388888888888889],[0.08229166666666667,0.5388888888888889],[0.08229166666666667,0.5388888888888889],[0.08229166666666667,0.5388888888888889],[0.08229166666666667,0.5388888888888889],[0.08229166666666667,0.5388888888888889],[0.08229166666666667,0.5388888888888889],[0.08229166666666667,0.5388888888888889],[0.08229166666666667,0.5388888888888889],[0.08229166666666667,0.5388888888888889],[0.08229166666666667,0.5388888888888889],[0.08229166666666667,0.5388888888888889],[0.08229166666666667,0.5388888888888889],[0.08229166666666667,0.5388888888888889],[0.08229166666666667,0.5388888888888889],[0.08229166666666667,0.5388888888888889],[0.08229166666666667,0.5388888888888889],[0.08229166666666667,0.5388888888888889],[0.08229166666666667,0.5388888888888889],[0.08229166666666667,0.5388888888888889],[0.08229166666666667,0.5388888888888889],[0.08229166666666667,0.5388888888888889],[0.08229166666666667,0.5407407407407407],[0.08229166666666667,0.5407407407407407],[0.08229166666666667,0.5407407407407407],[0.08229166666666667,0.5407407407407407],[0.08229166666666667,0.5407407407407407],[0.08229166666666667,0.5407407407407407],[0.08229166666666667,0.5407407407407407],[0.08229166666666667,0.5407407407407407],[0.08229166666666667,0.5407407407407407],[0.08229166666666667,0.5407407407407407],[0.08229166666666667,0.5407407407407407],[0.08229166666666667,0.5407407407407407],[0.08229166666666667,0.5407407407407407]]","[[-0.2640625,-0.03944444444444436],[-0.2640625,-0.03944444444444436],[-0.24864583333333337,-0.06222222222222226],[-0.24864583333333337,-0.06222222222222226],[-0.24166666666666667,-0.000925925925925926],[-0.23239583333333336,-0.034074074074074034],[-0.24593750000000003,-0.10759259259259263],[-0.23843749999999997,-0.14870370370370373],[-0.24249999999999997,-0.17833333333333334],[-0.2671875,-0.2064814814814815],[-0.29187500000000005,-0.2346296296296296],[-0.3095833333333334,-0.19759259259259257],[-0.2990625,-0.17629629629629628],[-0.32000000000000006,-0.18574074074074076],[-0.3380208333333333,-0.23648148148148146],[-0.37166666666666665,-0.2381481481481482],[-0.38250000000000006,-0.19944444444444442],[-0.38604166666666667,-0.18314814814814812],[-0.3780208333333333,-0.17833333333333334],[-0.36437499999999995,-0.19388888888888886],[-0.3507291666666667,-0.2094444444444445],[-0.3372916666666666,-0.2788888888888889],[-0.336875,-0.33666666666666667],[-0.34822916666666665,-0.33370370370370367],[-0.35958333333333337,-0.3307407407407408],[-0.4014583333333333,-0.3235185185185185],[-0.4432291666666667,-0.3205555555555556],[-0.39864583333333337,-0.25759259259259265],[-0.39791666666666664,-0.23148148148148148],[-0.40427083333333336,-0.1985185185185185],[-0.40427083333333336,-0.1985185185185185],[-0.3702083333333333,-0.15],[-0.3486458333333334,-0.0794444444444444],[-0.34697916666666667,0.005555555555555556],[-0.3145833333333333,0.0544444444444444],[-0.29447916666666674,0.1],[-0.23635416666666664,0.12314814814814815],[-0.17468750000000005,0.14722222222222223],[-0.19145833333333329,0.14666666666666675],[-0.14427083333333332,0.18351851851851855],[-0.09708333333333338,0.22037037037037038],[-0.07520833333333338,0.1911111111111112],[-0.05333333333333338,0.1618518518518518],[-0.013854166666666619,0.13481481481481472],[0.0140625,0.10037037037037046],[0.0625,0.05055555555555547],[0.10885416666666667,0.0294444444444444],[0.15239583333333329,0.022777777777777692],[0.20812499999999995,-0.01907407407407399],[0.20270833333333324,-0.05407407407407405],[0.20208333333333334,-0.10388888888888893],[0.22999999999999995,-0.09444444444444444],[0.22999999999999995,-0.09444444444444444],[0.2587500000000001,-0.08407407407407404],[0.2587500000000001,-0.08407407407407404],[0.2795833333333334,-0.1190740740740741],[0.2795833333333334,-0.1190740740740741],[0.33354166666666674,-0.11018518518518519],[0.33354166666666674,-0.11018518518518519],[0.35968749999999994,-0.1175925925925926],[0.35968749999999994,-0.1175925925925926],[0.3693749999999999,-0.1594444444444445],[0.3693749999999999,-0.1594444444444445],[0.3714583333333332,-0.26722222222222225],[0.3714583333333332,-0.26722222222222225],[0.3328125,-0.30629629629629623],[0.3328125,-0.30629629629629623],[0.3623958333333334,-0.37666666666666665],[0.3623958333333334,-0.37666666666666665],[0.37041666666666656,-0.4401851851851852],[0.3451041666666666,-0.4922222222222222],[0.3451041666666666,-0.4922222222222222],[0.3342708333333334,-0.4955555555555556],[0.3342708333333334,-0.4955555555555556],[0.2913541666666667,-0.41388888888888886],[0.17197916666666657,-0.4051851851851852],[0.09281249999999991,-0.384074074074074],[0.03218749999999997,-0.35722222222222216],[-0.016666666666666666,-0.2388888888888889],[-0.052187500000000026,-0.167037037037037],[-0.1202083333333333,-0.06925925925925921],[-0.11499999999999998,0.03259259259259263],[-0.12374999999999996,0.10388888888888893],[-0.12364583333333339,0.07962962962962963],[-0.08125,-0.000925925925925926],[-0.01114583333333338,-0.01314814814814819],[0.034895833333333334,0.003888888888888931],[0.03354166666666671,0.09055555555555551],[0.03354166666666671,0.09055555555555551],[0.05458333333333331,0.07666666666666662],[0.057395833333333354,0.03314814814814811],[0.08937499999999995,-0.01722222222222214],[0.07062499999999995,-0.048333333333333374],[0.03114583333333331,-0.03833333333333342],[-0.027395833333333286,0.013518518518518435],[-0.10958333333333338,0.09518518518518514],[-0.14812500000000003,0.1331481481481481],[-0.1842708333333333,0.1933333333333333],[-0.16281249999999994,0.12166666666666676],[-0.15729166666666666,0.1300000000000001],[-0.17541666666666664,0.17111111111111107],[-0.18531249999999996,0.21129629629629634],[-0.23843749999999997,0.27018518518518514],[-0.22041666666666668,0.26851851851851855],[-0.25427083333333333,0.3007407407407407],[-0.21927083333333333,0.26444444444444437],[-0.22104166666666672,0.23537037037037042],[-0.22104166666666672,0.23537037037037042],[-0.20812499999999995,0.1574074074074074],[-0.24770833333333328,0.19388888888888897],[-0.2990625,0.1948148148148149],[-0.29562499999999997,0.20981481481481473],[-0.32135416666666666,0.19611111111111107],[-0.30406249999999996,0.11796296296296305],[-0.33354166666666674,0.06962962962962967],[-0.3055208333333333,0.022777777777777692],[-0.32270833333333326,0.014629629629629588],[-0.3502083333333334,0.04388888888888897],[-0.34750000000000003,0.03351851851851856],[-0.2997916666666666,0.03981481481481482],[-0.21625000000000003,-0.007592592592592635],[-0.1877083333333334,-0.000925925925925926],[-0.12250000000000003,-0.03259259259259263],[-0.0546875,-0.0012962962962963806],[0.0171875,0.028888888888888933],[0.03843749999999998,-0.024814814814814772],[0.07322916666666662,-0.0242592592592593],[0.13864583333333325,-0.05648148148148148],[0.16020833333333329,-0.02907407407407416],[0.19572916666666676,-0.0772222222222222],[0.1818749999999999,-0.07148148148148152],[0.1993750000000001,-0.17037037037037037],[0.15947916666666656,-0.18574074074074076],[0.10354166666666677,-0.15796296296296297],[0.10354166666666677,-0.15796296296296297],[0.04354166666666662,-0.12907407407407406],[0.022500000000000023,-0.07703703703703708],[0.0021875000000000236,-0.08537037037037042],[-0.018124999999999978,-0.09370370370370375],[-0.041875000000000044,-0.11407407407407412],[-0.06520833333333335,-0.08981481481481482],[-0.08677083333333328,-0.07185185185185188],[-0.09697916666666669,-0.03537037037037041],[-0.10510416666666664,0.002962962962963005],[-0.10531250000000002,-0.034444444444444486],[-0.09052083333333331,-0.04333333333333329],[-0.03354166666666671,-0.06111111111111111],[0.004062499999999977,-0.10166666666666663],[0.01083333333333331,-0.09611111111111106],[0.027708333333333356,-0.09296296296296294],[0.04624999999999998,-0.15833333333333333],[0.07687499999999996,-0.19814814814814816],[0.10864583333333329,-0.22148148148148153],[0.16593749999999996,-0.26888888888888884],[0.22322916666666662,-0.3162962962962963],[0.2604166666666667,-0.4148148148148148],[0.25635416666666655,-0.475],[0.25031249999999994,-0.4646296296296296],[0.25031249999999994,-0.4646296296296296],[0.2791666666666667,-0.529074074074074],[0.28187499999999993,-0.522962962962963],[0.26437499999999997,-0.492037037037037],[0.24447916666666672,-0.4772222222222222],[0.21166666666666673,-0.4637037037037037],[0.18614583333333337,-0.442037037037037],[0.1586458333333333,-0.39296296296296296],[0.13624999999999995,-0.3212962962962963],[0.09083333333333338,-0.2403703703703704],[0.07125000000000009,-0.25],[0.025937499999999978,-0.17074074074074072],[0.013125000000000024,-0.20333333333333337],[0.013125000000000024,-0.20333333333333337],[-0.02781250000000005,-0.16796296296296295],[-0.002916666666666619,-0.15111111111111114],[-0.002916666666666619,-0.15111111111111114],[0.026041666666666668,-0.12407407407407407],[0.028437499999999952,-0.11555555555555551],[0.025312499999999953,-0.14074074074074075],[0.029375000000000047,-0.1368518518518518],[0.06510416666666667,-0.15203703703703708],[0.08208333333333329,-0.11833333333333329],[0.11645833333333329,-0.2064814814814815],[0.13447916666666657,-0.2727777777777778],[0.16749999999999995,-0.3957407407407407],[0.16749999999999995,-0.3957407407407407],[0.1474999999999999,-0.4644444444444445],[0.13291666666666657,-0.4940740740740741],[0.1224999999999999,-0.5237037037037037],[0.1224999999999999,-0.5237037037037037],[0.09552083333333337,-0.5725925925925925],[0.09552083333333337,-0.5725925925925925],[0.07916666666666666,-0.6274074074074074],[0.07916666666666666,-0.6274074074074074],[0.03156249999999995,-0.7074074074074074],[0.03156249999999995,-0.7074074074074074],[0.0018749999999999527,-0.7757407407407407],[-0.024479166666666666,-0.820925925925926],[-0.04864583333333338,-0.8392592592592593],[-0.051770833333333384,-0.8505555555555556],[-0.06531250000000005,-0.8814814814814815],[-0.06531250000000005,-0.8814814814814815],[-0.07718750000000002,-0.962037037037037],[-0.09104166666666665,-0.9938888888888889],[-0.06906249999999996,-1.0218518518518518],[-0.08666666666666671,-1.0218518518518518],[-0.05802083333333338,-0.9864814814814815],[-0.04812500000000005,-0.9338888888888889],[-0.06437499999999995,-0.8581481481481481],[-0.06968749999999997,-0.7992592592592593],[-0.08343750000000003,-0.6977777777777778],[-0.09718749999999995,-0.5962962962962963],[-0.1045833333333333,-0.5138888888888888],[-0.1046875,-0.4583333333333333],[-0.13239583333333335,-0.3655555555555555],[-0.13833333333333328,-0.32388888888888884],[-0.1592708333333333,-0.2824074074074074],[-0.16989583333333336,-0.2855555555555555],[-0.14572916666666663,-0.26722222222222225],[-0.13052083333333328,-0.23444444444444448],[-0.11333333333333329,-0.25685185185185183],[-0.10364583333333334,-0.2831481481481481],[-0.109375,-0.3111111111111111],[-0.11510416666666666,-0.3446296296296297],[-0.10499999999999995,-0.3937037037037037],[-0.10291666666666661,-0.45185185185185184],[-0.08916666666666669,-0.48777777777777775],[-0.08489583333333334,-0.507962962962963],[-0.07958333333333331,-0.5361111111111111],[-0.06895833333333339,-0.5635185185185185],[-0.07145833333333336,-0.5798148148148149],[-0.06645833333333329,-0.5922222222222222],[-0.03885416666666662,-0.5857407407407408],[-0.011249999999999953,-0.5737037037037037],[0.015208333333333357,-0.5644444444444444],[0.049270833333333285,-0.5466666666666666],[0.06239583333333331,-0.5162962962962964],[0.08666666666666671,-0.487962962962963],[0.06218750000000005,-0.43499999999999994],[0.02010416666666662,-0.3972222222222222],[-0.019791666666666666,-0.3074074074074074],[-0.05687500000000002,-0.2096296296296296],[-0.11739583333333338,-0.11981481481481479],[-0.16239583333333332,-0.032037037037036954],[-0.22135416666666666,0.07555555555555547],[-0.28395833333333337,0.18703703703703703],[-0.3445833333333333,0.2727777777777777],[-0.4080208333333334,0.32407407407407407],[-0.42843749999999997,0.3483333333333334],[-0.4373958333333333,0.39648148148148155],[-0.4248958333333333,0.4064814814814815],[-0.38781249999999995,0.39277777777777784],[-0.3385416666666667,0.3290740740740742],[-0.3204166666666667,0.33000000000000007],[-0.2607291666666666,0.2737037037037036],[-0.18093750000000006,0.18518518518518517],[-0.0967708333333333,0.09888888888888885],[-0.02687499999999995,0.05018518518518523],[0.03250000000000005,0.0003703703703704546],[0.09562499999999995,-0.045740740740740825],[0.16375000000000003,-0.10240740740740743],[0.20447916666666663,-0.14333333333333328]]","[[-0.2640625,-0.03944444444444436,0.00020000000007058816],[-0.2640625,-0.03944444444444436,0.041400000000024306],[-0.24864583333333337,-0.06222222222222226,0.05959999999998189],[-0.24864583333333337,-0.06222222222222226,0.0730999999999824],[-0.24166666666666667,-0.000925925925925926,0.08959999999997592],[-0.23239583333333336,-0.034074074074074034,0.10620000000007224],[-0.24593750000000003,-0.10759259259259263,0.12280000000004776],[-0.23843749999999997,-0.14870370370370373,0.1395000000000053],[-0.24249999999999997,-0.17833333333333334,0.1560999999999808],[-0.2671875,-0.2064814814814815,0.17300000000000182],[-0.29187500000000005,-0.2346296296296296,0.18950000000000244],[-0.3095833333333334,-0.19759259259259257,0.20609999999997797],[-0.2990625,-0.17629629629629628,0.22290000000002408],[-0.32000000000000006,-0.18574074074074076,0.2395999999999816],[-0.3380208333333333,-0.23648148148148146,0.2565000000000026],[-0.37166666666666665,-0.2381481481481482,0.27309999999997814],[-0.38250000000000006,-0.19944444444444442,0.28950000000000387],[-0.38604166666666667,-0.18314814814814812,0.3062000000000751],[-0.3780208333333333,-0.17833333333333334,0.3228000000000506],[-0.36437499999999995,-0.19388888888888886,0.339500000000001],[-0.3507291666666667,-0.2094444444444445,0.35620000000007224],[-0.3372916666666666,-0.2788888888888889,0.3744000000000227],[-0.336875,-0.33666666666666667,0.38990000000002567],[-0.34822916666666665,-0.33370370370370367,0.4062000000000694],[-0.35958333333333337,-0.3307407407407408,0.4229000000000269],[-0.4014583333333333,-0.3235185185185185,0.43950000000000244],[-0.4432291666666667,-0.3205555555555556,0.4585999999999828],[-0.39864583333333337,-0.25759259259259265,0.4730000000000061],[-0.39791666666666664,-0.23148148148148148,0.4897000000000702],[-0.40427083333333336,-0.1985185185185185,0.5060999999999822],[-0.40427083333333336,-0.1985185185185185,0.5229000000000283],[-0.3702083333333333,-0.15,0.5395000000000039],[-0.3486458333333334,-0.0794444444444444,0.5560999999999794],[-0.34697916666666667,0.005555555555555556,0.5729000000000255],[-0.3145833333333333,0.0544444444444444,0.5915000000000035],[-0.29447916666666674,0.1,0.6063000000000471],[-0.23635416666666664,0.12314814814814815,0.6230999999999796],[-0.17468750000000005,0.14722222222222223,0.6397000000000759],[-0.19145833333333329,0.14666666666666675,0.6562000000000694],[-0.14427083333333332,0.18351851851851855,0.6730999999999767],[-0.09708333333333338,0.22037037037037038,0.6895000000000024],[-0.07520833333333338,0.1911111111111112,0.706099999999978],[-0.05333333333333338,0.1618518518518518,0.7228000000000492],[-0.013854166666666619,0.13481481481481472,0.7394999999999996],[0.0140625,0.10037037037037046,0.7560999999999822],[0.0625,0.05055555555555547,0.7755999999999759],[0.10885416666666667,0.0294444444444444,0.7917000000000698],[0.15239583333333329,0.022777777777777692,0.8062000000000751],[0.20812499999999995,-0.01907407407407399,0.8228000000000506],[0.20270833333333324,-0.05407407407407405,0.839500000000001],[0.20208333333333334,-0.10388888888888893,0.8562000000000722],[0.22999999999999995,-0.09444444444444444,0.8729000000000227],[0.22999999999999995,-0.09444444444444444,0.8895000000000053],[0.2587500000000001,-0.08407407407407404,0.9062000000000694],[0.2587500000000001,-0.08407407407407404,0.922800000000052],[0.2795833333333334,-0.1190740740740741,0.9395000000000024],[0.2795833333333334,-0.1190740740740741,0.9562000000000737],[0.33354166666666674,-0.11018518518518519,0.9729000000000241],[0.33354166666666674,-0.11018518518518519,0.9894999999999996],[0.35968749999999994,-0.1175925925925926,1.0062000000000708],[0.35968749999999994,-0.1175925925925926,1.0229000000000283],[0.3693749999999999,-0.1594444444444445,1.0395000000000039],[0.3693749999999999,-0.1594444444444445,1.056200000000075],[0.3714583333333332,-0.26722222222222225,1.0729000000000255],[0.3714583333333332,-0.26722222222222225,1.089500000000001],[0.3328125,-0.30629629629629623,1.1062000000000722],[0.3328125,-0.30629629629629623,1.1228000000000478],[0.3623958333333334,-0.37666666666666665,1.1395000000000053],[0.3623958333333334,-0.37666666666666665,1.1562000000000694],[0.37041666666666656,-0.4401851851851852,1.172800000000052],[0.3451041666666666,-0.4922222222222222,1.1940999999999775],[0.3451041666666666,-0.4922222222222222,1.2062000000000737],[0.3342708333333334,-0.4955555555555556,1.222900000000024],[0.3342708333333334,-0.4955555555555556,1.2394999999999996],[0.2913541666666667,-0.41388888888888886,1.2562000000000708],[0.17197916666666657,-0.4051851851851852,1.2760000000000034],[0.09281249999999991,-0.384074074074074,1.2920000000000016],[0.03218749999999997,-0.35722222222222216,1.30630000000005],[-0.016666666666666666,-0.2388888888888889,1.3228000000000506],[-0.052187500000000026,-0.167037037037037,1.3394000000000261],[-0.1202083333333333,-0.06925925925925921,1.3560999999999765],[-0.11499999999999998,0.03259259259259263,1.3755999999999773],[-0.12374999999999996,0.10388888888888893,1.3924000000000234],[-0.12364583333333339,0.07962962962962963,1.4063000000000514],[-0.08125,-0.000925925925925926,1.4230000000000018],[-0.01114583333333338,-0.01314814814814819,1.4395000000000024],[0.034895833333333334,0.003888888888888931,1.4562000000000737],[0.03354166666666671,0.09055555555555551,1.476800000000047],[0.03354166666666671,0.09055555555555551,1.4895999999999816],[0.05458333333333331,0.07666666666666662,1.5063000000000457],[0.057395833333333354,0.03314814814814811,1.5230000000000032],[0.08937499999999995,-0.01722222222222214,1.5415999999999812],[0.07062499999999995,-0.048333333333333374,1.55630000000005],[0.03114583333333331,-0.03833333333333342,1.5734000000000279],[-0.027395833333333286,0.013518518518518435,1.5930000000000035],[-0.10958333333333338,0.09518518518518514,1.6075000000000017],[-0.14812500000000003,0.1331481481481481,1.6230000000000047],[-0.1842708333333333,0.1933333333333333,1.6424000000000234],[-0.16281249999999994,0.12166666666666676,1.6563000000000514],[-0.15729166666666666,0.1300000000000001,1.6732000000000724],[-0.17541666666666664,0.17111111111111107,1.6894000000000275],[-0.18531249999999996,0.21129629629629634,1.7062000000000737],[-0.23843749999999997,0.27018518518518514,1.7228000000000492],[-0.22041666666666668,0.26851851851851855,1.7394999999999996],[-0.25427083333333333,0.3007407407407407,1.7562000000000708],[-0.21927083333333333,0.26444444444444437,1.7732000000000738],[-0.22104166666666672,0.23537037037037042,1.7929000000000244],[-0.22104166666666672,0.23537037037037042,1.8075000000000045],[-0.20812499999999995,0.1574074074074074,1.8229000000000255],[-0.24770833333333328,0.19388888888888897,1.839500000000001],[-0.2990625,0.1948148148148149,1.8560999999999765],[-0.29562499999999997,0.20981481481481473,1.8729000000000227],[-0.32135416666666666,0.19611111111111107,1.8898000000000508],[-0.30406249999999996,0.11796296296296305,1.9062000000000694],[-0.33354166666666674,0.06962962962962967,1.922800000000052],[-0.3055208333333333,0.022777777777777692,1.9395000000000024],[-0.32270833333333326,0.014629629629629588,1.956099999999978],[-0.3502083333333334,0.04388888888888897,1.972900000000024],[-0.34750000000000003,0.03351851851851856,1.9902000000000726],[-0.2997916666666666,0.03981481481481482,2.006200000000071],[-0.21625000000000003,-0.007592592592592635,2.024700000000067],[-0.1877083333333334,-0.000925925925925926,2.039400000000029],[-0.12250000000000003,-0.03259259259259263,2.056200000000075],[-0.0546875,-0.0012962962962963806,2.0729000000000326],[0.0171875,0.028888888888888933,2.092599999999976],[0.03843749999999998,-0.024814814814814772,2.106400000000022],[0.07322916666666662,-0.0242592592592593,2.1230000000000047],[0.13864583333333325,-0.05648148148148148,2.139599999999973],[0.16020833333333329,-0.02907407407407416,2.158200000000079],[0.19572916666666676,-0.0772222222222222,2.1733000000000544],[0.1818749999999999,-0.07148148148148152,2.1910000000000025],[0.1993750000000001,-0.17037037037037037,2.2062000000000666],[0.15947916666666656,-0.18574074074074076,2.222800000000049],[0.10354166666666677,-0.15796296296296297,2.2395000000000067],[0.10354166666666677,-0.15796296296296297,2.256099999999975],[0.04354166666666662,-0.12907407407407406,2.2729000000000212],[0.022500000000000023,-0.07703703703703708,2.289500000000004],[0.0021875000000000236,-0.08537037037037042,2.3060999999999723],[-0.018124999999999978,-0.09370370370370375,2.3229000000000326],[-0.041875000000000044,-0.11407407407407412,2.339500000000001],[-0.06520833333333335,-0.08981481481481482,2.3562000000000722],[-0.08677083333333328,-0.07185185185185188,2.374900000000025],[-0.09697916666666669,-0.03537037037037041,2.3894000000000233],[-0.10510416666666664,0.002962962962963005,2.406099999999981],[-0.10531250000000002,-0.034444444444444486,2.422900000000027],[-0.09052083333333331,-0.04333333333333329,2.4395000000000095],[-0.03354166666666671,-0.06111111111111111,2.4563000000000557],[0.004062499999999977,-0.10166666666666663,2.472999999999999],[0.01083333333333331,-0.09611111111111106,2.4917000000000655],[0.027708333333333356,-0.09296296296296294,2.506099999999975],[0.04624999999999998,-0.15833333333333333,2.5229000000000212],[0.07687499999999996,-0.19814814814814816,2.539400000000029],[0.10864583333333329,-0.22148148148148153,2.556200000000075],[0.16593749999999996,-0.26888888888888884,2.5728000000000435],[0.22322916666666662,-0.3162962962962963,2.589400000000026],[0.2604166666666667,-0.4148148148148148,2.6060999999999837],[0.25635416666666655,-0.475,2.622800000000055],[0.25031249999999994,-0.4646296296296296,2.639599999999973],[0.25031249999999994,-0.4646296296296296,2.656099999999981],[0.2791666666666667,-0.529074074074074,2.676000000000002],[0.28187499999999993,-0.522962962962963,2.6930999999999727],[0.26437499999999997,-0.492037037037037,2.707400000000021],[0.24447916666666672,-0.4772222222222222,2.722999999999999],[0.21166666666666673,-0.4637037037037037,2.7420999999999793],[0.18614583333333337,-0.442037037037037,2.758300000000048],[0.1586458333333333,-0.39296296296296296,2.7745000000000033],[0.13624999999999995,-0.3212962962962963,2.7934000000000196],[0.09083333333333338,-0.2403703703703704,2.807800000000043],[0.07125000000000009,-0.25,2.8230000000000075],[0.025937499999999978,-0.17074074074074072,2.8397000000000787],[0.013125000000000024,-0.20333333333333337,2.8590999999999838],[0.013125000000000024,-0.20333333333333337,2.873200000000068],[-0.02781250000000005,-0.16796296296296295,2.889499999999998],[-0.002916666666666619,-0.15111111111111114,2.909000000000006],[-0.002916666666666619,-0.15111111111111114,2.922900000000027],[0.026041666666666668,-0.12407407407407407,2.9395000000000095],[0.028437499999999952,-0.11555555555555551,2.9562000000000666],[0.025312499999999953,-0.14074074074074075,2.972900000000024],[0.029375000000000047,-0.1368518518518518,2.9925999999999817],[0.06510416666666667,-0.15203703703703708,3.006700000000066],[0.08208333333333329,-0.11833333333333329,3.0242000000000786],[0.11645833333333329,-0.2064814814814815,3.0395999999999788],[0.13447916666666657,-0.2727777777777778,3.0597000000000776],[0.16749999999999995,-0.3957407407407407,3.081099999999978],[0.16749999999999995,-0.3957407407407407,3.0897000000000787],[0.1474999999999999,-0.4644444444444445,3.106400000000022],[0.13291666666666657,-0.4940740740740741,3.1285999999999774],[0.1224999999999999,-0.5237037037037037,3.144500000000008],[0.1224999999999999,-0.5237037037037037,3.156099999999981],[0.09552083333333337,-0.5725925925925925,3.172900000000027],[0.09552083333333337,-0.5725925925925925,3.1895000000000095],[0.07916666666666666,-0.6274074074074074,3.206099999999978],[0.07916666666666666,-0.6274074074074074,3.222800000000049],[0.03156249999999995,-0.7074074074074074,3.239400000000032],[0.03156249999999995,-0.7074074074074074,3.256200000000078],[0.0018749999999999527,-0.7757407407407407,3.272999999999996],[-0.024479166666666666,-0.820925925925926,3.290700000000072],[-0.04864583333333338,-0.8392592592592593,3.3068000000000524],[-0.051770833333333384,-0.8505555555555556,3.3227000000000686],[-0.06531250000000005,-0.8814814814814815,3.340400000000031],[-0.06531250000000005,-0.8814814814814815,3.360400000000027],[-0.07718750000000002,-0.962037037037037,3.3730000000000047],[-0.09104166666666665,-0.9938888888888889,3.3900000000000006],[-0.06906249999999996,-1.0218518518518518,3.4062000000000694],[-0.08666666666666671,-1.0218518518518518,3.422800000000052],[-0.05802083333333338,-0.9864814814814815,3.4395000000000095],[-0.04812500000000005,-0.9338888888888889,3.457599999999985],[-0.06437499999999995,-0.8581481481481481,3.472800000000049],[-0.06968749999999997,-0.7992592592592593,3.49380000000005],[-0.08343750000000003,-0.6977777777777778,3.507700000000071],[-0.09718749999999995,-0.5962962962962963,3.5228000000000463],[-0.1045833333333333,-0.5138888888888888,3.539400000000029],[-0.1046875,-0.4583333333333333,3.5560999999999723],[-0.13239583333333335,-0.3655555555555555,3.5730000000000075],[-0.13833333333333328,-0.32388888888888884,3.589500000000001],[-0.1592708333333333,-0.2824074074074074,3.6062000000000722],[-0.16989583333333336,-0.2855555555555555,3.622800000000055],[-0.14572916666666663,-0.26722222222222225,3.639499999999998],[-0.13052083333333328,-0.23444444444444448,3.658200000000079],[-0.11333333333333329,-0.25685185185185183,3.672900000000027],[-0.10364583333333334,-0.2831481481481481,3.689800000000048],[-0.109375,-0.3111111111111111,3.7092000000000667],[-0.11510416666666666,-0.3446296296296297,3.722800000000049],[-0.10499999999999995,-0.3937037037037037,3.7395000000000067],[-0.10291666666666661,-0.45185185185185184,3.756099999999975],[-0.08916666666666669,-0.48777777777777775,3.7728000000000463],[-0.08489583333333334,-0.507962962962963,3.789500000000004],[-0.07958333333333331,-0.5361111111111111,3.8060999999999723],[-0.06895833333333339,-0.5635185185185185,3.8227000000000686],[-0.07145833333333336,-0.5798148148148149,3.839500000000001],[-0.06645833333333329,-0.5922222222222222,3.8560999999999837],[-0.03885416666666662,-0.5857407407407408,3.8737000000000705],[-0.011249999999999953,-0.5737037037037037,3.8894000000000233],[0.015208333333333357,-0.5644444444444444,3.906099999999981],[0.049270833333333285,-0.5466666666666666,3.9234000000000293],[0.06239583333333331,-0.5162962962962964,3.9395999999999844],[0.08666666666666671,-0.487962962962963,3.956099999999978],[0.06218750000000005,-0.43499999999999994,3.972900000000024],[0.02010416666666662,-0.3972222222222222,3.9895000000000067],[-0.019791666666666666,-0.3074074074074074,4.006099999999975],[-0.05687500000000002,-0.2096296296296296,4.022800000000046],[-0.11739583333333338,-0.11981481481481479,4.039500000000004],[-0.16239583333333332,-0.032037037037036954,4.058700000000073],[-0.22135416666666666,0.07555555555555547,4.076200000000071],[-0.28395833333333337,0.18703703703703703,4.092500000000001],[-0.3445833333333333,0.2727777777777777,4.1068000000000495],[-0.4080208333333334,0.32407407407407407,4.122800000000055],[-0.42843749999999997,0.3483333333333334,4.139400000000023],[-0.4373958333333333,0.39648148148148155,4.158400000000029],[-0.4248958333333333,0.4064814814814815,4.172900000000027],[-0.38781249999999995,0.39277777777777784,4.1895000000000095],[-0.3385416666666667,0.3290740740740742,4.2062000000000666],[-0.3204166666666667,0.33000000000000007,4.222800000000049],[-0.2607291666666666,0.2737037037037036,4.239400000000032],[-0.18093750000000006,0.18518518518518517,4.256],[-0.0967708333333333,0.09888888888888885,4.275400000000019],[-0.02687499999999995,0.05018518518518523,4.289800000000042],[0.03250000000000005,0.0003703703703704546,4.306099999999972],[0.09562499999999995,-0.045740740740740825,4.3228000000000435],[0.16375000000000003,-0.10240740740740743,4.339400000000026],[0.20447916666666663,-0.14333333333333328,4.356099999999984]]","[0.00020000000007058816,0.041400000000024306,0.05959999999998189,0.0730999999999824,0.08959999999997592,0.10620000000007224,0.12280000000004776,0.1395000000000053,0.1560999999999808,0.17300000000000182,0.18950000000000244,0.20609999999997797,0.22290000000002408,0.2395999999999816,0.2565000000000026,0.27309999999997814,0.28950000000000387,0.3062000000000751,0.3228000000000506,0.339500000000001,0.35620000000007224,0.3744000000000227,0.38990000000002567,0.4062000000000694,0.4229000000000269,0.43950000000000244,0.4585999999999828,0.4730000000000061,0.4897000000000702,0.5060999999999822,0.5229000000000283,0.5395000000000039,0.5560999999999794,0.5729000000000255,0.5915000000000035,0.6063000000000471,0.6230999999999796,0.6397000000000759,0.6562000000000694,0.6730999999999767,0.6895000000000024,0.706099999999978,0.7228000000000492,0.7394999999999996,0.7560999999999822,0.7755999999999759,0.7917000000000698,0.8062000000000751,0.8228000000000506,0.839500000000001,0.8562000000000722,0.8729000000000227,0.8895000000000053,0.9062000000000694,0.922800000000052,0.9395000000000024,0.9562000000000737,0.9729000000000241,0.9894999999999996,1.0062000000000708,1.0229000000000283,1.0395000000000039,1.056200000000075,1.0729000000000255,1.089500000000001,1.1062000000000722,1.1228000000000478,1.1395000000000053,1.1562000000000694,1.172800000000052,1.1940999999999775,1.2062000000000737,1.222900000000024,1.2394999999999996,1.2562000000000708,1.2760000000000034,1.2920000000000016,1.30630000000005,1.3228000000000506,1.3394000000000261,1.3560999999999765,1.3755999999999773,1.3924000000000234,1.4063000000000514,1.4230000000000018,1.4395000000000024,1.4562000000000737,1.476800000000047,1.4895999999999816,1.5063000000000457,1.5230000000000032,1.5415999999999812,1.55630000000005,1.5734000000000279,1.5930000000000035,1.6075000000000017,1.6230000000000047,1.6424000000000234,1.6563000000000514,1.6732000000000724,1.6894000000000275,1.7062000000000737,1.7228000000000492,1.7394999999999996,1.7562000000000708,1.7732000000000738,1.7929000000000244,1.8075000000000045,1.8229000000000255,1.839500000000001,1.8560999999999765,1.8729000000000227,1.8898000000000508,1.9062000000000694,1.922800000000052,1.9395000000000024,1.956099999999978,1.972900000000024,1.9902000000000726,2.006200000000071,2.024700000000067,2.039400000000029,2.056200000000075,2.0729000000000326,2.092599999999976,2.106400000000022,2.1230000000000047,2.139599999999973,2.158200000000079,2.1733000000000544,2.1910000000000025,2.2062000000000666,2.222800000000049,2.2395000000000067,2.256099999999975,2.2729000000000212,2.289500000000004,2.3060999999999723,2.3229000000000326,2.339500000000001,2.3562000000000722,2.374900000000025,2.3894000000000233,2.406099999999981,2.422900000000027,2.4395000000000095,2.4563000000000557,2.472999999999999,2.4917000000000655,2.506099999999975,2.5229000000000212,2.539400000000029,2.556200000000075,2.5728000000000435,2.589400000000026,2.6060999999999837,2.622800000000055,2.639599999999973,2.656099999999981,2.676000000000002,2.6930999999999727,2.707400000000021,2.722999999999999,2.7420999999999793,2.758300000000048,2.7745000000000033,2.7934000000000196,2.807800000000043,2.8230000000000075,2.8397000000000787,2.8590999999999838,2.873200000000068,2.889499999999998,2.909000000000006,2.922900000000027,2.9395000000000095,2.9562000000000666,2.972900000000024,2.9925999999999817,3.006700000000066,3.0242000000000786,3.0395999999999788,3.0597000000000776,3.081099999999978,3.0897000000000787,3.106400000000022,3.1285999999999774,3.144500000000008,3.156099999999981,3.172900000000027,3.1895000000000095,3.206099999999978,3.222800000000049,3.239400000000032,3.256200000000078,3.272999999999996,3.290700000000072,3.3068000000000524,3.3227000000000686,3.340400000000031,3.360400000000027,3.3730000000000047,3.3900000000000006,3.4062000000000694,3.422800000000052,3.4395000000000095,3.457599999999985,3.472800000000049,3.49380000000005,3.507700000000071,3.5228000000000463,3.539400000000029,3.5560999999999723,3.5730000000000075,3.589500000000001,3.6062000000000722,3.622800000000055,3.639499999999998,3.658200000000079,3.672900000000027,3.689800000000048,3.7092000000000667,3.722800000000049,3.7395000000000067,3.756099999999975,3.7728000000000463,3.789500000000004,3.8060999999999723,3.8227000000000686,3.839500000000001,3.8560999999999837,3.8737000000000705,3.8894000000000233,3.906099999999981,3.9234000000000293,3.9395999999999844,3.956099999999978,3.972900000000024,3.9895000000000067,4.006099999999975,4.022800000000046,4.039500000000004,4.058700000000073,4.076200000000071,4.092500000000001,4.1068000000000495,4.122800000000055,4.139400000000023,4.158400000000029,4.172900000000027,4.1895000000000095,4.2062000000000666,4.222800000000049,4.239400000000032,4.256,4.275400000000019,4.289800000000042,4.306099999999972,4.3228000000000435,4.339400000000026,4.356099999999984]","[1733111258337,1733111258367,1733111258385,1733111258399,1733111258415,1733111258432,1733111258449,1733111258465,1733111258482,1733111258499,1733111258515,1733111258532,1733111258548,1733111258565,1733111258582,1733111258599,1733111258615,1733111258632,1733111258649,1733111258665,1733111258682,1733111258700,1733111258716,1733111258732,1733111258749,1733111258765,1733111258784,1733111258799,1733111258815,1733111258832,1733111258849,1733111258865,1733111258882,1733111258899,1733111258917,1733111258932,1733111258949,1733111258965,1733111258982,1733111258999,1733111259015,1733111259032,1733111259048,1733111259065,1733111259082,1733111259101,1733111259117,1733111259132,1733111259148,1733111259165,1733111259182,1733111259199,1733111259215,1733111259232,1733111259249,1733111259265,1733111259282,1733111259299,1733111259315,1733111259332,1733111259349,1733111259365,1733111259382,1733111259399,1733111259415,1733111259432,1733111259449,1733111259465,1733111259482,1733111259499,1733111259520,1733111259532,1733111259548,1733111259565,1733111259582,1733111259602,1733111259618,1733111259632,1733111259648,1733111259665,1733111259682,1733111259701,1733111259718,1733111259732,1733111259749,1733111259765,1733111259782,1733111259803,1733111259815,1733111259832,1733111259849,1733111259867,1733111259882,1733111259899,1733111259919,1733111259933,1733111259949,1733111259968,1733111259982,1733111259999,1733111260015,1733111260032,1733111260048,1733111260065,1733111260082,1733111260099,1733111260119,1733111260133,1733111260149,1733111260165,1733111260182,1733111260199,1733111260216,1733111260232,1733111260248,1733111260265,1733111260282,1733111260299,1733111260316,1733111260332,1733111260350,1733111260365,1733111260382,1733111260399,1733111260418,1733111260432,1733111260449,1733111260465,1733111260484,1733111260499,1733111260517,1733111260532,1733111260548,1733111260565,1733111260582,1733111260599,1733111260615,1733111260632,1733111260648,1733111260665,1733111260682,1733111260701,1733111260715,1733111260732,1733111260748,1733111260765,1733111260782,1733111260799,1733111260817,1733111260832,1733111260849,1733111260865,1733111260882,1733111260899,1733111260915,1733111260932,1733111260948,1733111260965,1733111260982,1733111261002,1733111261019,1733111261033,1733111261049,1733111261068,1733111261084,1733111261100,1733111261119,1733111261133,1733111261149,1733111261165,1733111261185,1733111261199,1733111261215,1733111261235,1733111261248,1733111261265,1733111261282,1733111261299,1733111261318,1733111261332,1733111261350,1733111261365,1733111261385,1733111261407,1733111261415,1733111261432,1733111261454,1733111261470,1733111261482,1733111261499,1733111261515,1733111261532,1733111261548,1733111261565,1733111261582,1733111261599,1733111261616,1733111261632,1733111261648,1733111261666,1733111261686,1733111261699,1733111261716,1733111261732,1733111261748,1733111261765,1733111261783,1733111261799,1733111261819,1733111261833,1733111261848,1733111261865,1733111261882,1733111261899,1733111261915,1733111261932,1733111261948,1733111261965,1733111261984,1733111261999,1733111262015,1733111262035,1733111262048,1733111262065,1733111262082,1733111262099,1733111262115,1733111262132,1733111262148,1733111262165,1733111262182,1733111262199,1733111262215,1733111262232,1733111262249,1733111262265,1733111262282,1733111262299,1733111262315,1733111262332,1733111262348,1733111262365,1733111262384,1733111262402,1733111262418,1733111262432,1733111262448,1733111262465,1733111262484,1733111262499,1733111262515,1733111262532,1733111262548,1733111262565,1733111262582,1733111262601,1733111262615,1733111262632,1733111262648,1733111262665,1733111262682]","[[706.5,518.7],[706.5,518.7],[721.3,506.4],[721.3,506.4],[728,539.5],[736.9,521.6],[723.9,481.9],[731.1,459.7],[727.2,443.7],[703.5,428.5],[679.8,413.3],[662.8,433.3],[672.9,444.8],[652.8,439.7],[635.5,412.3],[603.2,411.4],[592.8,432.3],[589.4,441.1],[597.1,443.7],[610.2,435.3],[623.3,426.9],[636.2,389.4],[636.6,358.2],[625.7,359.8],[614.8,361.4],[574.6,365.3],[534.5,366.9],[577.3,400.9],[578,415],[571.9,432.8],[571.9,432.8],[604.6,459],[625.3,497.1],[626.9,543],[658,569.4],[677.3,594],[733.1,606.5],[792.3,619.5],[776.2,619.2],[821.5,639.1],[866.8,659],[887.8,643.2],[908.8,627.4],[946.7,612.8],[973.5,594.2],[1020,567.3],[1064.5,555.9],[1106.3,552.3],[1159.8,529.7],[1154.6,510.8],[1154,483.9],[1180.8,489],[1180.8,489],[1208.4,494.6],[1208.4,494.6],[1228.4,475.7],[1228.4,475.7],[1280.2,480.5],[1280.2,480.5],[1305.3,476.5],[1305.3,476.5],[1314.6,453.9],[1314.6,453.9],[1316.6,395.7],[1316.6,395.7],[1279.5,374.6],[1279.5,374.6],[1307.9,336.6],[1307.9,336.6],[1315.6,302.3],[1291.3,274.2],[1291.3,274.2],[1280.9,272.4],[1280.9,272.4],[1239.7,316.5],[1125.1,321.2],[1049.1,332.6],[990.9,347.1],[944,411],[909.9,449.8],[844.6,502.6],[849.6,557.6],[841.2,596.1],[841.3,583],[882,539.5],[949.3,532.9],[993.5,542.1],[992.2,588.9],[992.2,588.9],[1012.4,581.4],[1015.1,557.9],[1045.8,530.7],[1027.8,513.9],[989.9,519.3],[933.7,547.3],[854.8,591.4],[817.8,611.9],[783.1,644.4],[803.7,605.7],[809,610.2],[791.6,632.4],[782.1,654.1],[731.1,685.9],[748.4,685],[715.9,702.4],[749.5,682.8],[747.8,667.1],[747.8,667.1],[760.2,625],[722.2,644.7],[672.9,645.2],[676.2,653.3],[651.5,645.9],[668.1,603.7],[639.8,577.6],[666.7,552.3],[650.2,547.9],[623.8,563.7],[626.4,558.1],[672.2,561.5],[752.4,535.9],[779.8,539.5],[842.4,522.4],[907.5,539.3],[976.5,555.6],[996.9,526.6],[1030.3,526.9],[1093.1,509.5],[1113.8,524.3],[1147.9,498.3],[1134.6,501.4],[1151.4,448],[1113.1,439.7],[1059.4,454.7],[1059.4,454.7],[1001.8,470.3],[981.6,498.4],[962.1,493.9],[942.6,489.4],[919.8,478.4],[897.4,491.5],[876.7,501.2],[866.9,520.9],[859.1,541.6],[858.9,521.4],[873.1,516.6],[927.8,507],[963.9,485.1],[970.4,488.1],[986.6,489.8],[1004.4,454.5],[1033.8,433],[1064.3,420.4],[1119.3,394.8],[1174.3,369.2],[1210,316],[1206.1,283.5],[1200.3,289.1],[1200.3,289.1],[1228,254.3],[1230.6,257.6],[1213.8,274.3],[1194.7,282.3],[1163.2,289.6],[1138.7,301.3],[1112.3,327.8],[1090.8,366.5],[1047.2,410.2],[1028.4,405],[984.9,447.8],[972.6,430.2],[972.6,430.2],[933.3,449.3],[957.2,458.4],[957.2,458.4],[985,473],[987.3,477.6],[984.3,464],[988.2,466.1],[1022.5,457.9],[1038.8,476.1],[1071.8,428.5],[1089.1,392.7],[1120.8,326.3],[1120.8,326.3],[1101.6,289.2],[1087.6,273.2],[1077.6,257.2],[1077.6,257.2],[1051.7,230.8],[1051.7,230.8],[1036,201.2],[1036,201.2],[990.3,158],[990.3,158],[961.8,121.1],[936.5,96.7],[913.3,86.8],[910.3,80.7],[897.3,64],[897.3,64],[885.9,20.5],[872.6,3.3],[893.7,-11.8],[876.8,-11.8],[904.3,7.3],[913.8,35.7],[898.2,76.6],[893.1,108.4],[879.9,163.2],[866.7,218],[859.6,262.5],[859.5,292.5],[832.9,342.6],[827.2,365.1],[807.1,387.5],[796.9,385.8],[820.1,395.7],[834.7,413.4],[851.2,401.3],[860.5,387.1],[855,372],[849.5,353.9],[859.2,327.4],[861.2,296],[874.4,276.6],[878.5,265.7],[883.6,250.5],[893.8,235.7],[891.4,226.9],[896.2,220.2],[922.7,223.7],[949.2,230.2],[974.6,235.2],[1007.3,244.8],[1019.9,261.2],[1043.2,276.5],[1019.7,305.1],[979.3,325.5],[941,374],[905.4,426.8],[847.3,475.3],[804.1,522.7],[747.5,580.8],[687.4,641],[629.2,687.3],[568.3,715],[548.7,728.1],[540.1,754.1],[552.1,759.5],[587.7,752.1],[635,717.7],[652.4,718.2],[709.7,687.8],[786.3,640],[867.1,593.4],[934.2,567.1],[991.2,540.2],[1051.8,515.3],[1117.2,484.7],[1156.3,462.6]]","[0,0.5333]","[0.5333,0.5333]","[-0.5333,-0.5333]","[-0.5333,0]","[0,-0.5333]","[0.5333,-0.5333]","[0,0]","[0.5333,0]",0,0,0,0,1,1,Monitor,7,7,15,9
,,,,,,,,,,,,,,,,,,,,11,001,2024-12-02_11h46.45.673,Attention_exp_legacy,2023.1.0,Win32,59.88023952,,,,,,,,,,[0.5083333333333333],[0.5370370370370371],[1],[0],[0],[2.2811999999999557],"[""Option2_label""]",Option2_label,2,3.2834,"[[0.16979166666666667,0.2759259259259259],[0.16979166666666667,0.2759259259259259],[0.16979166666666667,0.2759259259259259],[0.17083333333333334,0.2759259259259259],[0.17083333333333334,0.2759259259259259],[0.17083333333333334,0.2759259259259259],[0.17083333333333334,0.2759259259259259],[0.17083333333333334,0.2759259259259259],[0.17083333333333334,0.2759259259259259],[0.17083333333333334,0.2759259259259259],[0.17083333333333334,0.2759259259259259],[0.17083333333333334,0.2759259259259259],[0.17083333333333334,0.2759259259259259],[0.17083333333333334,0.2759259259259259],[0.17083333333333334,0.2759259259259259],[0.17083333333333334,0.2759259259259259],[0.17083333333333334,0.2759259259259259],[0.17083333333333334,0.2759259259259259],[0.17083333333333334,0.2759259259259259],[0.17083333333333334,0.2759259259259259],[0.17083333333333334,0.2759259259259259],[0.17083333333333334,0.2759259259259259],[0.17083333333333334,0.2759259259259259],[0.17083333333333334,0.2759259259259259],[0.17083333333333334,0.2759259259259259],[0.17083333333333334,0.2759259259259259],[0.17083333333333334,0.2759259259259259],[0.17083333333333334,0.2759259259259259],[0.17083333333333334,0.2759259259259259],[0.17083333333333334,0.2759259259259259],[0.17083333333333334,0.2759259259259259],[0.17083333333333334,0.2759259259259259],[0.17083333333333334,0.2759259259259259],[0.17083333333333334,0.2759259259259259],[0.17083333333333334,0.2759259259259259],[0.17083333333333334,0.2759259259259259],[0.17083333333333334,0.2759259259259259],[0.17083333333333334,0.2759259259259259],[0.17083333333333334,0.2759259259259259],[0.17083333333333334,0.2759259259259259],[0.17083333333333334,0.2759259259259259],[0.17083333333333334,0.2759259259259259],[0.17083333333333334,0.2759259259259259],[0.17083333333333334,0.2759259259259259],[0.17083333333333334,0.2759259259259259],[0.17083333333333334,0.2759259259259259],[0.17083333333333334,0.2759259259259259],[0.17083333333333334,0.2759259259259259],[0.17083333333333334,0.2759259259259259],[0.17083333333333334,0.2759259259259259],[0.17083333333333334,0.2759259259259259],[0.17083333333333334,0.2759259259259259],[0.17083333333333334,0.2759259259259259],[0.17083333333333334,0.2759259259259259],[0.17083333333333334,0.2759259259259259],[0.17083333333333334,0.2759259259259259],[0.17083333333333334,0.2759259259259259],[0.17083333333333334,0.2759259259259259],[0.17083333333333334,0.2759259259259259],[0.17083333333333334,0.2759259259259259],[0.17083333333333334,0.2759259259259259],[0.17083333333333334,0.2759259259259259],[0.17083333333333334,0.2759259259259259],[0.17083333333333334,0.2759259259259259],[0.17083333333333334,0.2759259259259259],[0.17083333333333334,0.2759259259259259],[0.17083333333333334,0.2759259259259259],[0.17083333333333334,0.2759259259259259],[0.17083333333333334,0.2759259259259259],[0.17083333333333334,0.2759259259259259],[0.17083333333333334,0.2759259259259259],[0.17083333333333334,0.2759259259259259],[0.17083333333333334,0.2759259259259259],[0.17083333333333334,0.2759259259259259],[0.17083333333333334,0.2759259259259259],[0.17083333333333334,0.2759259259259259],[0.17083333333333334,0.2759259259259259],[0.17083333333333334,0.2759259259259259],[0.17083333333333334,0.2759259259259259],[0.17083333333333334,0.2759259259259259],[0.17083333333333334,0.2759259259259259],[0.17083333333333334,0.2759259259259259],[0.17083333333333334,0.2759259259259259],[0.17083333333333334,0.2759259259259259],[0.17083333333333334,0.2759259259259259],[0.17083333333333334,0.2759259259259259],[0.17083333333333334,0.2759259259259259],[0.17083333333333334,0.2759259259259259],[0.17083333333333334,0.2759259259259259],[0.17083333333333334,0.2759259259259259],[0.17083333333333334,0.2759259259259259],[0.17083333333333334,0.2759259259259259],[0.17083333333333334,0.2759259259259259],[0.17083333333333334,0.2759259259259259],[0.17083333333333334,0.2759259259259259],[0.17083333333333334,0.2759259259259259],[0.17083333333333334,0.2759259259259259],[0.17083333333333334,0.2759259259259259],[0.17083333333333334,0.2759259259259259],[0.17083333333333334,0.2759259259259259],[0.17083333333333334,0.2759259259259259],[0.17083333333333334,0.2759259259259259],[0.17083333333333334,0.2759259259259259],[0.17083333333333334,0.2759259259259259],[0.17083333333333334,0.2759259259259259],[0.17083333333333334,0.2759259259259259],[0.17083333333333334,0.2759259259259259],[0.17083333333333334,0.2759259259259259],[0.17083333333333334,0.2759259259259259],[0.17083333333333334,0.2759259259259259],[0.17083333333333334,0.2759259259259259],[0.17083333333333334,0.2759259259259259],[0.17083333333333334,0.2759259259259259],[0.16770833333333332,0.2740740740740741],[0.16666666666666666,0.25925925925925924],[0.16979166666666667,0.22407407407407406],[0.171875,0.22407407407407406],[0.178125,0.22407407407407406],[0.190625,0.22037037037037038],[0.20833333333333334,0.22037037037037038],[0.23541666666666666,0.22037037037037038],[0.2708333333333333,0.23703703703703705],[0.32708333333333334,0.2796296296296296],[0.37604166666666666,0.3296296296296296],[0.4239583333333333,0.3851851851851852],[0.4552083333333333,0.42962962962962964],[0.4739583333333333,0.4648148148148148],[0.49166666666666664,0.5037037037037037],[0.49895833333333334,0.5185185185185185],[0.503125,0.5259259259259259],[0.5041666666666667,0.5314814814814814],[0.50625,0.5351851851851852],[0.5072916666666667,0.5351851851851852],[0.5072916666666667,0.5370370370370371],[0.5083333333333333,0.5370370370370371],[0.5083333333333333,0.5370370370370371],[0.5083333333333333,0.5370370370370371],[0.5083333333333333,0.5370370370370371],[0.5083333333333333,0.5370370370370371],[0.5083333333333333,0.5370370370370371],[0.5083333333333333,0.5370370370370371],[0.5083333333333333,0.5370370370370371],[0.5083333333333333,0.5370370370370371],[0.5083333333333333,0.5370370370370371],[0.5083333333333333,0.5370370370370371],[0.5083333333333333,0.5370370370370371],[0.5083333333333333,0.5370370370370371],[0.5083333333333333,0.5370370370370371],[0.503125,0.5314814814814814],[0.49895833333333334,0.5222222222222223],[0.49270833333333336,0.5111111111111111],[0.49166666666666664,0.5055555555555555],[0.49166666666666664,0.5018518518518519],[0.49166666666666664,0.5018518518518519],[0.49166666666666664,0.5018518518518519],[0.49166666666666664,0.5018518518518519],[0.49166666666666664,0.5018518518518519],[0.49166666666666664,0.5018518518518519],[0.49166666666666664,0.5018518518518519],[0.49166666666666664,0.5018518518518519],[0.49166666666666664,0.5018518518518519],[0.49166666666666664,0.5018518518518519],[0.49166666666666664,0.5018518518518519],[0.49166666666666664,0.5018518518518519],[0.49166666666666664,0.5037037037037037],[0.49166666666666664,0.5037037037037037],[0.49166666666666664,0.5037037037037037],[0.49166666666666664,0.5037037037037037],[0.49166666666666664,0.5037037037037037],[0.49166666666666664,0.5037037037037037],[0.49166666666666664,0.5037037037037037],[0.49166666666666664,0.5037037037037037],[0.49166666666666664,0.5037037037037037],[0.49166666666666664,0.5037037037037037],[0.49166666666666664,0.5037037037037037],[0.49166666666666664,0.5037037037037037],[0.49166666666666664,0.5037037037037037],[0.49166666666666664,0.5037037037037037],[0.49166666666666664,0.5037037037037037],[0.49166666666666664,0.5037037037037037],[0.49166666666666664,0.5037037037037037],[0.49166666666666664,0.5037037037037037],[0.49166666666666664,0.5037037037037037],[0.49166666666666664,0.5037037037037037],[0.49166666666666664,0.5037037037037037],[0.49166666666666664,0.5037037037037037],[0.49166666666666664,0.5037037037037037],[0.49166666666666664,0.5037037037037037],[0.49166666666666664,0.5037037037037037],[0.49166666666666664,0.5037037037037037],[0.49166666666666664,0.5037037037037037],[0.49166666666666664,0.5037037037037037],[0.49166666666666664,0.5037037037037037],[0.49166666666666664,0.5037037037037037],[0.49166666666666664,0.5037037037037037],[0.49166666666666664,0.5037037037037037],[0.49166666666666664,0.5037037037037037]]","[[0.27197916666666655,-0.41518518518518516],[0.27197916666666655,-0.41518518518518516],[0.2821875000000001,-0.3483333333333334],[0.2821875000000001,-0.3483333333333334],[0.27312500000000006,-0.3522222222222222],[0.27312500000000006,-0.3522222222222222],[0.2682291666666667,-0.32537037037037037],[0.24968750000000003,-0.34148148148148144],[0.2419791666666666,-0.3731481481481482],[0.19781250000000009,-0.4064814814814815],[0.16177083333333328,-0.46111111111111114],[0.11447916666666676,-0.5201851851851852],[0.09322916666666667,-0.5342592592592592],[0.058333333333333334,-0.5729629629629629],[0.03916666666666669,-0.6055555555555555],[0.04989583333333331,-0.6225925925925926],[0.019687499999999976,-0.6516666666666666],[0.04031250000000005,-0.6403703703703704],[0.08114583333333343,-0.5831481481481481],[0.06364583333333336,-0.5874074074074074],[0.06281249999999995,-0.5083333333333333],[0.06906249999999996,-0.4746296296296296],[0.08468749999999996,-0.5125925925925926],[0.12000000000000005,-0.5109259259259259],[0.09187500000000005,-0.5216666666666666],[0.06375000000000004,-0.5324074074074074],[0.06145833333333333,-0.534074074074074],[0.005312500000000024,-0.5683333333333332],[-0.025625000000000023,-0.5761111111111111],[-0.009791666666666643,-0.5637037037037037],[0.0013541666666666192,-0.5938888888888889],[0.017083333333333308,-0.562962962962963],[-0.007395833333333357,-0.5203703703703704],[-0.03187500000000002,-0.4777777777777778],[-0.017604166666666643,-0.44648148148148153],[0.012916666666666642,-0.4140740740740741],[0.0578125,-0.3794444444444444],[0.10270833333333323,-0.3448148148148148],[0.10166666666666657,-0.31296296296296294],[0.1109375,-0.25629629629629624],[0.08354166666666671,-0.23555555555555555],[0.06812500000000009,-0.1948148148148148],[0.06395833333333331,-0.16074074074074077],[0.01572916666666669,-0.09666666666666665],[-0.0453125,-0.019999999999999917],[-0.11197916666666667,0.048333333333333374],[-0.18177083333333333,0.10740740740740741],[-0.24874999999999994,0.169074074074074],[-0.31364583333333335,0.19944444444444454],[-0.3888541666666666,0.20500000000000007],[-0.4311458333333333,0.259074074074074],[-0.48541666666666666,0.29314814814814805],[-0.5430208333333333,0.37481481481481477],[-0.5420833333333334,0.44166666666666665],[-0.5665625,0.5050000000000001],[-0.5860416666666667,0.5612962962962963],[-0.6026041666666667,0.625],[-0.6298958333333334,0.6672222222222222],[-0.6109375,0.6931481481481481],[-0.591875,0.7362962962962963],[-0.5858333333333333,0.7661111111111112],[-0.5797916666666667,0.7959259259259258],[-0.5788541666666667,0.7442592592592592],[-0.5923958333333333,0.6774074074074073],[-0.5275,0.6290740740740741],[-0.5373958333333333,0.5951851851851852],[-0.5473958333333333,0.5564814814814815],[-0.529375,0.5564814814814815],[-0.5111458333333333,0.547037037037037],[-0.49947916666666664,0.5353703703703704],[-0.4780208333333333,0.5179629629629631],[-0.46156250000000004,0.48814814814814816],[-0.41687500000000005,0.4957407407407408],[-0.39520833333333333,0.48925925925925934],[-0.4015625,0.4594444444444445],[-0.34874999999999995,0.4294444444444444],[-0.3151041666666667,0.40481481481481485],[-0.3015625,0.3603703703703704],[-0.3259375,0.37111111111111106],[-0.3438541666666667,0.3668518518518519],[-0.3892708333333334,0.37037037037037035],[-0.3819791666666667,0.39351851851851855],[-0.4070833333333333,0.4038888888888889],[-0.38375,0.4262962962962964],[-0.3608333333333333,0.4398148148148148],[-0.3494791666666667,0.4564814814814815],[-0.2869791666666667,0.4655555555555555],[-0.2869791666666667,0.4655555555555555],[-0.21302083333333333,0.5009259259259259],[-0.13895833333333332,0.5042592592592592],[-0.06572916666666669,0.4935185185185185],[0.03791666666666664,0.47481481481481475],[0.08635416666666676,0.44092592592592594],[0.15593750000000003,0.4301851851851851],[0.2037499999999999,0.4251851851851852],[0.2257291666666667,0.4351851851851852],[0.25927083333333345,0.4420370370370371],[0.26708333333333345,0.4246296296296295],[0.2634375000000001,0.380925925925926],[0.2960416666666667,0.3527777777777778],[0.3147916666666667,0.330925925925926],[0.34385416666666657,0.28055555555555556],[0.38041666666666674,0.2381481481481482],[0.3992708333333333,0.1714814814814815],[0.4144791666666668,0.10111111111111115],[0.4357291666666666,0.03092592592592601],[0.4696875000000001,-0.026851851851851852],[0.48708333333333326,-0.06166666666666669],[0.5044791666666666,-0.09648148148148153],[0.47114583333333326,-0.1346296296296296],[0.45250000000000007,-0.16500000000000004],[0.421875,-0.16314814814814818],[0.37374999999999997,-0.16166666666666668],[0.33479166666666677,-0.14981481481481476],[0.33479166666666677,-0.14981481481481476],[0.32218749999999996,-0.18185185185185182],[0.32218749999999996,-0.18185185185185182],[0.27531249999999996,-0.20333333333333337],[0.27531249999999996,-0.20333333333333337],[0.21208333333333323,-0.2242592592592593],[0.21208333333333323,-0.2242592592592593],[0.19677083333333342,-0.25037037037037035],[0.19677083333333342,-0.25037037037037035],[0.1564583333333334,-0.2564814814814815],[0.1564583333333334,-0.2564814814814815],[0.2068749999999999,-0.22685185185185186],[0.2068749999999999,-0.22685185185185186],[0.2296875,-0.3068518518518518],[0.2296875,-0.3068518518518518],[0.2459374999999999,-0.3979629629629629],[0.2459374999999999,-0.3979629629629629],[0.2760416666666667,-0.46518518518518515],[0.2760416666666667,-0.46518518518518515],[0.30927083333333344,-0.5061111111111112],[0.3224999999999999,-0.4896296296296296],[0.3224999999999999,-0.4896296296296296],[0.3706249999999999,-0.48277777777777775],[0.4275000000000001,-0.4838888888888889],[0.4444791666666667,-0.47759259259259257],[0.4938541666666666,-0.47555555555555556],[0.4583333333333333,-0.5385185185185185],[0.4479166666666667,-0.4674074074074074],[0.4573958333333332,-0.4192592592592592],[0.4650000000000001,-0.40777777777777774],[0.4694791666666667,-0.4225925925925926],[0.44500000000000006,-0.46722222222222226],[0.44166666666666665,-0.5264814814814816],[0.42604166666666665,-0.5568518518518518],[0.42604166666666665,-0.5568518518518518],[0.42635416666666665,-0.5753703703703703],[0.3902083333333332,-0.6190740740740741],[0.40677083333333336,-0.634074074074074],[0.4197916666666667,-0.6616666666666667],[0.4181250000000001,-0.6648148148148149],[0.42197916666666657,-0.6548148148148148],[0.42291666666666666,-0.6414814814814814],[0.44645833333333323,-0.6118518518518518],[0.4405208333333334,-0.5831481481481481],[0.44593749999999993,-0.5512962962962963],[0.43697916666666664,-0.53],[0.45322916666666657,-0.5024074074074074],[0.43208333333333326,-0.4757407407407407],[0.43166666666666675,-0.4594444444444445],[0.4273958333333333,-0.46722222222222226],[0.43416666666666665,-0.4905555555555555],[0.43718750000000006,-0.48759259259259263],[0.44020833333333326,-0.48462962962962963],[0.44479166666666664,-0.515925925925926],[0.4484375,-0.5161111111111111],[0.44406249999999997,-0.596111111111111],[0.4435416666666666,-0.6729629629629629],[0.44166666666666665,-0.6911111111111111],[0.44375,-0.6264814814814815],[0.4487499999999999,-0.6038888888888889],[0.41854166666666665,-0.5477777777777778],[0.3398958333333333,-0.5031481481481481],[0.2787499999999999,-0.4644444444444445],[0.22989583333333338,-0.3479629629629629],[0.1740624999999999,-0.2922222222222222],[0.14187500000000006,-0.12759259259259256],[0.10968749999999995,0.037037037037037035],[0.05614583333333331,0.11166666666666658],[0.00947916666666669,0.1307407407407408],[-0.036145833333333384,0.222037037037037],[-0.09208333333333331,0.26703703703703713],[-0.09291666666666672,0.293888888888889],[-0.07489583333333331,0.3472222222222222],[-0.06239583333333331,0.3725925925925927],[-0.06208333333333336,0.37222222222222223],[-0.06697916666666662,0.3638888888888889],[-0.06697916666666662,0.3638888888888889],[-0.07177083333333331,0.3550000000000001],[-0.03937499999999995,0.3707407407407408],[-0.029270833333333357,0.36370370370370364],[-0.019166666666666644,0.3566666666666667],[0.016250000000000025,0.3675925925925926],[0.05,0.39203703703703713]]","[[0.27197916666666655,-0.41518518518518516,0.00009999999997489795],[0.27197916666666655,-0.41518518518518516,0.016299999999930037],[0.2821875000000001,-0.3483333333333334,0.032899999999912666],[0.2821875000000001,-0.3483333333333334,0.054899999999918236],[0.27312500000000006,-0.3522222222222222,0.0661999999999523],[0.27312500000000006,-0.3522222222222222,0.08289999999990982],[0.2682291666666667,-0.32537037037037037,0.09959999999998104],[0.24968750000000003,-0.34148148148148144,0.11669999999995184],[0.2419791666666666,-0.3731481481481482,0.13289999999990698],[0.19781250000000009,-0.4064814814814815,0.1495000000000033],[0.16177083333333328,-0.46111111111111114,0.16619999999996082],[0.11447916666666676,-0.5201851851851852,0.18289999999990414],[0.09322916666666667,-0.5342592592592592,0.19959999999997535],[0.058333333333333334,-0.5729629629629629,0.21650000000001057],[0.03916666666666669,-0.6055555555555555,0.2328999999999155],[0.04989583333333331,-0.6225925925925926,0.24959999999998672],[0.019687499999999976,-0.6516666666666666,0.26619999999995514],[0.04031250000000005,-0.6403703703703704,0.28300000000000125],[0.08114583333333343,-0.5831481481481481,0.2996999999999588],[0.06364583333333336,-0.5874074074074074,0.3162999999999414],[0.06281249999999995,-0.5083333333333333,0.3328999999999098],[0.06906249999999996,-0.4746296296296296,0.34959999999998104],[0.08468749999999996,-0.5125925925925926,0.36619999999996367],[0.12000000000000005,-0.5109259259259259,0.3827999999999321],[0.09187500000000005,-0.5216666666666666,0.3996999999999531],[0.06375000000000004,-0.5324074074074074,0.4164999999999992],[0.06145833333333333,-0.534074074074074,0.43289999999990414],[0.005312500000000024,-0.5683333333333332,0.44959999999997535],[-0.025625000000000023,-0.5761111111111111,0.466199999999958],[-0.009791666666666643,-0.5637037037037037,0.4828999999999155],[0.0013541666666666192,-0.5938888888888889,0.4995999999999867],[0.017083333333333308,-0.562962962962963,0.5190999999999804],[-0.007395833333333357,-0.5203703703703704,0.5328999999999127],[-0.03187500000000002,-0.4777777777777778,0.549500000000009],[-0.017604166666666643,-0.44648148148148153,0.5661999999999523],[0.012916666666666642,-0.4140740740740741,0.5847999999999303],[0.0578125,-0.3794444444444444,0.599599999999981],[0.10270833333333323,-0.3448148148148148,0.6161999999999637],[0.10166666666666657,-0.31296296296296294,0.6330000000000098],[0.1109375,-0.25629629629629624,0.6495999999999782],[0.08354166666666671,-0.23555555555555555,0.6661999999999608],[0.06812500000000009,-0.1948148148148148,0.6827999999999292],[0.06395833333333331,-0.16074074074074077,0.6995999999999754],[0.01572916666666669,-0.09666666666666665,0.7181999999999533],[-0.0453125,-0.019999999999999917,0.7328999999999155],[-0.11197916666666667,0.048333333333333374,0.7518999999999068],[-0.18177083333333333,0.10740740740740741,0.76629999999993],[-0.24874999999999994,0.169074074074074,0.7827999999999378],[-0.31364583333333335,0.19944444444444454,0.7995999999999839],[-0.3888541666666666,0.20500000000000007,0.8162999999999414],[-0.4311458333333333,0.259074074074074,0.8328999999999098],[-0.48541666666666666,0.29314814814814805,0.849599999999981],[-0.5430208333333333,0.37481481481481477,0.8661999999999637],[-0.5420833333333334,0.44166666666666665,0.8830000000000098],[-0.5665625,0.5050000000000001,0.8996999999999531],[-0.5860416666666667,0.5612962962962963,0.917500000000004],[-0.6026041666666667,0.625,0.9328999999999041],[-0.6298958333333334,0.6672222222222222,0.9495999999999754],[-0.6109375,0.6931481481481481,0.966199999999958],[-0.591875,0.7362962962962963,0.9848999999999108],[-0.5858333333333333,0.7661111111111112,0.9997999999999365],[-0.5797916666666667,0.7959259259259258,1.01629999999993],[-0.5788541666666667,0.7442592592592592,1.0328999999999127],[-0.5923958333333333,0.6774074074074073,1.049500000000009],[-0.5275,0.6290740740740741,1.0661999999999523],[-0.5373958333333333,0.5951851851851852,1.0850999999999829],[-0.5473958333333333,0.5564814814814815,1.099599999999981],[-0.529375,0.5564814814814815,1.1187999999999363],[-0.5111458333333333,0.547037037037037,1.132899999999907],[-0.49947916666666664,0.5353703703703704,1.1495000000000033],[-0.4780208333333333,0.5179629629629631,1.1662999999999357],[-0.46156250000000004,0.48814814814814816,1.1831999999999567],[-0.41687500000000005,0.4957407407407408,1.1995999999999754],[-0.39520833333333333,0.48925925925925934,1.216199999999958],[-0.4015625,0.4594444444444445,1.2328999999999155],[-0.34874999999999995,0.4294444444444444,1.2518999999999068],[-0.3151041666666667,0.40481481481481485,1.2661999999999551],[-0.3015625,0.3603703703703704,1.2828999999999127],[-0.3259375,0.37111111111111106,1.2995999999999839],[-0.3438541666666667,0.3668518518518519,1.3185000000000002],[-0.3892708333333334,0.37037037037037035,1.3328999999999098],[-0.3819791666666667,0.39351851851851855,1.349599999999981],[-0.4070833333333333,0.4038888888888889,1.3662999999999386],[-0.38375,0.4262962962962964,1.382899999999907],[-0.3608333333333333,0.4398148148148148,1.3995999999999782],[-0.3494791666666667,0.4564814814814815,1.4190000000000111],[-0.2869791666666667,0.4655555555555555,1.4397999999999342],[-0.2869791666666667,0.4655555555555555,1.4495000000000005],[-0.21302083333333333,0.5009259259259259,1.466199999999958],[-0.13895833333333332,0.5042592592592592,1.4997999999999365],[-0.06572916666666669,0.4935185185185185,1.5182999999999396],[0.03791666666666664,0.47481481481481475,1.5327999999999378],[0.08635416666666676,0.44092592592592594,1.549500000000009],[0.15593750000000003,0.4301851851851851,1.5661999999999523],[0.2037499999999999,0.4251851851851852,1.5828999999999098],[0.2257291666666667,0.4351851851851852,1.599599999999981],[0.25927083333333345,0.4420370370370371,1.6161999999999637],[0.26708333333333345,0.4246296296296295,1.632899999999907],[0.2634375000000001,0.380925925925926,1.6495999999999782],[0.2960416666666667,0.3527777777777778,1.6661999999999608],[0.3147916666666667,0.330925925925926,1.6828999999999041],[0.34385416666666657,0.28055555555555556,1.6995999999999754],[0.38041666666666674,0.2381481481481482,1.716199999999958],[0.3992708333333333,0.1714814814814815,1.7328999999999155],[0.4144791666666668,0.10111111111111115,1.7494999999999976],[0.4357291666666666,0.03092592592592601,1.7661999999999551],[0.4696875000000001,-0.026851851851851852,1.7828999999999127],[0.48708333333333326,-0.06166666666666669,1.8016999999999541],[0.5044791666666666,-0.09648148148148153,1.8161999999999523],[0.47114583333333326,-0.1346296296296296,1.832799999999935],[0.45250000000000007,-0.16500000000000004,1.8495000000000061],[0.421875,-0.16314814814814818,1.8662999999999386],[0.37374999999999997,-0.16166666666666668,1.882899999999907],[0.33479166666666677,-0.14981481481481476,1.907599999999988],[0.33479166666666677,-0.14981481481481476,1.9163999999999106],[0.32218749999999996,-0.18185185185185182,1.9330999999999818],[0.32218749999999996,-0.18185185185185182,1.9496999999999645],[0.27531249999999996,-0.20333333333333337,1.9710000000000036],[0.27531249999999996,-0.20333333333333337,1.983000000000004],[0.21208333333333323,-0.2242592592592593,1.9996999999999616],[0.21208333333333323,-0.2242592592592593,2.01629999999993],[0.19677083333333342,-0.25037037037037035,2.038499999999999],[0.19677083333333342,-0.25037037037037035,2.049599999999984],[0.1564583333333334,-0.2564814814814815,2.0663999999999163],[0.1564583333333334,-0.2564814814814815,2.0829999999999984],[0.2068749999999999,-0.22685185185185186,2.1062999999999334],[0.2068749999999999,-0.22685185185185186,2.1163999999999135],[0.2296875,-0.3068518518518518,2.1330999999999847],[0.2296875,-0.3068518518518518,2.149699999999953],[0.2459374999999999,-0.3979629629629629,2.1711999999999563],[0.2459374999999999,-0.3979629629629629,2.183000000000007],[0.2760416666666667,-0.46518518518518515,2.1997999999999394],[0.2760416666666667,-0.46518518518518515,2.219299999999933],[0.30927083333333344,-0.5061111111111112,2.233099999999979],[0.3224999999999999,-0.4896296296296296,2.2552999999999344],[0.3224999999999999,-0.4896296296296296,2.26629999999993],[0.3706249999999999,-0.48277777777777775,2.2828999999999127],[0.4275000000000001,-0.4838888888888889,2.3023999999999063],[0.4444791666666667,-0.47759259259259257,2.3186999999999642],[0.4938541666666666,-0.47555555555555556,2.334899999999905],[0.4583333333333333,-0.5385185185185185,2.3500999999999834],[0.4479166666666667,-0.4674074074074074,2.368399999999909],[0.4573958333333332,-0.4192592592592592,2.3840999999999752],[0.4650000000000001,-0.40777777777777774,2.4031999999999556],[0.4694791666666667,-0.4225925925925926,2.4186999999999585],[0.44500000000000006,-0.46722222222222226,2.432899999999904],[0.44166666666666665,-0.5264814814814816,2.4495000000000005],[0.42604166666666665,-0.5568518518518518,2.466199999999958],[0.42604166666666665,-0.5568518518518518,2.4852999999999383],[0.42635416666666665,-0.5753703703703703,2.500099999999975],[0.3902083333333332,-0.6190740740740741,2.518699999999953],[0.40677083333333336,-0.634074074074074,2.535899999999913],[0.4197916666666667,-0.6616666666666667,2.5511999999999517],[0.4181250000000001,-0.6648148148148149,2.5660999999999774],[0.42197916666666657,-0.6548148148148148,2.58289999999991],[0.42291666666666666,-0.6414814814814814,2.6018999999999153],[0.44645833333333323,-0.6118518518518518,2.618199999999959],[0.4405208333333334,-0.5831481481481481,2.632799999999932],[0.44593749999999993,-0.5512962962962963,2.649599999999978],[0.43697916666666664,-0.53,2.666199999999961],[0.45322916666666657,-0.5024074074074074,2.6848999999999137],[0.43208333333333326,-0.4757407407407407,2.6997999999999394],[0.43166666666666675,-0.4594444444444445,2.7180999999999784],[0.4273958333333333,-0.46722222222222226,2.7328999999999155],[0.43416666666666665,-0.4905555555555555,2.7552999999999344],[0.43718750000000006,-0.48759259259259263,2.769399999999905],[0.44020833333333326,-0.48462962962962963,2.785899999999913],[0.44479166666666664,-0.515925925925926,2.802599999999984],[0.4484375,-0.5161111111111111,2.820199999999957],[0.44406249999999997,-0.596111111111111,2.835000000000008],[0.4435416666666666,-0.6729629629629629,2.8498999999999057],[0.44166666666666665,-0.6911111111111111,2.8661999999999637],[0.44375,-0.6264814814814815,2.8848999999999165],[0.4487499999999999,-0.6038888888888889,2.8995000000000033],[0.41854166666666665,-0.5477777777777778,2.916199999999961],[0.3398958333333333,-0.5031481481481481,2.932899999999904],[0.2787499999999999,-0.4644444444444445,2.9495000000000005],[0.22989583333333338,-0.3479629629629629,2.966199999999958],[0.1740624999999999,-0.2922222222222222,2.9828999999999155],[0.14187500000000006,-0.12759259259259256,2.9995999999999867],[0.10968749999999995,0.037037037037037035,3.0195999999999827],[0.05614583333333331,0.11166666666666658,3.0360000000000014],[0.00947916666666669,0.1307407407407408,3.0515000000000043],[-0.036145833333333384,0.222037037037037,3.0661999999999523],[-0.09208333333333331,0.26703703703703713,3.0830999999999875],[-0.09291666666666672,0.293888888888889,3.099699999999956],[-0.07489583333333331,0.3472222222222222,3.1173999999999182],[-0.06239583333333331,0.3725925925925927,3.132899999999907],[-0.06208333333333336,0.37222222222222223,3.150599999999983],[-0.06697916666666662,0.3638888888888889,3.173699999999954],[-0.06697916666666662,0.3638888888888889,3.1827999999999292],[-0.07177083333333331,0.3550000000000001,3.1997999999999394],[-0.03937499999999995,0.3707407407407408,3.217699999999951],[-0.029270833333333357,0.36370370370370364,3.2327999999999406],[-0.019166666666666644,0.3566666666666667,3.2494999999999976],[0.016250000000000025,0.3675925925925926,3.26629999999993],[0.05,0.39203703703703713,3.283399999999915]]","[0.00009999999997489795,0.016299999999930037,0.032899999999912666,0.054899999999918236,0.0661999999999523,0.08289999999990982,0.09959999999998104,0.11669999999995184,0.13289999999990698,0.1495000000000033,0.16619999999996082,0.18289999999990414,0.19959999999997535,0.21650000000001057,0.2328999999999155,0.24959999999998672,0.26619999999995514,0.28300000000000125,0.2996999999999588,0.3162999999999414,0.3328999999999098,0.34959999999998104,0.36619999999996367,0.3827999999999321,0.3996999999999531,0.4164999999999992,0.43289999999990414,0.44959999999997535,0.466199999999958,0.4828999999999155,0.4995999999999867,0.5190999999999804,0.5328999999999127,0.549500000000009,0.5661999999999523,0.5847999999999303,0.599599999999981,0.6161999999999637,0.6330000000000098,0.6495999999999782,0.6661999999999608,0.6827999999999292,0.6995999999999754,0.7181999999999533,0.7328999999999155,0.7518999999999068,0.76629999999993,0.7827999999999378,0.7995999999999839,0.8162999999999414,0.8328999999999098,0.849599999999981,0.8661999999999637,0.8830000000000098,0.8996999999999531,0.917500000000004,0.9328999999999041,0.9495999999999754,0.966199999999958,0.9848999999999108,0.9997999999999365,1.01629999999993,1.0328999999999127,1.049500000000009,1.0661999999999523,1.0850999999999829,1.099599999999981,1.1187999999999363,1.132899999999907,1.1495000000000033,1.1662999999999357,1.1831999999999567,1.1995999999999754,1.216199999999958,1.2328999999999155,1.2518999999999068,1.2661999999999551,1.2828999999999127,1.2995999999999839,1.3185000000000002,1.3328999999999098,1.349599999999981,1.3662999999999386,1.382899999999907,1.3995999999999782,1.4190000000000111,1.4397999999999342,1.4495000000000005,1.466199999999958,1.4997999999999365,1.5182999999999396,1.5327999999999378,1.549500000000009,1.5661999999999523,1.5828999999999098,1.599599999999981,1.6161999999999637,1.632899999999907,1.6495999999999782,1.6661999999999608,1.6828999999999041,1.6995999999999754,1.716199999999958,1.7328999999999155,1.7494999999999976,1.7661999999999551,1.7828999999999127,1.8016999999999541,1.8161999999999523,1.832799999999935,1.8495000000000061,1.8662999999999386,1.882899999999907,1.907599999999988,1.9163999999999106,1.9330999999999818,1.9496999999999645,1.9710000000000036,1.983000000000004,1.9996999999999616,2.01629999999993,2.038499999999999,2.049599999999984,2.0663999999999163,2.0829999999999984,2.1062999999999334,2.1163999999999135,2.1330999999999847,2.149699999999953,2.1711999999999563,2.183000000000007,2.1997999999999394,2.219299999999933,2.233099999999979,2.2552999999999344,2.26629999999993,2.2828999999999127,2.3023999999999063,2.3186999999999642,2.334899999999905,2.3500999999999834,2.368399999999909,2.3840999999999752,2.4031999999999556,2.4186999999999585,2.432899999999904,2.4495000000000005,2.466199999999958,2.4852999999999383,2.500099999999975,2.518699999999953,2.535899999999913,2.5511999999999517,2.5660999999999774,2.58289999999991,2.6018999999999153,2.618199999999959,2.632799999999932,2.649599999999978,2.666199999999961,2.6848999999999137,2.6997999999999394,2.7180999999999784,2.7328999999999155,2.7552999999999344,2.769399999999905,2.785899999999913,2.802599999999984,2.820199999999957,2.835000000000008,2.8498999999999057,2.8661999999999637,2.8848999999999165,2.8995000000000033,2.916199999999961,2.932899999999904,2.9495000000000005,2.966199999999958,2.9828999999999155,2.9995999999999867,3.0195999999999827,3.0360000000000014,3.0515000000000043,3.0661999999999523,3.0830999999999875,3.099699999999956,3.1173999999999182,3.132899999999907,3.150599999999983,3.173699999999954,3.1827999999999292,3.1997999999999394,3.217699999999951,3.2327999999999406,3.2494999999999976,3.26629999999993,3.283399999999915]","[1733111263700,1733111263715,1733111263732,1733111263754,1733111263765,1733111263782,1733111263798,1733111263816,1733111263832,1733111263848,1733111263865,1733111263882,1733111263899,1733111263915,1733111263932,1733111263948,1733111263965,1733111263982,1733111263999,1733111264015,1733111264032,1733111264048,1733111264065,1733111264082,1733111264099,1733111264115,1733111264132,1733111264148,1733111264165,1733111264182,1733111264199,1733111264218,1733111264232,1733111264248,1733111264265,1733111264284,1733111264298,1733111264315,1733111264332,1733111264348,1733111264365,1733111264382,1733111264398,1733111264417,1733111264432,1733111264451,1733111264465,1733111264482,1733111264499,1733111264515,1733111264532,1733111264548,1733111264565,1733111264582,1733111264599,1733111264616,1733111264632,1733111264648,1733111264665,1733111264684,1733111264699,1733111264715,1733111264732,1733111264748,1733111264765,1733111264784,1733111264799,1733111264818,1733111264832,1733111264848,1733111264865,1733111264882,1733111264899,1733111264915,1733111264932,1733111264951,1733111264965,1733111264982,1733111264998,1733111265017,1733111265032,1733111265048,1733111265065,1733111265082,1733111265098,1733111265118,1733111265139,1733111265148,1733111265165,1733111265199,1733111265217,1733111265232,1733111265248,1733111265265,1733111265282,1733111265299,1733111265315,1733111265332,1733111265348,1733111265365,1733111265382,1733111265398,1733111265415,1733111265432,1733111265448,1733111265465,1733111265482,1733111265501,1733111265515,1733111265532,1733111265548,1733111265565,1733111265582,1733111265606,1733111265615,1733111265632,1733111265649,1733111265670,1733111265682,1733111265699,1733111265715,1733111265737,1733111265749,1733111265765,1733111265782,1733111265805,1733111265815,1733111265832,1733111265849,1733111265870,1733111265882,1733111265899,1733111265918,1733111265932,1733111265954,1733111265965,1733111265982,1733111266001,1733111266018,1733111266034,1733111266049,1733111266067,1733111266083,1733111266102,1733111266118,1733111266132,1733111266148,1733111266165,1733111266184,1733111266199,1733111266218,1733111266235,1733111266250,1733111266265,1733111266282,1733111266301,1733111266317,1733111266332,1733111266348,1733111266365,1733111266384,1733111266399,1733111266417,1733111266432,1733111266454,1733111266468,1733111266485,1733111266501,1733111266519,1733111266534,1733111266549,1733111266565,1733111266584,1733111266598,1733111266615,1733111266632,1733111266648,1733111266665,1733111266682,1733111266698,1733111266718,1733111266735,1733111266750,1733111266765,1733111266782,1733111266799,1733111266816,1733111266832,1733111266849,1733111266873,1733111266882,1733111266899,1733111266917,1733111266932,1733111266948,1733111266965,1733111266982]","[[1221.1,315.8],[1221.1,315.8],[1230.9,351.9],[1230.9,351.9],[1222.2,349.8],[1222.2,349.8],[1217.5,364.3],[1199.7,355.6],[1192.3,338.5],[1149.9,320.5],[1115.3,291],[1069.9,259.1],[1049.5,251.5],[1016,230.6],[997.6,213],[1007.9,203.8],[978.9,188.1],[998.7,194.2],[1037.9,225.1],[1021.1,222.8],[1020.3,265.5],[1026.3,283.7],[1041.3,263.2],[1075.2,264.1],[1048.2,258.3],[1021.2,252.5],[1019,251.6],[965.1,233.1],[935.4,228.9],[950.6,235.6],[961.3,219.3],[976.4,236],[952.9,259],[929.4,282],[943.1,298.9],[972.4,316.4],[1015.5,335.1],[1058.6,353.8],[1057.6,371],[1066.5,401.6],[1040.2,412.8],[1025.4,434.8],[1021.4,453.2],[975.1,487.8],[916.5,529.2],[852.5,566.1],[785.5,598],[721.2,631.3],[658.9,647.7],[586.7,650.7],[546.1,679.9],[494,698.3],[438.7,742.4],[439.6,778.5],[416.1,812.7],[397.4,843.1],[381.5,877.5],[355.3,900.3],[373.5,914.3],[391.8,937.6],[397.6,953.7],[403.4,969.8],[404.3,941.9],[391.3,905.8],[453.6,879.7],[444.1,861.4],[434.5,840.5],[451.8,840.5],[469.3,835.4],[480.5,829.1],[501.1,819.7],[516.9,803.6],[559.8,807.7],[580.6,804.2],[574.5,788.1],[625.2,771.9],[657.5,758.6],[670.5,734.6],[647.1,740.4],[629.9,738.1],[586.3,740],[593.3,752.5],[569.2,758.1],[591.6,770.2],[613.6,777.5],[624.5,786.5],[684.5,791.4],[684.5,791.4],[755.5,810.5],[826.6,812.3],[896.9,806.5],[996.4,796.4],[1042.9,778.1],[1109.7,772.3],[1155.6,769.6],[1176.7,775],[1208.9,778.7],[1216.4,769.3],[1212.9,745.7],[1244.2,730.5],[1262.2,718.7],[1290.1,691.5],[1325.2,668.6],[1343.3,632.6],[1357.9,594.6],[1378.3,556.7],[1410.9,525.5],[1427.6,506.7],[1444.3,487.9],[1412.3,467.3],[1394.4,450.9],[1365,451.9],[1318.8,452.7],[1281.4,459.1],[1281.4,459.1],[1269.3,441.8],[1269.3,441.8],[1224.3,430.2],[1224.3,430.2],[1163.6,418.9],[1163.6,418.9],[1148.9,404.8],[1148.9,404.8],[1110.2,401.5],[1110.2,401.5],[1158.6,417.5],[1158.6,417.5],[1180.5,374.3],[1180.5,374.3],[1196.1,325.1],[1196.1,325.1],[1225,288.8],[1225,288.8],[1256.9,266.7],[1269.6,275.6],[1269.6,275.6],[1315.8,279.3],[1370.4,278.7],[1386.7,282.1],[1434.1,283.2],[1400,249.2],[1390,287.6],[1399.1,313.6],[1406.4,319.8],[1410.7,311.8],[1387.2,287.7],[1384,255.7],[1369,239.3],[1369,239.3],[1369.3,229.3],[1334.6,205.7],[1350.5,197.6],[1363,182.7],[1361.4,181],[1365.1,186.4],[1366,193.6],[1388.6,209.6],[1382.9,225.1],[1388.1,242.3],[1379.5,253.8],[1395.1,268.7],[1374.8,283.1],[1374.4,291.9],[1370.3,287.7],[1376.8,275.1],[1379.7,276.7],[1382.6,278.3],[1387,261.4],[1390.5,261.3],[1386.3,218.1],[1385.8,176.6],[1384,166.8],[1386,201.7],[1390.8,213.9],[1361.8,244.2],[1286.3,268.3],[1227.6,289.2],[1180.7,352.1],[1127.1,382.2],[1096.2,471.1],[1065.3,560],[1013.9,600.3],[969.1,610.6],[925.3,659.9],[871.6,684.2],[870.8,698.7],[888.1,727.5],[900.1,741.2],[900.4,741],[895.7,736.5],[895.7,736.5],[891.1,731.7],[922.2,740.2],[931.9,736.4],[941.6,732.6],[975.6,738.5],[1008,751.7]]","[0,0.5333]","[0.5333,0.5333]","[-0.5333,0]","[-0.5333,-0.5333]","[0,0]","[0.5333,0]","[0,-0.5333]","[0.5333,-0.5333]",0,1,1,1,1,1,Monitor,9,1,11,5
