inst1_resp.keys,inst1_resp.rt,calibrationMouse.x,calibrationMouse.y,calibrationMouse.leftButton,calibrationMouse.midButton,calibrationMouse.rightButton,calibrationClick.x,calibrationClick.y,calibrationClick.leftButton,calibrationClick.midButton,calibrationClick.rightButton,calibrationClick.clicked_name,trialsc.thisRepN,trialsc.thisTrialN,trialsc.thisN,trialsc.thisIndex,trialsc.ran,calibration_x,calibration_y,participant,session,date,expName,psychopyVersion,OS,frameRate,ScreenRes_pixels,Camera_pixels,mouse_2.x,mouse_2.y,mouse_2.leftButton,mouse_2.midButton,mouse_2.rightButton,mouse_2.time,mouse_2.clicked_name,mouse.x,mouse.y,mouse.leftButton,mouse.midButton,mouse.rightButton,mouse.time,mouse.clicked_name,Choice,Trial,TrialDuration,MOUSE_GAZE,ET_GAZE,ET_GAZE_x_T,time,unixTime,ET_GAZE_NF,Loc_Option1_label,Loc_Option2_label,Loc_Cost_label,Loc_Qual_label,Loc_Option1_cost,Loc_Option2_cost,Loc_Option1_quality,Loc_Option2_quality,trials.thisRepN,trials.thisTrialN,trials.thisN,trials.thisIndex,trials.ran,Block,Device,cost1,qual1,cost2,qual2
space,3.702,-0.283333333,-0.290740741,1,0,0,-0.338541667,-0.001851852,1,0,0,calibration_square,0,0,0,6,1,-0.33,0,06,001,2024-12-02_16h59.30.162,Attention_exp_legacy,2023.1.0,Win32,60.24096386,,,,,,,,,,,,,,,,,,,,,,,,,,,,,,,,,,,,,,,,,,,,
,,,,,,,0.330208333,0.672222222,1,0,0,calibration_square,0,1,1,18,1,0.33,0.67,06,001,2024-12-02_16h59.30.162,Attention_exp_legacy,2023.1.0,Win32,60.24096386,,,,,,,,,,,,,,,,,,,,,,,,,,,,,,,,,,,,,,,,,,,,
,,,,,,,-0.001041667,-0.333333333,1,0,0,calibration_square,0,2,2,10,1,0,-0.33,06,001,2024-12-02_16h59.30.162,Attention_exp_legacy,2023.1.0,Win32,60.24096386,,,,,,,,,,,,,,,,,,,,,,,,,,,,,,,,,,,,,,,,,,,,
,,,,,,,-0.671875,-0.668518519,1,0,0,calibration_square,0,3,3,0,1,-0.67,-0.67,06,001,2024-12-02_16h59.30.162,Attention_exp_legacy,2023.1.0,Win32,60.24096386,,,,,,,,,,,,,,,,,,,,,,,,,,,,,,,,,,,,,,,,,,,,
,,,,,,,-0.323958333,-0.32962963,1,0,0,calibration_square,0,4,4,5,1,-0.33,-0.33,06,001,2024-12-02_16h59.30.162,Attention_exp_legacy,2023.1.0,Win32,60.24096386,,,,,,,,,,,,,,,,,,,,,,,,,,,,,,,,,,,,,,,,,,,,
,,,,,,,0.671875,0.67037037,1,0,0,calibration_square,0,5,5,19,1,0.67,0.67,06,001,2024-12-02_16h59.30.162,Attention_exp_legacy,2023.1.0,Win32,60.24096386,,,,,,,,,,,,,,,,,,,,,,,,,,,,,,,,,,,,,,,,,,,,
,,,,,,,-0.317708333,-0.651851852,1,0,0,,0,6,6,4,1,-0.33,-0.67,06,001,2024-12-02_16h59.30.162,Attention_exp_legacy,2023.1.0,Win32,60.24096386,,,,,,,,,,,,,,,,,,,,,,,,,,,,,,,,,,,,,,,,,,,,
,,,,,,,0.01875,0.314814815,1,0,0,,0,7,7,12,1,0,0.33,06,001,2024-12-02_16h59.30.162,Attention_exp_legacy,2023.1.0,Win32,60.24096386,,,,,,,,,,,,,,,,,,,,,,,,,,,,,,,,,,,,,,,,,,,,
,,,,,,,0.353125,0.27962963,1,0,0,,0,8,8,17,1,0.33,0.33,06,001,2024-12-02_16h59.30.162,Attention_exp_legacy,2023.1.0,Win32,60.24096386,,,,,,,,,,,,,,,,,,,,,,,,,,,,,,,,,,,,,,,,,,,,
,,,,,,,0.328125,-0.007407407,1,0,0,calibration_square,0,9,9,16,1,0.33,0,06,001,2024-12-02_16h59.30.162,Attention_exp_legacy,2023.1.0,Win32,60.24096386,,,,,,,,,,,,,,,,,,,,,,,,,,,,,,,,,,,,,,,,,,,,
,,,,,,,-0.646875,0.003703704,1,0,0,,0,10,10,2,1,-0.67,0,06,001,2024-12-02_16h59.30.162,Attention_exp_legacy,2023.1.0,Win32,60.24096386,,,,,,,,,,,,,,,,,,,,,,,,,,,,,,,,,,,,,,,,,,,,
,,,,,,,0.004166667,0.003703704,1,0,0,calibration_square,0,11,11,11,1,0,0,06,001,2024-12-02_16h59.30.162,Attention_exp_legacy,2023.1.0,Win32,60.24096386,,,,,,,,,,,,,,,,,,,,,,,,,,,,,,,,,,,,,,,,,,,,
,,,,,,,-0.660416667,0.348148148,1,0,0,,0,12,12,3,1,-0.67,0.33,06,001,2024-12-02_16h59.30.162,Attention_exp_legacy,2023.1.0,Win32,60.24096386,,,,,,,,,,,,,,,,,,,,,,,,,,,,,,,,,,,,,,,,,,,,
,,,,,,,0.671875,-0.662962963,1,0,0,calibration_square,0,13,13,20,1,0.67,-0.67,06,001,2024-12-02_16h59.30.162,Attention_exp_legacy,2023.1.0,Win32,60.24096386,,,,,,,,,,,,,,,,,,,,,,,,,,,,,,,,,,,,,,,,,,,,
,,,,,,,-0.663541667,-0.327777778,1,0,0,calibration_square,0,14,14,1,1,-0.67,-0.33,06,001,2024-12-02_16h59.30.162,Attention_exp_legacy,2023.1.0,Win32,60.24096386,,,,,,,,,,,,,,,,,,,,,,,,,,,,,,,,,,,,,,,,,,,,
,,,,,,,-0.015625,-0.664814815,1,0,0,,0,15,15,9,1,0,-0.67,06,001,2024-12-02_16h59.30.162,Attention_exp_legacy,2023.1.0,Win32,60.24096386,,,,,,,,,,,,,,,,,,,,,,,,,,,,,,,,,,,,,,,,,,,,
,,,,,,,0.3375,-0.651851852,1,0,0,,0,16,16,14,1,0.33,-0.67,06,001,2024-12-02_16h59.30.162,Attention_exp_legacy,2023.1.0,Win32,60.24096386,,,,,,,,,,,,,,,,,,,,,,,,,,,,,,,,,,,,,,,,,,,,
,,,,,,,-0.333333333,0.325925926,1,0,0,calibration_square,0,17,17,7,1,-0.33,0.33,06,001,2024-12-02_16h59.30.162,Attention_exp_legacy,2023.1.0,Win32,60.24096386,,,,,,,,,,,,,,,,,,,,,,,,,,,,,,,,,,,,,,,,,,,,
,,,,,,,-0.002083333,0.67037037,1,0,0,calibration_square,0,18,18,13,1,0,0.67,06,001,2024-12-02_16h59.30.162,Attention_exp_legacy,2023.1.0,Win32,60.24096386,,,,,,,,,,,,,,,,,,,,,,,,,,,,,,,,,,,,,,,,,,,,
,,,,,,,0.3375,-0.333333333,1,0,0,calibration_square,0,19,19,15,1,0.33,-0.33,06,001,2024-12-02_16h59.30.162,Attention_exp_legacy,2023.1.0,Win32,60.24096386,,,,,,,,,,,,,,,,,,,,,,,,,,,,,,,,,,,,,,,,,,,,
,,,,,,,-0.322916667,0.668518519,1,0,0,calibration_square,0,20,20,8,1,-0.33,0.67,06,001,2024-12-02_16h59.30.162,Attention_exp_legacy,2023.1.0,Win32,60.24096386,,,,,,,,,,,,,,,,,,,,,,,,,,,,,,,,,,,,,,,,,,,,
,,,,,,,,,,,,,,,,,,,,06,001,2024-12-02_16h59.30.162,Attention_exp_legacy,2023.1.0,Win32,60.24096386,"[1920,1080]","[640,480]",[0.042708333333333334],[-0.5074074074074074],[1],[0],[0],[2.059900000002237],"[""StartButton""]",[0.05],[0.5462962962962963],[1],[0],[0],[5.841399999998508],"[""Option1_label""]",Option1_label,1,6.8653,"[[-0.05416666666666667,-0.18888888888888888],[-0.05416666666666667,-0.18888888888888888],[-0.05416666666666667,-0.18888888888888888],[-0.05416666666666667,-0.18888888888888888],[-0.05416666666666667,-0.18888888888888888],[-0.05416666666666667,-0.18888888888888888],[-0.05416666666666667,-0.18888888888888888],[-0.05416666666666667,-0.18888888888888888],[-0.05416666666666667,-0.18888888888888888],[-0.05416666666666667,-0.18888888888888888],[-0.05416666666666667,-0.18888888888888888],[-0.06041666666666667,-0.18518518518518517],[-0.06041666666666667,-0.18518518518518517],[-0.06041666666666667,-0.18518518518518517],[-0.06041666666666667,-0.1814814814814815],[-0.06666666666666667,-0.17962962962962964],[-0.07291666666666667,-0.17592592592592593],[-0.08125,-0.15925925925925927],[-0.08125,-0.15925925925925927],[-0.08958333333333333,-0.15],[-0.08958333333333333,-0.15],[-0.090625,-0.15],[-0.090625,-0.15],[-0.09166666666666666,-0.15],[-0.09166666666666666,-0.15],[-0.09166666666666666,-0.15],[-0.09166666666666666,-0.15],[-0.09375,-0.15],[-0.09375,-0.15],[-0.09479166666666666,-0.15],[-0.09479166666666666,-0.15],[-0.09895833333333333,-0.15185185185185185],[-0.10104166666666667,-0.1537037037037037],[-0.10625,-0.16111111111111112],[-0.109375,-0.1648148148148148],[-0.109375,-0.16666666666666666],[-0.109375,-0.16666666666666666],[-0.109375,-0.16666666666666666],[-0.10625,-0.16666666666666666],[-0.0875,-0.16296296296296298],[-0.06875,-0.15925925925925927],[-0.051041666666666666,-0.15925925925925927],[-0.051041666666666666,-0.15925925925925927],[-0.05,-0.15925925925925927],[-0.05,-0.15925925925925927],[-0.05,-0.15925925925925927],[-0.05,-0.15925925925925927],[-0.05,-0.15925925925925927],[-0.05,-0.15925925925925927],[-0.05,-0.15925925925925927],[-0.05,-0.15925925925925927],[-0.05,-0.15925925925925927],[-0.05,-0.15925925925925927],[-0.05,-0.15925925925925927],[-0.05,-0.15925925925925927],[-0.05,-0.15925925925925927],[-0.05,-0.15925925925925927],[-0.05,-0.15925925925925927],[-0.05,-0.15925925925925927],[-0.05,-0.15925925925925927],[-0.05,-0.15925925925925927],[-0.05,-0.15925925925925927],[-0.05,-0.15925925925925927],[-0.05,-0.15925925925925927],[-0.05,-0.15925925925925927],[-0.04479166666666667,-0.12407407407407407],[-0.04375,-0.12222222222222222],[-0.04375,-0.1037037037037037],[-0.04375,-0.09814814814814815],[-0.04375,-0.08148148148148149],[-0.04375,-0.07962962962962963],[-0.041666666666666664,-0.07407407407407407],[-0.041666666666666664,-0.07222222222222222],[-0.040625,-0.07037037037037037],[-0.040625,-0.07037037037037037],[-0.040625,-0.07037037037037037],[-0.040625,-0.07037037037037037],[-0.040625,-0.06851851851851852],[-0.040625,-0.06851851851851852],[-0.040625,-0.06666666666666667],[-0.040625,-0.06666666666666667],[-0.03958333333333333,-0.06481481481481481],[-0.03854166666666667,-0.06296296296296296],[-0.0375,-0.06296296296296296],[-0.0375,-0.06296296296296296],[-0.036458333333333336,-0.06296296296296296],[-0.036458333333333336,-0.06296296296296296],[-0.035416666666666666,-0.06296296296296296],[-0.03333333333333333,-0.06111111111111111],[-0.03125,-0.05925925925925926],[-0.029166666666666667,-0.05740740740740741],[-0.028125,-0.05740740740740741],[-0.025,-0.05555555555555555],[-0.009375,-0.05555555555555555],[0.003125,-0.05555555555555555],[0.009375,-0.05555555555555555],[0.014583333333333334,-0.05555555555555555],[0.021875,-0.05925925925925926],[0.03229166666666667,-0.06111111111111111],[0.03958333333333333,-0.06296296296296296],[0.04791666666666667,-0.06296296296296296],[0.057291666666666664,-0.06666666666666667],[0.06354166666666666,-0.06666666666666667],[0.06458333333333334,-0.06666666666666667],[0.06979166666666667,-0.06666666666666667],[0.090625,-0.05925925925925926],[0.10729166666666666,-0.05555555555555555],[0.11770833333333333,-0.05740740740740741],[0.11770833333333333,-0.05740740740740741],[0.11770833333333333,-0.05740740740740741],[0.11770833333333333,-0.05740740740740741],[0.11770833333333333,-0.05740740740740741],[0.11770833333333333,-0.05740740740740741],[0.11770833333333333,-0.05740740740740741],[0.11770833333333333,-0.05740740740740741],[0.11770833333333333,-0.05740740740740741],[0.11770833333333333,-0.05740740740740741],[0.11770833333333333,-0.05740740740740741],[0.11770833333333333,-0.05740740740740741],[0.11770833333333333,-0.05740740740740741],[0.11770833333333333,-0.05740740740740741],[0.11770833333333333,-0.05740740740740741],[0.11770833333333333,-0.05740740740740741],[0.11770833333333333,-0.05740740740740741],[0.11770833333333333,-0.05740740740740741],[0.11770833333333333,-0.05740740740740741],[0.11770833333333333,-0.05740740740740741],[0.11770833333333333,-0.05740740740740741],[0.11770833333333333,-0.05740740740740741],[0.11770833333333333,-0.05740740740740741],[0.11770833333333333,-0.05740740740740741],[0.11770833333333333,-0.05740740740740741],[0.11770833333333333,-0.05740740740740741],[0.115625,-0.05740740740740741],[0.115625,-0.05740740740740741],[0.11354166666666667,-0.05],[0.10416666666666667,-0.040740740740740744],[0.08958333333333333,-0.03518518518518519],[0.08020833333333334,-0.02962962962962963],[0.07604166666666666,-0.025925925925925925],[0.07291666666666667,-0.024074074074074074],[0.06979166666666667,-0.022222222222222223],[0.06770833333333333,-0.020370370370370372],[0.065625,-0.018518518518518517],[0.065625,-0.018518518518518517],[0.065625,-0.018518518518518517],[0.06458333333333334,-0.018518518518518517],[0.06354166666666666,-0.016666666666666666],[0.06354166666666666,-0.016666666666666666],[0.0625,-0.014814814814814815],[0.0625,-0.014814814814814815],[0.06145833333333333,-0.012962962962962963],[0.06041666666666667,-0.012962962962962963],[0.059375,-0.012962962962962963],[0.058333333333333334,-0.011111111111111112],[0.058333333333333334,-0.011111111111111112],[0.058333333333333334,-0.011111111111111112],[0.058333333333333334,-0.011111111111111112],[0.058333333333333334,-0.011111111111111112],[0.058333333333333334,-0.011111111111111112],[0.058333333333333334,-0.011111111111111112],[0.06458333333333334,-0.011111111111111112],[0.07083333333333333,-0.012962962962962963],[0.08020833333333334,-0.016666666666666666],[0.08854166666666667,-0.016666666666666666],[0.10833333333333334,-0.016666666666666666],[0.12395833333333334,-0.016666666666666666],[0.13333333333333333,-0.016666666666666666],[0.134375,-0.014814814814814815],[0.134375,-0.014814814814814815],[0.134375,-0.014814814814814815],[0.134375,-0.014814814814814815],[0.134375,-0.014814814814814815],[0.134375,-0.014814814814814815],[0.134375,-0.014814814814814815],[0.134375,-0.014814814814814815],[0.134375,-0.014814814814814815],[0.134375,-0.014814814814814815],[0.134375,-0.014814814814814815],[0.134375,-0.014814814814814815],[0.134375,-0.014814814814814815],[0.134375,-0.014814814814814815],[0.134375,-0.014814814814814815],[0.134375,-0.014814814814814815],[0.134375,-0.014814814814814815],[0.134375,-0.014814814814814815],[0.134375,-0.014814814814814815],[0.134375,-0.014814814814814815],[0.134375,-0.014814814814814815],[0.134375,-0.014814814814814815],[0.134375,-0.014814814814814815],[0.134375,-0.014814814814814815],[0.134375,-0.014814814814814815],[0.134375,-0.014814814814814815],[0.134375,-0.014814814814814815],[0.134375,-0.014814814814814815],[0.134375,-0.014814814814814815],[0.134375,-0.014814814814814815],[0.134375,-0.014814814814814815],[0.13333333333333333,-0.012962962962962963],[0.13333333333333333,-0.012962962962962963],[0.13333333333333333,-0.012962962962962963],[0.13333333333333333,-0.012962962962962963],[0.13333333333333333,-0.012962962962962963],[0.13333333333333333,-0.012962962962962963],[0.13333333333333333,-0.012962962962962963],[0.13333333333333333,-0.012962962962962963],[0.13333333333333333,-0.012962962962962963],[0.13333333333333333,-0.012962962962962963],[0.13333333333333333,-0.012962962962962963],[0.13333333333333333,-0.012962962962962963],[0.13333333333333333,-0.012962962962962963],[0.13229166666666667,-0.012962962962962963],[0.13229166666666667,-0.012962962962962963],[0.13229166666666667,-0.012962962962962963],[0.13229166666666667,-0.012962962962962963],[0.13229166666666667,-0.012962962962962963],[0.13229166666666667,-0.012962962962962963],[0.13229166666666667,-0.012962962962962963],[0.13229166666666667,-0.012962962962962963],[0.13229166666666667,-0.012962962962962963],[0.13229166666666667,-0.012962962962962963],[0.13229166666666667,-0.012962962962962963],[0.13125,-0.012962962962962963],[0.13125,-0.012962962962962963],[0.12916666666666668,-0.012962962962962963],[0.12604166666666666,-0.012962962962962963],[0.125,-0.012962962962962963],[0.121875,-0.012962962962962963],[0.11979166666666667,-0.012962962962962963],[0.11979166666666667,-0.014814814814814815],[0.11979166666666667,-0.016666666666666666],[0.11979166666666667,-0.020370370370370372],[0.12291666666666666,-0.024074074074074074],[0.128125,-0.027777777777777776],[0.13125,-0.027777777777777776],[0.134375,-0.027777777777777776],[0.134375,-0.027777777777777776],[0.134375,-0.027777777777777776],[0.134375,-0.027777777777777776],[0.134375,-0.027777777777777776],[0.134375,-0.027777777777777776],[0.134375,-0.027777777777777776],[0.134375,-0.027777777777777776],[0.134375,-0.027777777777777776],[0.134375,-0.027777777777777776],[0.134375,-0.027777777777777776],[0.134375,-0.027777777777777776],[0.134375,-0.027777777777777776],[0.134375,-0.027777777777777776],[0.134375,-0.027777777777777776],[0.134375,-0.027777777777777776],[0.134375,-0.027777777777777776],[0.134375,-0.027777777777777776],[0.134375,-0.027777777777777776],[0.134375,-0.027777777777777776],[0.134375,-0.027777777777777776],[0.134375,-0.027777777777777776],[0.134375,-0.027777777777777776],[0.12916666666666668,-0.02962962962962963],[0.12395833333333334,-0.03518518518518519],[0.11458333333333333,-0.03148148148148148],[0.09479166666666666,-0.024074074074074074],[0.07083333333333333,-0.011111111111111112],[0.04375,0.001851851851851852],[0.025,0.012962962962962963],[0.003125,0.022222222222222223],[-0.021875,0.025925925925925925],[-0.040625,0.03333333333333333],[-0.05416666666666667,0.03518518518518519],[-0.06041666666666667,0.03888888888888889],[-0.06354166666666666,0.03888888888888889],[-0.06458333333333334,0.040740740740740744],[-0.065625,0.04259259259259259],[-0.065625,0.044444444444444446],[-0.065625,0.05185185185185185],[-0.065625,0.06851851851851852],[-0.06354166666666666,0.1037037037037037],[-0.03333333333333333,0.17592592592592593],[0.023958333333333335,0.27037037037037037],[0.07708333333333334,0.35185185185185186],[0.12083333333333333,0.412962962962963],[0.165625,0.46111111111111114],[0.196875,0.48333333333333334],[0.21458333333333332,0.4962962962962963],[0.21979166666666666,0.5018518518518519],[0.21979166666666666,0.5018518518518519],[0.21979166666666666,0.5018518518518519],[0.21979166666666666,0.5018518518518519],[0.21979166666666666,0.5018518518518519],[0.21979166666666666,0.5018518518518519],[0.21041666666666667,0.5],[0.19895833333333332,0.4925925925925926],[0.18541666666666667,0.48333333333333334],[0.175,0.47962962962962963],[0.15416666666666667,0.4740740740740741],[0.13541666666666666,0.4740740740740741],[0.115625,0.4666666666666667],[0.10729166666666666,0.4648148148148148],[0.10208333333333333,0.4648148148148148],[0.09791666666666667,0.4648148148148148],[0.09479166666666666,0.4648148148148148],[0.09375,0.4648148148148148],[0.09166666666666666,0.4648148148148148],[0.090625,0.4703703703703704],[0.0875,0.47962962962962963],[0.08125,0.49444444444444446],[0.075,0.5018518518518519],[0.06354166666666666,0.512962962962963],[0.04791666666666667,0.524074074074074],[0.03333333333333333,0.5351851851851852],[0.017708333333333333,0.5444444444444444],[0.003125,0.5518518518518518],[-0.008333333333333333,0.5592592592592592],[-0.01875,0.562962962962963],[-0.03125,0.5666666666666667],[-0.041666666666666664,0.5685185185185185],[-0.046875,0.5703703703703704],[-0.04895833333333333,0.5703703703703704],[-0.04895833333333333,0.5703703703703704],[-0.04895833333333333,0.5703703703703704],[-0.04895833333333333,0.5703703703703704],[-0.04895833333333333,0.5703703703703704],[-0.04895833333333333,0.5703703703703704],[-0.04895833333333333,0.5703703703703704],[-0.04791666666666667,0.562962962962963],[-0.03958333333333333,0.55],[-0.023958333333333335,0.5333333333333333],[-0.013541666666666667,0.524074074074074],[0.005208333333333333,0.5111111111111111],[0.028125,0.5018518518518519],[0.04791666666666667,0.49074074074074076],[0.06354166666666666,0.4888888888888889],[0.07395833333333333,0.4888888888888889],[0.07395833333333333,0.4888888888888889],[0.07395833333333333,0.4888888888888889],[0.07395833333333333,0.4888888888888889],[0.07395833333333333,0.49074074074074076],[0.07395833333333333,0.4925925925925926],[0.07395833333333333,0.4981481481481482],[0.071875,0.5037037037037037],[0.06979166666666667,0.5092592592592593],[0.065625,0.5203703703703704],[0.06145833333333333,0.5277777777777778],[0.057291666666666664,0.5333333333333333],[0.051041666666666666,0.5444444444444444],[0.051041666666666666,0.5462962962962963],[0.05,0.5462962962962963],[0.05,0.5462962962962963],[0.05,0.5462962962962963],[0.05,0.5462962962962963],[0.05,0.5462962962962963],[0.05,0.5462962962962963],[0.05,0.5462962962962963],[0.05,0.5462962962962963],[0.05,0.5462962962962963],[0.05,0.5462962962962963],[0.05,0.5462962962962963],[0.05,0.5462962962962963],[0.05,0.5462962962962963],[0.05,0.5462962962962963],[0.05,0.5462962962962963],[0.05,0.5462962962962963],[0.05,0.5462962962962963],[0.05,0.5462962962962963],[0.05,0.5462962962962963],[0.05,0.5462962962962963],[0.05,0.5462962962962963],[0.05,0.5462962962962963],[0.05,0.5462962962962963],[0.04895833333333333,0.5462962962962963],[0.04791666666666667,0.5462962962962963],[0.04791666666666667,0.5462962962962963],[0.04791666666666667,0.5462962962962963],[0.04791666666666667,0.5462962962962963],[0.04791666666666667,0.5462962962962963],[0.04791666666666667,0.5462962962962963],[0.04791666666666667,0.5462962962962963],[0.04791666666666667,0.5462962962962963],[0.04791666666666667,0.5462962962962963],[0.04791666666666667,0.5462962962962963],[0.04791666666666667,0.5462962962962963],[0.04791666666666667,0.5462962962962963],[0.046875,0.5462962962962963],[0.046875,0.5462962962962963],[0.046875,0.5462962962962963],[0.046875,0.5462962962962963],[0.046875,0.5462962962962963],[0.046875,0.5462962962962963],[0.046875,0.5462962962962963],[0.046875,0.5462962962962963],[0.04375,0.5462962962962963],[0.040625,0.5444444444444444],[0.03125,0.5388888888888889],[0.027083333333333334,0.5370370370370371],[0.021875,0.5351851851851852],[0.0125,0.5296296296296297],[-0.0020833333333333333,0.5277777777777778],[-0.015625,0.5222222222222223],[-0.028125,0.5203703703703704],[-0.035416666666666666,0.5185185185185185],[-0.0375,0.5185185185185185],[-0.03854166666666667,0.5185185185185185],[-0.03854166666666667,0.5185185185185185],[-0.03854166666666667,0.5185185185185185],[-0.03854166666666667,0.5185185185185185],[-0.03854166666666667,0.5185185185185185],[-0.03854166666666667,0.5185185185185185],[-0.03854166666666667,0.5185185185185185],[-0.03854166666666667,0.5185185185185185],[-0.03854166666666667,0.5185185185185185],[-0.03854166666666667,0.5185185185185185]]","[[-0.08979166666666671,0.11166666666666658],[-0.08989583333333329,0.12407407407407407],[-0.08989583333333329,0.12407407407407407],[-0.04802083333333336,0.14574074074074084],[-0.04802083333333336,0.14574074074074084],[-0.017083333333333308,0.20833333333333334],[-0.017083333333333308,0.20833333333333334],[0.003333333333333381,0.25259259259259254],[0.003333333333333381,0.25259259259259254],[0.003333333333333381,0.25259259259259254],[0.003333333333333381,0.25259259259259254],[0.0007291666666667141,0.290925925925926],[0.0007291666666667141,0.290925925925926],[0.0003124999999999526,0.2898148148148148],[0.0003124999999999526,0.2898148148148148],[0.015416666666666618,0.3103703703703704],[0.015416666666666618,0.3103703703703704],[-0.012395833333333309,0.3199999999999999],[-0.012395833333333309,0.3199999999999999],[0.002291666666666714,0.2838888888888888],[0.002291666666666714,0.2838888888888888],[-0.04135416666666671,0.230925925925926],[-0.04135416666666671,0.230925925925926],[-0.07572916666666671,0.16203703703703703],[-0.07572916666666671,0.16203703703703703],[-0.14854166666666668,0.19000000000000003],[-0.14854166666666668,0.19000000000000003],[-0.2127083333333334,0.16203703703703703],[-0.2127083333333334,0.16203703703703703],[-0.2525,0.1227777777777777],[-0.2525,0.1227777777777777],[-0.2671875,0.05925925925925926],[-0.2671875,0.05925925925925926],[-0.32145833333333335,0.038703703703703664],[-0.32145833333333335,0.038703703703703664],[-0.3670833333333333,0.006481481481481481],[-0.3670833333333333,0.006481481481481481],[-0.3686458333333333,-0.01777777777777782],[-0.3686458333333333,-0.01777777777777782],[-0.36479166666666674,-0.04888888888888885],[-0.36479166666666674,-0.04888888888888885],[-0.3267708333333334,-0.05055555555555547],[-0.3267708333333334,-0.05055555555555547],[-0.26104166666666667,0.0007407407407406986],[-0.26104166666666667,0.0007407407407406986],[-0.2560416666666666,-0.03314814814814811],[-0.2560416666666666,-0.03314814814814811],[-0.2672916666666667,-0.0742592592592593],[-0.2672916666666667,-0.0742592592592593],[-0.271875,-0.07314814814814814],[-0.271875,-0.07314814814814814],[-0.27843749999999995,-0.026851851851851852],[-0.27843749999999995,-0.026851851851851852],[-0.21218750000000006,-0.0242592592592593],[-0.21218750000000006,-0.0242592592592593],[-0.1710416666666667,0.0035185185185184764],[-0.1710416666666667,0.0035185185185184764],[-0.1765625,0.03425925925925926],[-0.1765625,0.03425925925925926],[-0.16124999999999995,0.03981481481481482],[-0.16124999999999995,0.03981481481481482],[-0.1421875,0.07981481481481485],[-0.1421875,0.07981481481481485],[-0.19979166666666662,0.06537037037037029],[-0.19979166666666662,0.06537037037037029],[-0.20968749999999994,0.10407407407407415],[-0.20968749999999994,0.10407407407407415],[-0.17708333333333334,0.15907407407407403],[-0.17708333333333334,0.15907407407407403],[-0.1538541666666667,0.18314814814814812],[-0.1538541666666667,0.18314814814814812],[-0.12906249999999997,0.1477777777777777],[-0.12906249999999997,0.1477777777777777],[-0.16312500000000002,0.1418518518518519],[-0.16312500000000002,0.1418518518518519],[-0.17916666666666667,0.11518518518518527],[-0.17916666666666667,0.11518518518518527],[-0.15552083333333327,0.048333333333333374],[-0.15552083333333327,0.048333333333333374],[-0.14677083333333332,0.04814814814814815],[-0.14677083333333332,0.04814814814814815],[-0.12927083333333336,0.02388888888888885],[-0.12927083333333336,0.02388888888888885],[-0.08552083333333335,0.08814814814814818],[-0.08552083333333335,0.08814814814814818],[-0.01072916666666662,0.05944444444444449],[-0.01072916666666662,0.05944444444444449],[0.012083333333333357,0.05648148148148148],[0.02635416666666662,0.04203703703703712],[0.02635416666666662,0.04203703703703712],[0.029062499999999977,0.0838888888888888],[0.029062499999999977,0.0838888888888888],[0.05489583333333338,0.10333333333333325],[0.05489583333333338,0.10333333333333325],[0.04593750000000003,0.15851851851851856],[0.04593750000000003,0.15851851851851856],[0.027708333333333356,0.22388888888888886],[0.027708333333333356,0.22388888888888886],[-0.01083333333333331,0.25833333333333336],[-0.013333333333333286,0.29814814814814816],[-0.008541666666666715,0.25833333333333336],[-0.0018749999999999527,0.25388888888888894],[0.03145833333333338,0.22444444444444453],[0.06843750000000005,0.21222222222222226],[0.06843750000000005,0.21222222222222226],[0.09197916666666663,0.19611111111111107],[0.07354166666666657,0.19888888888888884],[0.07354166666666657,0.19888888888888884],[0.11333333333333329,0.1418518518518519],[0.1375,0.15240740740740732],[0.1759375000000001,0.1624074074074075],[0.18864583333333323,0.12907407407407415],[0.20906250000000004,0.11814814814814806],[0.2068749999999999,0.1227777777777777],[0.18802083333333333,0.13777777777777775],[0.17385416666666675,0.1537037037037037],[0.19197916666666662,0.12407407407407407],[0.24010416666666667,0.0962962962962963],[0.23489583333333333,0.09722222222222222],[0.24229166666666657,0.04000000000000004],[0.23937499999999995,-0.03259259259259263],[0.22947916666666662,-0.06166666666666669],[0.22239583333333332,-0.1037037037037037],[0.21531250000000005,-0.14574074074074073],[0.21708333333333343,-0.17],[0.20416666666666666,-0.20981481481481484],[0.15729166666666666,-0.18833333333333332],[0.11041666666666666,-0.1668518518518519],[0.09083333333333338,-0.15703703703703706],[0.10843749999999991,-0.13037037037037033],[0.1209374999999999,-0.14944444444444444],[0.09187500000000005,-0.12537037037037035],[0.060000000000000026,-0.0883333333333333],[0.06395833333333331,-0.06574074074074074],[0.05947916666666669,-0.07388888888888885],[0.07177083333333342,-0.06611111111111109],[0.08770833333333337,-0.09203703703703701],[0.10364583333333334,-0.11796296296296294],[0.11302083333333333,-0.13962962962962958],[0.058541666666666714,-0.1609259259259259],[0.035625000000000046,-0.12740740740740744],[0.035625000000000046,-0.12740740740740744],[0.057291666666666664,-0.12462962962962965],[0.06625000000000002,-0.09648148148148153],[0.06979166666666667,-0.09518518518518514],[0.09864583333333338,-0.10240740740740743],[0.1068749999999999,-0.11277777777777774],[0.10145833333333343,-0.0948148148148148],[0.10927083333333343,-0.122037037037037],[0.10052083333333334,-0.12851851851851848],[0.1212500000000001,-0.15777777777777777],[0.11947916666666672,-0.1594444444444445],[0.12229166666666676,-0.1742592592592593],[0.14197916666666663,-0.21129629629629634],[0.13125,-0.20703703703703705],[0.11145833333333334,-0.19166666666666668],[0.10510416666666676,-0.19425925925925921],[0.1196875000000001,-0.24222222222222226],[0.12104166666666671,-0.24500000000000002],[0.12072916666666676,-0.2388888888888889],[0.11760416666666676,-0.22722222222222221],[0.12385416666666677,-0.25203703703703706],[0.12833333333333338,-0.2175925925925926],[0.12864583333333332,-0.18629629629629635],[0.1319791666666667,-0.20203703703703707],[0.12666666666666657,-0.1911111111111111],[0.16749999999999995,-0.19037037037037038],[0.20052083333333334,-0.19703703703703698],[0.19072916666666656,-0.15407407407407406],[0.19583333333333333,-0.13648148148148145],[0.19583333333333333,-0.13648148148148145],[0.20166666666666658,-0.08537037037037042],[0.2037499999999999,-0.02388888888888885],[0.2,-0.02092592592592584],[0.20187499999999994,-0.007592592592592635],[0.2007291666666667,0.05277777777777778],[0.19260416666666677,0.0588888888888888],[0.12770833333333323,0.08666666666666659],[0.06333333333333328,0.1388888888888889],[0.04479166666666667,0.14962962962962956],[0.028958333333333287,0.16574074074074074],[-0.014583333333333334,0.16351851851851842],[-0.059583333333333384,0.16129629629629633],[-0.051145833333333356,0.11203703703703703],[-0.08385416666666666,0.12018518518518514],[-0.08104166666666662,0.06055555555555564],[-0.08395833333333336,0.03740740740740749],[-0.07583333333333328,0.022592592592592678],[-0.07583333333333328,0.022592592592592678],[-0.08937499999999995,0.03333333333333333],[-0.10656249999999995,0.014259259259259343],[-0.12374999999999996,-0.004814814814814857],[-0.11916666666666664,-0.009814814814814731],[-0.11458333333333333,-0.014814814814814815],[-0.14812500000000003,0.002407407407407323],[-0.14614583333333328,-0.04814814814814815],[-0.15791666666666668,-0.05648148148148148],[-0.14833333333333332,-0.07370370370370373],[-0.14614583333333328,-0.06166666666666669],[-0.12229166666666665,-0.07518518518518523],[-0.09812500000000005,-0.024814814814814772],[-0.0751041666666667,-0.006481481481481481],[-0.046875,-0.017407407407407365],[-0.005624999999999976,-0.038703703703703664],[0.024374999999999977,-0.041111111111111195],[0.05406249999999998,-0.03814814814814819],[0.05406249999999998,-0.03814814814814819],[0.05447916666666662,-0.018333333333333292],[0.05447916666666662,-0.018333333333333292],[0.07583333333333328,0.008333333333333333],[0.07583333333333328,0.008333333333333333],[0.09187500000000005,0.025370370370370456],[0.09187500000000005,0.025370370370370456],[0.07906250000000009,0.06444444444444436],[0.07906250000000009,0.06444444444444436],[0.09468750000000009,0.0012962962962963806],[0.09468750000000009,0.0012962962962963806],[0.11218750000000005,0.008333333333333333],[0.11218750000000005,0.008333333333333333],[0.10364583333333334,0.0338888888888888],[0.10364583333333334,0.0338888888888888],[0.10145833333333343,0.057777777777777865],[0.10145833333333343,0.057777777777777865],[0.1140625,0.10666666666666672],[0.1140625,0.10666666666666672],[0.10520833333333333,0.15018518518518523],[0.10520833333333333,0.15018518518518523],[0.08677083333333328,0.19037037037037027],[0.05531250000000002,0.22074074074074082],[0.040625,0.23537037037037042],[0.06531250000000005,0.20111111111111116],[0.06531250000000005,0.227962962962963],[0.06458333333333334,0.21666666666666667],[0.08989583333333329,0.1868518518518518],[0.08864583333333324,0.1766666666666666],[0.06583333333333338,0.15999999999999995],[0.06531250000000005,0.12148148148148152],[0.08927083333333338,0.09685185185185177],[0.10072916666666672,0.08574074074074066],[0.11749999999999995,0.029259259259259176],[0.13010416666666677,0.04129629629629621],[0.13927083333333337,0.05222222222222231],[0.16479166666666673,0.03981481481481482],[0.19031250000000005,0.027407407407407325],[0.20906250000000004,0.003888888888888931],[0.23052083333333329,-0.03222222222222218],[0.2397916666666667,-0.04685185185185177],[0.24166666666666667,-0.06333333333333331],[0.26114583333333335,-0.050370370370370454],[0.23635416666666675,-0.03925925925925934],[0.20947916666666658,-0.06777777777777783],[0.18260416666666662,-0.0962962962962963],[0.13093750000000004,-0.1],[0.11104166666666657,-0.09388888888888887],[0.10510416666666676,-0.08425925925925926],[0.11020833333333328,-0.03777777777777774],[0.1306250000000001,0.007592592592592635],[0.14739583333333334,0.0544444444444444],[0.1408333333333334,0.062407407407407495],[0.16572916666666657,0.09722222222222222],[0.17260416666666673,0.12814814814814823],[0.1794791666666666,0.15907407407407403],[0.22135416666666666,0.11648148148148144],[0.22916666666666666,0.06277777777777774],[0.21135416666666676,0.06425925925925935],[0.18250000000000005,0.028888888888888933],[0.13666666666666671,0.014814814814814815],[0.08520833333333329,0.03981481481481482],[0.05593750000000005,0.007777777777777862],[0.030104166666666644,-0.007777777777777862],[0.016145833333333335,-0.025185185185185227],[0.01260416666666669,-0.052037037037037076],[-0.017499999999999953,-0.006851851851851936],[-0.051874999999999956,0.06925925925925921],[-0.06156250000000003,0.06740740740740736],[-0.05770833333333331,0.054259259259259174],[-0.036562500000000026,0.011296296296296339],[-0.02041666666666669,-0.044444444444444446],[-0.019166666666666644,-0.056851851851851834],[0.016979166666666618,-0.04537037037037037],[0.06322916666666671,-0.06592592592592597],[0.07000000000000005,-0.09000000000000004],[0.0890625,-0.08907407407407411],[0.1146874999999999,-0.11777777777777781],[0.12635416666666663,-0.13907407407407413],[0.14072916666666657,-0.17314814814814813],[0.1404166666666666,-0.1574074074074074],[0.15437500000000004,-0.16944444444444445],[0.15437500000000004,-0.16944444444444445],[0.18177083333333333,-0.15185185185185185],[0.1709374999999999,-0.2175925925925926],[0.15187499999999995,-0.24759259259259256],[0.17114583333333327,-0.26481481481481484],[0.16791666666666671,-0.36277777777777775],[0.15499999999999994,-0.43203703703703705],[0.14541666666666658,-0.43129629629629623],[0.11958333333333329,-0.4064814814814815],[0.10458333333333343,-0.4666666666666667],[0.10541666666666671,-0.5037037037037037],[0.10083333333333329,-0.5683333333333332],[0.08718750000000004,-0.5485185185185185],[0.08291666666666657,-0.5109259259259259],[0.05375000000000003,-0.490925925925926],[0.07604166666666666,-0.4281481481481481],[0.10802083333333339,-0.3940740740740741],[0.1515625,-0.41462962962962957],[0.1384375000000001,-0.3881481481481482],[0.11833333333333323,-0.31055555555555553],[0.10322916666666657,-0.2638888888888889],[0.09302083333333329,-0.2577777777777778],[0.08739583333333342,-0.2735185185185185],[0.06312500000000003,-0.2777777777777778],[0.07427083333333329,-0.3020370370370371],[0.035520833333333356,-0.31203703703703706],[-0.01885416666666669,-0.3146296296296296],[-0.07385416666666664,-0.30999999999999994],[-0.05406249999999998,-0.35999999999999993],[-0.027395833333333286,-0.415925925925926],[-0.004791666666666691,-0.48277777777777775],[0.00791666666666669,-0.49851851851851847],[0.009791666666666643,-0.4957407407407407],[0.01572916666666669,-0.5216666666666666],[0.0018749999999999527,-0.5098148148148148],[-0.004166666666666667,-0.5266666666666666],[0.005416666666666714,-0.5509259259259259],[0.011354166666666643,-0.5662962962962963],[0.011354166666666643,-0.5662962962962963],[0.004375000000000047,-0.5744444444444444],[0.01260416666666669,-0.595925925925926],[0.004062499999999977,-0.5987037037037037],[-0.01583333333333338,-0.6257407407407407],[-0.017083333333333308,-0.6744444444444444],[-0.02687499999999995,-0.6951851851851851],[-0.036666666666666715,-0.715925925925926],[-0.03427083333333331,-0.6798148148148149],[-0.03343750000000002,-0.6272222222222222],[-0.02822916666666669,-0.5803703703703703],[0.011979166666666667,-0.532962962962963],[0.011979166666666667,-0.532962962962963],[-0.021249999999999977,-0.5053703703703704],[0.002708333333333357,-0.544074074074074],[0.03802083333333333,-0.5585185185185185],[0.03802083333333333,-0.5585185185185185],[0.016770833333333356,-0.4938888888888889],[0.016770833333333356,-0.4938888888888889],[0.020937500000000022,-0.509074074074074],[0.020937500000000022,-0.509074074074074],[0.02010416666666662,-0.46277777777777773],[0.030208333333333334,-0.5244444444444444],[0.030208333333333334,-0.5244444444444444],[0.03989583333333328,-0.55],[0.028437499999999952,-0.562037037037037],[-0.02322916666666662,-0.5742592592592592],[0.00302083333333331,-0.5985185185185184],[-0.05,-0.5370370370370371],[-0.10302083333333331,-0.47555555555555556],[-0.07395833333333333,-0.47481481481481475],[-0.058437500000000024,-0.4487037037037037],[-0.03947916666666664,-0.4946296296296297],[-0.05666666666666664,-0.4564814814814815],[-0.06812499999999998,-0.477962962962963],[-0.058541666666666714,-0.5233333333333334],[-0.04645833333333336,-0.5657407407407408],[-0.05406249999999998,-0.562962962962963],[-0.03083333333333336,-0.5781481481481481],[-0.007604166666666619,-0.5933333333333333],[-0.024479166666666666,-0.6114814814814815],[-0.03947916666666664,-0.6037037037037037],[-0.040625,-0.595],[-0.035520833333333356,-0.5848148148148148],[-0.03166666666666664,-0.5661111111111111],[-0.00625,-0.5501851851851852],[-0.008333333333333333,-0.5338888888888889],[-0.0016666666666666904,-0.528888888888889],[-0.0037500000000000237,-0.5253703703703704],[-0.003125,-0.5394444444444445],[0.008437500000000023,-0.5487037037037037],[0.02000000000000005,-0.557962962962963],[0.024270833333333287,-0.5862962962962963],[0.04520833333333331,-0.6164814814814814],[0.04541666666666669,-0.6255555555555555],[0.024062500000000025,-0.6318518518518518],[0.042916666666666714,-0.6744444444444444],[0.05302083333333331,-0.7057407407407408],[0.03770833333333338,-0.6844444444444445],[0.019687499999999976,-0.6455555555555555],[0.025625000000000023,-0.6081481481481481],[0.03156249999999995,-0.5707407407407408],[0.016250000000000025,-0.509074074074074],[-0.008124999999999953,-0.45259259259259255],[0.010104166666666714,-0.4096296296296296],[0.02833333333333338,-0.36666666666666664],[0.02833333333333338,-0.36666666666666664],[0.0234375,-0.3440740740740741],[0.01270833333333338,-0.27444444444444444],[0.025416666666666643,-0.26370370370370366],[0.041770833333333354,-0.2785185185185185],[0.02677083333333338,-0.2911111111111111],[0.011979166666666667,-0.30777777777777776],[0.03114583333333331,-0.35407407407407404],[0.05427083333333336,-0.40907407407407403],[0.05802083333333338,-0.4698148148148148],[0.03760416666666669,-0.49851851851851847],[0.025937499999999978,-0.482962962962963],[0.025937499999999978,-0.482962962962963],[0.03447916666666669,-0.4918518518518519],[0.03447916666666669,-0.4918518518518519],[0.03145833333333338,-0.5248148148148147],[0.03583333333333331,-0.5255555555555556],[0.04874999999999995,-0.5422222222222223],[0.04458333333333329,-0.5774074074074075],[0.022708333333333285,-0.5785185185185184]]","[[-0.08979166666666671,0.11166666666666658,0.00020000000297670795],[-0.08989583333333329,0.12407407407407407,0.0344000000022362],[-0.08989583333333329,0.12407407407407407,0.04360000000149],[-0.04802083333333336,0.14574074074074084,0.06790000000223273],[-0.04802083333333336,0.14574074074074084,0.07490000000223773],[-0.017083333333333308,0.20833333333333334,0.10110000000148744],[-0.017083333333333308,0.20833333333333334,0.10949999999999704],[0.003333333333333381,0.25259259259259254,0.13480000000074455],[0.003333333333333381,0.25259259259259254,0.14350000000000307],[0.003333333333333381,0.25259259259259254,0.14870000000298234],[0.003333333333333381,0.25259259259259254,0.1664999999999992],[0.0007291666666667141,0.290925925925926,0.20199999999999818],[0.0007291666666667141,0.290925925925926,0.2092000000029799],[0.0003124999999999526,0.2898148148148148,0.2346000000014925],[0.0003124999999999526,0.2898148148148148,0.24420000000297648],[0.015416666666666618,0.3103703703703704,0.26890000000223324],[0.015416666666666618,0.3103703703703704,0.2757000000029777],[-0.012395833333333309,0.3199999999999999,0.3016000000014927],[-0.012395833333333309,0.3199999999999999,0.30830000000074165],[0.002291666666666714,0.2838888888888888,0.33800000000000097],[0.002291666666666714,0.2838888888888888,0.34540000000223614],[-0.04135416666666671,0.230925925925926,0.3683000000007439],[-0.04135416666666671,0.230925925925926,0.3758000000007442],[-0.07572916666666671,0.16203703703703703,0.4029000000022336],[-0.07572916666666671,0.16203703703703703,0.4111000000014897],[-0.14854166666666668,0.19000000000000003,0.43490000000223716],[-0.14854166666666668,0.19000000000000003,0.445200000002977],[-0.2127083333333334,0.16203703703703703,0.46990000000223375],[-0.2127083333333334,0.16203703703703703,0.47910000000148756],[-0.2525,0.1227777777777777,0.5015000000000001],[-0.2525,0.1227777777777777,0.5082000000029794],[-0.2671875,0.05925925925925926,0.5379999999999967],[-0.2671875,0.05925925925925926,0.547300000000746],[-0.32145833333333335,0.038703703703703664,0.5684000000022351],[-0.32145833333333335,0.038703703703703664,0.5754999999999981],[-0.3670833333333333,0.006481481481481481,0.6036000000014923],[-0.3670833333333333,0.006481481481481481,0.6108000000007436],[-0.3686458333333333,-0.01777777777777782,0.6347000000029794],[-0.3686458333333333,-0.01777777777777782,0.6445000000000007],[-0.36479166666666674,-0.04888888888888885,0.6704000000022319],[-0.36479166666666674,-0.04888888888888885,0.6777000000029787],[-0.3267708333333334,-0.05055555555555547,0.7016000000014913],[-0.3267708333333334,-0.05055555555555547,0.7082000000029822],[-0.26104166666666667,0.0007407407407406986,0.7394999999999996],[-0.26104166666666667,0.0007407407407406986,0.7473000000007417],[-0.2560416666666666,-0.03314814814814811,0.7678000000007472],[-0.2560416666666666,-0.03314814814814811,0.7744999999999962],[-0.2672916666666667,-0.0742592592592593,0.8016000000014927],[-0.2672916666666667,-0.0742592592592593,0.8094000000022348],[-0.271875,-0.07314814814814814,0.8348000000007474],[-0.271875,-0.07314814814814814,0.8446000000014919],[-0.27843749999999995,-0.026851851851851852,0.8662000000029764],[-0.27843749999999995,-0.026851851851851852,0.8736000000014883],[-0.21218750000000006,-0.0242592592592593,0.9012000000029801],[-0.21218750000000006,-0.0242592592592593,0.9081000000014896],[-0.1710416666666667,0.0035185185185184764,0.9348000000007417],[-0.1710416666666667,0.0035185185185184764,0.9476000000014864],[-0.1765625,0.03425925925925926,0.9679999999999964],[-0.1765625,0.03425925925925926,0.9747000000029828],[-0.16124999999999995,0.03981481481481482,1.0012000000029815],[-0.16124999999999995,0.03981481481481482,1.0079000000022376],[-0.1421875,0.07981481481481485,1.035100000001492],[-0.1421875,0.07981481481481485,1.046999999999997],[-0.19979166666666662,0.06537037037037029,1.0679000000022327],[-0.19979166666666662,0.06537037037037029,1.0746000000014888],[-0.20968749999999994,0.10407407407407415,1.1038000000007457],[-0.20968749999999994,0.10407407407407415,1.1103000000007412],[-0.17708333333333334,0.15907407407407403,1.1352000000029818],[-0.17708333333333334,0.15907407407407403,1.144900000002238],[-0.1538541666666667,0.18314814814814812,1.17010000000149],[-0.1538541666666667,0.18314814814814812,1.1774000000022369],[-0.12906249999999997,0.1477777777777777,1.2016000000014913],[-0.12906249999999997,0.1477777777777777,1.2088000000007426],[-0.16312500000000002,0.1418518518518519,1.2434000000022323],[-0.16312500000000002,0.1418518518518519,1.2512000000029815],[-0.17916666666666667,0.11518518518518527,1.2653000000007424],[-0.17916666666666667,0.11518518518518527,1.282100000001492],[-0.15552083333333327,0.048333333333333374,1.3024000000022369],[-0.15552083333333327,0.048333333333333374,1.315400000002235],[-0.14677083333333332,0.04814814814814815,1.3322000000029774],[-0.14677083333333332,0.04814814814814815,1.348700000002978],[-0.12927083333333336,0.02388888888888885,1.3714000000022324],[-0.12927083333333336,0.02388888888888885,1.3838000000007469],[-0.08552083333333335,0.08814814814814818,1.3991000000014893],[-0.08552083333333335,0.08814814814814818,1.4154000000022364],[-0.01072916666666662,0.05944444444444449,1.4376000000014884],[-0.01072916666666662,0.05944444444444449,1.4487000000029795],[0.012083333333333357,0.05648148148148148,1.465600000001487],[0.02635416666666662,0.04203703703703712,1.4869000000022368],[0.02635416666666662,0.04203703703703712,1.4989000000022372],[0.029062499999999977,0.0838888888888888,1.5156000000014913],[0.029062499999999977,0.0838888888888888,1.5322000000029803],[0.05489583333333338,0.10333333333333325,1.553900000002237],[0.05489583333333338,0.10333333333333325,1.5655000000000001],[0.04593750000000003,0.15851851851851856,1.5823000000007426],[0.04593750000000003,0.15851851851851856,1.5989000000022315],[0.027708333333333356,0.22388888888888886,1.6204000000022347],[0.027708333333333356,0.22388888888888886,1.6322000000029817],[-0.01083333333333331,0.25833333333333336,1.6489000000022358],[-0.013333333333333286,0.29814814814814816,1.6655000000000015],[-0.008541666666666715,0.25833333333333336,1.6865000000000023],[-0.0018749999999999527,0.25388888888888894,1.7019999999999982],[0.03145833333333338,0.22444444444444453,1.7183000000007453],[0.06843750000000005,0.21222222222222226,1.737400000002232],[0.06843750000000005,0.21222222222222226,1.7490000000000023],[0.09197916666666663,0.19611111111111107,1.765500000000003],[0.07354166666666657,0.19888888888888884,1.7889000000022364],[0.07354166666666657,0.19888888888888884,1.7989999999999995],[0.11333333333333329,0.1418518518518519,1.815400000002235],[0.1375,0.15240740740740732,1.8320000000000007],[0.1759375000000001,0.1624074074074075,1.849800000000748],[0.18864583333333323,0.12907407407407415,1.8654000000022322],[0.20906250000000004,0.11814814814814806,1.881999999999998],[0.2068749999999999,0.1227777777777777,1.8986000000014869],[0.18802083333333333,0.13777777777777775,1.9157000000029782],[0.17385416666666675,0.1537037037037037,1.9321000000014905],[0.19197916666666662,0.12407407407407407,1.951900000002233],[0.24010416666666667,0.0962962962962963,1.9654999999999987],[0.23489583333333333,0.09722222222222222,1.9819999999999993],[0.24229166666666657,0.04000000000000004,1.9990000000000023],[0.23937499999999995,-0.03259259259259263,2.0153000000007424],[0.22947916666666662,-0.06166666666666669,2.032100000001492],[0.22239583333333332,-0.1037037037037037,2.0511000000014903],[0.21531250000000005,-0.14574074074074073,2.0663000000007443],[0.21708333333333343,-0.17,2.0820000000000007],[0.20416666666666666,-0.20981481481481484,2.098700000002978],[0.15729166666666666,-0.18833333333333332,2.1163000000007415],[0.11041666666666666,-0.1668518518518519,2.131900000002233],[0.09083333333333338,-0.15703703703703706,2.1517000000029824],[0.10843749999999991,-0.13037037037037033,2.168300000000741],[0.1209374999999999,-0.14944444444444444,2.1824999999999974],[0.09187500000000005,-0.12537037037037035,2.1998000000007423],[0.060000000000000026,-0.0883333333333333,2.216600000001492],[0.06395833333333331,-0.06574074074074074,2.2364000000022344],[0.05947916666666669,-0.07388888888888885,2.2523000000007443],[0.07177083333333342,-0.06611111111111109,2.2676000000014866],[0.08770833333333337,-0.09203703703703701,2.282100000001492],[0.10364583333333334,-0.11796296296296294,2.301499999999997],[0.11302083333333333,-0.13962962962962958,2.316600000001486],[0.058541666666666714,-0.1609259259259259,2.3323000000007426],[0.035625000000000046,-0.12740740740740744,2.352400000002234],[0.035625000000000046,-0.12740740740740744,2.3654999999999973],[0.057291666666666664,-0.12462962962962965,2.3822000000029817],[0.06625000000000002,-0.09648148148148153,2.4014999999999986],[0.06979166666666667,-0.09518518518518514,2.417800000000746],[0.09864583333333338,-0.10240740740740743,2.432000000000002],[0.1068749999999999,-0.11277777777777774,2.4533000000007448],[0.10145833333333343,-0.0948148148148148,2.4697000000029803],[0.10927083333333343,-0.122037037037037,2.484800000000746],[0.10052083333333334,-0.12851851851851848,2.4990000000000023],[0.1212500000000001,-0.15777777777777777,2.5153000000007424],[0.11947916666666672,-0.1594444444444445,2.536900000002234],[0.12229166666666676,-0.1742592592592593,2.552900000002232],[0.14197916666666663,-0.21129629629629634,2.5675000000000026],[0.13125,-0.20703703703703705,2.58270000000298],[0.11145833333333334,-0.19166666666666668,2.598700000002978],[0.10510416666666676,-0.19425925925925921,2.618300000000744],[0.1196875000000001,-0.24222222222222226,2.631999999999998],[0.12104166666666671,-0.24500000000000002,2.649000000000001],[0.12072916666666676,-0.2388888888888889,2.665300000000748],[0.11760416666666676,-0.22722222222222221,2.682000000000002],[0.12385416666666677,-0.25203703703703706,2.701500000000003],[0.12833333333333338,-0.2175925925925926,2.71670000000298],[0.12864583333333332,-0.18629629629629635,2.732200000002983],[0.1319791666666667,-0.20203703703703707,2.7524000000022326],[0.12666666666666657,-0.1911111111111111,2.767400000002233],[0.16749999999999995,-0.19037037037037038,2.7853000000007455],[0.20052083333333334,-0.19703703703703698,2.8019999999999996],[0.19072916666666656,-0.15407407407407406,2.8183000000007468],[0.19583333333333333,-0.13648148148148145,2.835400000002238],[0.19583333333333333,-0.13648148148148145,2.8562000000029784],[0.20166666666666658,-0.08537037037037042,2.8703000000007464],[0.2037499999999999,-0.02388888888888885,2.8866000000014864],[0.2,-0.02092592592592584,2.9014999999999986],[0.20187499999999994,-0.007592592592592635,2.9154000000022364],[0.2007291666666667,0.05277777777777778,2.9321000000014905],[0.19260416666666677,0.0588888888888888,2.9525000000000006],[0.12770833333333323,0.08666666666666659,2.967100000001487],[0.06333333333333328,0.1388888888888889,2.981900000002234],[0.04479166666666667,0.14962962962962956,2.9987000000029767],[0.028958333333333287,0.16574074074074074,3.0153000000007424],[-0.014583333333333334,0.16351851851851842,3.0319999999999965],[-0.059583333333333384,0.16129629629629633,3.049500000000002],[-0.051145833333333356,0.11203703703703703,3.065700000002977],[-0.08385416666666666,0.12018518518518514,3.0820000000000007],[-0.08104166666666662,0.06055555555555564,3.102499999999999],[-0.08395833333333336,0.03740740740740749,3.117900000002237],[-0.07583333333333328,0.022592592592592678,3.1321000000014863],[-0.07583333333333328,0.022592592592592678,3.1487000000029823],[-0.08937499999999995,0.03333333333333333,3.1654000000022364],[-0.10656249999999995,0.014259259259259343,3.182000000000002],[-0.12374999999999996,-0.004814814814814857,3.198600000001491],[-0.11916666666666664,-0.009814814814814731,3.2154000000022336],[-0.11458333333333333,-0.014814814814814815,3.2319999999999993],[-0.14812500000000003,0.002407407407407323,3.249200000002979],[-0.14614583333333328,-0.04814814814814815,3.2653000000007424],[-0.15791666666666668,-0.05648148148148148,3.2819999999999965],[-0.14833333333333332,-0.07370370370370373,3.298700000002981],[-0.14614583333333328,-0.06166666666666669,3.315400000002235],[-0.12229166666666665,-0.07518518518518523,3.333900000002238],[-0.09812500000000005,-0.024814814814814772,3.349700000002983],[-0.0751041666666667,-0.006481481481481481,3.3673000000007463],[-0.046875,-0.017407407407407365,3.381900000002233],[-0.005624999999999976,-0.038703703703703664,3.398600000001487],[0.024374999999999977,-0.041111111111111195,3.4154000000022364],[0.05406249999999998,-0.03814814814814819,3.432000000000002],[0.05406249999999998,-0.03814814814814819,3.4487000000029795],[0.05447916666666662,-0.018333333333333292,3.4653000000007452],[0.05447916666666662,-0.018333333333333292,3.4819999999999993],[0.07583333333333328,0.008333333333333333,3.4986000000014883],[0.07583333333333328,0.008333333333333333,3.5153000000007424],[0.09187500000000005,0.025370370370370456,3.5319999999999965],[0.09187500000000005,0.025370370370370456,3.5538000000007415],[0.07906250000000009,0.06444444444444436,3.565400000002235],[0.07906250000000009,0.06444444444444436,3.5820000000000007],[0.09468750000000009,0.0012962962962963806,3.598700000002978],[0.09468750000000009,0.0012962962962963806,3.615400000002232],[0.11218750000000005,0.008333333333333333,3.631999999999998],[0.11218750000000005,0.008333333333333333,3.6487000000029823],[0.10364583333333334,0.0338888888888888,3.6655000000000015],[0.10364583333333334,0.0338888888888888,3.682000000000002],[0.10145833333333343,0.057777777777777865,3.6987000000029795],[0.10145833333333343,0.057777777777777865,3.7153000000007452],[0.1140625,0.10666666666666672,3.737499999999997],[0.1140625,0.10666666666666672,3.7487000000029767],[0.10520833333333333,0.15018518518518523,3.765400000002238],[0.10520833333333333,0.15018518518518523,3.7868000000007456],[0.08677083333333328,0.19037037037037027,3.799100000001488],[0.05531250000000002,0.22074074074074082,3.816200000002979],[0.040625,0.23537037037037042,3.8344999999999985],[0.06531250000000005,0.20111111111111116,3.8496000000014874],[0.06531250000000005,0.227962962962963,3.865400000002232],[0.06458333333333334,0.21666666666666667,3.8822000000029817],[0.08989583333333329,0.1868518518518518,3.900800000000743],[0.08864583333333324,0.1766666666666666,3.9159000000022317],[0.06583333333333338,0.15999999999999995,3.932200000002979],[0.06531250000000005,0.12148148148148152,3.951999999999998],[0.08927083333333338,0.09685185185185177,3.9654999999999987],[0.10072916666666672,0.08574074074074066,3.981900000002234],[0.11749999999999995,0.029259259259259176,3.9991000000014907],[0.13010416666666677,0.04129629629629621,4.015400000002238],[0.13927083333333337,0.05222222222222231,4.0319999999999965],[0.16479166666666673,0.03981481481481482,4.05110000000149],[0.19031250000000005,0.027407407407407325,4.065700000002977],[0.20906250000000004,0.003888888888888931,4.082000000000001],[0.23052083333333329,-0.03222222222222218,4.09860000000149],[0.2397916666666667,-0.04685185185185177,4.115300000000744],[0.24166666666666667,-0.06333333333333331,4.131999999999998],[0.26114583333333335,-0.050370370370370454,4.151300000000745],[0.23635416666666675,-0.03925925925925934,4.16560000000149],[0.20947916666666658,-0.06777777777777783,4.182000000000002],[0.18260416666666662,-0.0962962962962963,4.198600000001491],[0.13093750000000004,-0.1,4.215400000002234],[0.11104166666666657,-0.09388888888888887,4.231999999999999],[0.10510416666666676,-0.08425925925925926,4.250400000002237],[0.11020833333333328,-0.03777777777777774,4.265300000000742],[0.1306250000000001,0.007592592592592635,4.2819999999999965],[0.14739583333333334,0.0544444444444444,4.2989999999999995],[0.1408333333333334,0.062407407407407495,4.315300000000747],[0.16572916666666657,0.09722222222222222,4.33420000000298],[0.17260416666666673,0.12814814814814823,4.353499999999997],[0.1794791666666666,0.15907407407407403,4.368000000000002],[0.22135416666666666,0.11648148148148144,4.382100000001486],[0.22916666666666666,0.06277777777777774,4.403600000001489],[0.21135416666666676,0.06425925925925935,4.41860000000149],[0.18250000000000005,0.028888888888888933,4.432400000002232],[0.13666666666666671,0.014814814814814815,4.448800000000745],[0.08520833333333329,0.03981481481481482,4.468100000001492],[0.05593750000000005,0.007777777777777862,4.483400000002234],[0.030104166666666644,-0.007777777777777862,4.498800000000742],[0.016145833333333335,-0.025185185185185227,4.519300000000747],[0.01260416666666669,-0.052037037037037076,4.534700000002978],[-0.017499999999999953,-0.006851851851851936,4.551400000002232],[-0.051874999999999956,0.06925925925925921,4.5689000000022375],[-0.06156250000000003,0.06740740740740736,4.585499999999996],[-0.05770833333333331,0.054259259259259174,4.601400000002236],[-0.036562500000000026,0.011296296296296339,4.61660000000149],[-0.02041666666666669,-0.044444444444444446,4.635100000001486],[-0.019166666666666644,-0.056851851851851834,4.651800000000748],[0.016979166666666618,-0.04537037037037037,4.666100000001492],[0.06322916666666671,-0.06592592592592597,4.685700000002981],[0.07000000000000005,-0.09000000000000004,4.700700000002982],[0.0890625,-0.08907407407407411,4.715400000002234],[0.1146874999999999,-0.11777777777777781,4.732200000002983],[0.12635416666666663,-0.13907407407407413,4.752400000002233],[0.14072916666666657,-0.17314814814814813,4.767499999999998],[0.1404166666666666,-0.1574074074074074,4.7819999999999965],[0.15437500000000004,-0.16944444444444445,4.801000000000002],[0.15437500000000004,-0.16944444444444445,4.815400000002235],[0.18177083333333333,-0.15185185185185185,4.832000000000001],[0.1709374999999999,-0.2175925925925926,4.849300000000746],[0.15187499999999995,-0.24759259259259256,4.8681000000014905],[0.17114583333333327,-0.26481481481481484,4.882100000001486],[0.16791666666666671,-0.36277777777777775,4.8988000000007474],[0.15499999999999994,-0.43203703703703705,4.919100000001492],[0.14541666666666658,-0.43129629629629623,4.9354000000022324],[0.11958333333333329,-0.4064814814814815,4.9524000000022355],[0.10458333333333343,-0.4666666666666667,4.968400000002234],[0.10541666666666671,-0.5037037037037037,4.982500000000002],[0.10083333333333329,-0.5683333333333332,4.998700000002977],[0.08718750000000004,-0.5485185185185185,5.015600000001491],[0.08291666666666657,-0.5109259259259259,5.036499999999997],[0.05375000000000003,-0.490925925925926,5.052400000002237],[0.07604166666666666,-0.4281481481481481,5.067800000000744],[0.10802083333333339,-0.3940740740740741,5.082800000000745],[0.1515625,-0.41462962962962957,5.1015000000000015],[0.1384375000000001,-0.3881481481481482,5.115700000002981],[0.11833333333333323,-0.31055555555555553,5.132900000002238],[0.10322916666666657,-0.2638888888888889,5.151800000000748],[0.09302083333333329,-0.2577777777777778,5.166200000002981],[0.08739583333333342,-0.2735185185185185,5.1821000000014905],[0.06312500000000003,-0.2777777777777778,5.198800000000745],[0.07427083333333329,-0.3020370370370371,5.219000000000001],[0.035520833333333356,-0.31203703703703706,5.2328000000007435],[-0.01885416666666669,-0.3146296296296296,5.2527000000029815],[-0.07385416666666664,-0.30999999999999994,5.268100000001489],[-0.05406249999999998,-0.35999999999999993,5.282499999999999],[-0.027395833333333286,-0.415925925925926,5.299400000002237],[-0.004791666666666691,-0.48277777777777775,5.3155],[0.00791666666666669,-0.49851851851851847,5.331900000002236],[0.009791666666666643,-0.4957407407407407,5.352900000002236],[0.01572916666666669,-0.5216666666666666,5.366],[0.0018749999999999527,-0.5098148148148148,5.381999999999998],[-0.004166666666666667,-0.5266666666666666,5.398600000001487],[0.005416666666666714,-0.5509259259259259,5.415400000002236],[0.011354166666666643,-0.5662962962962963,5.436600000001491],[0.011354166666666643,-0.5662962962962963,5.449400000002235],[0.004375000000000047,-0.5744444444444444,5.465600000001487],[0.01260416666666669,-0.595925925925926,5.482200000002983],[0.004062499999999977,-0.5987037037037037,5.501700000002977],[-0.01583333333333338,-0.6257407407407407,5.516100000001487],[-0.017083333333333308,-0.6744444444444444,5.532100000001492],[-0.02687499999999995,-0.6951851851851851,5.548800000000746],[-0.036666666666666715,-0.715925925925926,5.568200000002982],[-0.03427083333333331,-0.6798148148148149,5.5822000000029774],[-0.03343750000000002,-0.6272222222222222,5.59860000000149],[-0.02822916666666669,-0.5803703703703703,5.615300000000744],[0.011979166666666667,-0.532962962962963,5.642900000002236],[0.011979166666666667,-0.532962962962963,5.650400000002236],[-0.021249999999999977,-0.5053703703703704,5.6655000000000015],[0.002708333333333357,-0.544074074074074,5.683100000001488],[0.03802083333333333,-0.5585185185185185,5.705500000000001],[0.03802083333333333,-0.5585185185185185,5.715400000002234],[0.016770833333333356,-0.4938888888888889,5.732100000001488],[0.016770833333333356,-0.4938888888888889,5.749000000000002],[0.020937500000000022,-0.509074074074074,5.770400000002233],[0.020937500000000022,-0.509074074074074,5.7819999999999965],[0.02010416666666662,-0.46277777777777773,5.7989999999999995],[0.030208333333333334,-0.5244444444444444,5.820700000002979],[0.030208333333333334,-0.5244444444444444,5.832000000000001],[0.03989583333333328,-0.55,5.848700000002978],[0.028437499999999952,-0.562037037037037,5.865300000000744],[-0.02322916666666662,-0.5742592592592592,5.881900000002233],[0.00302083333333331,-0.5985185185185184,5.898600000001487],[-0.05,-0.5370370370370371,5.915200000002983],[-0.10302083333333331,-0.47555555555555556,5.931900000002237],[-0.07395833333333333,-0.47481481481481475,5.953800000000747],[-0.058437500000000024,-0.4487037037037037,5.96820000000298],[-0.03947916666666664,-0.4946296296296297,5.982400000002237],[-0.05666666666666664,-0.4564814814814815,5.998700000002977],[-0.06812499999999998,-0.477962962962963,6.015400000002238],[-0.058541666666666714,-0.5233333333333334,6.0319999999999965],[-0.04645833333333336,-0.5657407407407408,6.05110000000149],[-0.05406249999999998,-0.562962962962963,6.065300000000747],[-0.03083333333333336,-0.5781481481481481,6.0826000000014915],[-0.007604166666666619,-0.5933333333333333,6.09860000000149],[-0.024479166666666666,-0.6114814814814815,6.115300000000744],[-0.03947916666666664,-0.6037037037037037,6.131999999999998],[-0.040625,-0.595,6.152300000000743],[-0.035520833333333356,-0.5848148148148148,6.165700000002978],[-0.03166666666666664,-0.5661111111111111,6.1858000000007465],[-0.00625,-0.5501851851851852,6.201500000000003],[-0.008333333333333333,-0.5338888888888889,6.215300000000745],[-0.0016666666666666904,-0.528888888888889,6.231999999999999],[-0.0037500000000000237,-0.5253703703703704,6.250500000000002],[-0.003125,-0.5394444444444445,6.265200000002977],[0.008437500000000023,-0.5487037037037037,6.281900000002231],[0.02000000000000005,-0.557962962962963,6.298600000001493],[0.024270833333333287,-0.5862962962962963,6.315300000000747],[0.04520833333333331,-0.6164814814814814,6.331900000002236],[0.04541666666666669,-0.6255555555555555,6.348999999999997],[0.024062500000000025,-0.6318518518518518,6.365200000002979],[0.042916666666666714,-0.6744444444444444,6.382200000002982],[0.05302083333333331,-0.7057407407407408,6.4014000000022335],[0.03770833333333338,-0.6844444444444445,6.415200000002983],[0.019687499999999976,-0.6455555555555555,6.431900000002237],[0.025625000000000023,-0.6081481481481481,6.450900000002235],[0.03156249999999995,-0.5707407407407408,6.465300000000745],[0.016250000000000025,-0.509074074074074,6.481999999999999],[-0.008124999999999953,-0.45259259259259255,6.498700000002977],[0.010104166666666714,-0.4096296296296296,6.515300000000742],[0.02833333333333338,-0.36666666666666664,6.537900000002232],[0.02833333333333338,-0.36666666666666664,6.548900000002234],[0.0234375,-0.3440740740740741,6.565400000002235],[0.01270833333333338,-0.27444444444444444,6.582100000001489],[0.025416666666666643,-0.26370370370370366,6.6015000000000015],[0.041770833333333354,-0.2785185185185185,6.615600000001493],[0.02677083333333338,-0.2911111111111111,6.632100000001486],[0.011979166666666667,-0.30777777777777776,6.648700000002982],[0.03114583333333331,-0.35407407407407404,6.668100000001488],[0.05427083333333336,-0.40907407407407403,6.682300000000744],[0.05802083333333338,-0.4698148148148148,6.698800000000745],[0.03760416666666669,-0.49851851851851847,6.718900000002236],[0.025937499999999978,-0.482962962962963,6.7328000000007435],[0.025937499999999978,-0.482962962962963,6.761600000001486],[0.03447916666666669,-0.4918518518518519,6.778100000001487],[0.03447916666666669,-0.4918518518518519,6.788800000000748],[0.03145833333333338,-0.5248148148148147,6.798700000002981],[0.03583333333333331,-0.5255555555555556,6.815300000000747],[0.04874999999999995,-0.5422222222222223,6.832000000000001],[0.04458333333333329,-0.5774074074074075,6.84860000000149],[0.022708333333333285,-0.5785185185185184,6.865300000000744]]","[0.00020000000297670795,0.0344000000022362,0.04360000000149,0.06790000000223273,0.07490000000223773,0.10110000000148744,0.10949999999999704,0.13480000000074455,0.14350000000000307,0.14870000000298234,0.1664999999999992,0.20199999999999818,0.2092000000029799,0.2346000000014925,0.24420000000297648,0.26890000000223324,0.2757000000029777,0.3016000000014927,0.30830000000074165,0.33800000000000097,0.34540000000223614,0.3683000000007439,0.3758000000007442,0.4029000000022336,0.4111000000014897,0.43490000000223716,0.445200000002977,0.46990000000223375,0.47910000000148756,0.5015000000000001,0.5082000000029794,0.5379999999999967,0.547300000000746,0.5684000000022351,0.5754999999999981,0.6036000000014923,0.6108000000007436,0.6347000000029794,0.6445000000000007,0.6704000000022319,0.6777000000029787,0.7016000000014913,0.7082000000029822,0.7394999999999996,0.7473000000007417,0.7678000000007472,0.7744999999999962,0.8016000000014927,0.8094000000022348,0.8348000000007474,0.8446000000014919,0.8662000000029764,0.8736000000014883,0.9012000000029801,0.9081000000014896,0.9348000000007417,0.9476000000014864,0.9679999999999964,0.9747000000029828,1.0012000000029815,1.0079000000022376,1.035100000001492,1.046999999999997,1.0679000000022327,1.0746000000014888,1.1038000000007457,1.1103000000007412,1.1352000000029818,1.144900000002238,1.17010000000149,1.1774000000022369,1.2016000000014913,1.2088000000007426,1.2434000000022323,1.2512000000029815,1.2653000000007424,1.282100000001492,1.3024000000022369,1.315400000002235,1.3322000000029774,1.348700000002978,1.3714000000022324,1.3838000000007469,1.3991000000014893,1.4154000000022364,1.4376000000014884,1.4487000000029795,1.465600000001487,1.4869000000022368,1.4989000000022372,1.5156000000014913,1.5322000000029803,1.553900000002237,1.5655000000000001,1.5823000000007426,1.5989000000022315,1.6204000000022347,1.6322000000029817,1.6489000000022358,1.6655000000000015,1.6865000000000023,1.7019999999999982,1.7183000000007453,1.737400000002232,1.7490000000000023,1.765500000000003,1.7889000000022364,1.7989999999999995,1.815400000002235,1.8320000000000007,1.849800000000748,1.8654000000022322,1.881999999999998,1.8986000000014869,1.9157000000029782,1.9321000000014905,1.951900000002233,1.9654999999999987,1.9819999999999993,1.9990000000000023,2.0153000000007424,2.032100000001492,2.0511000000014903,2.0663000000007443,2.0820000000000007,2.098700000002978,2.1163000000007415,2.131900000002233,2.1517000000029824,2.168300000000741,2.1824999999999974,2.1998000000007423,2.216600000001492,2.2364000000022344,2.2523000000007443,2.2676000000014866,2.282100000001492,2.301499999999997,2.316600000001486,2.3323000000007426,2.352400000002234,2.3654999999999973,2.3822000000029817,2.4014999999999986,2.417800000000746,2.432000000000002,2.4533000000007448,2.4697000000029803,2.484800000000746,2.4990000000000023,2.5153000000007424,2.536900000002234,2.552900000002232,2.5675000000000026,2.58270000000298,2.598700000002978,2.618300000000744,2.631999999999998,2.649000000000001,2.665300000000748,2.682000000000002,2.701500000000003,2.71670000000298,2.732200000002983,2.7524000000022326,2.767400000002233,2.7853000000007455,2.8019999999999996,2.8183000000007468,2.835400000002238,2.8562000000029784,2.8703000000007464,2.8866000000014864,2.9014999999999986,2.9154000000022364,2.9321000000014905,2.9525000000000006,2.967100000001487,2.981900000002234,2.9987000000029767,3.0153000000007424,3.0319999999999965,3.049500000000002,3.065700000002977,3.0820000000000007,3.102499999999999,3.117900000002237,3.1321000000014863,3.1487000000029823,3.1654000000022364,3.182000000000002,3.198600000001491,3.2154000000022336,3.2319999999999993,3.249200000002979,3.2653000000007424,3.2819999999999965,3.298700000002981,3.315400000002235,3.333900000002238,3.349700000002983,3.3673000000007463,3.381900000002233,3.398600000001487,3.4154000000022364,3.432000000000002,3.4487000000029795,3.4653000000007452,3.4819999999999993,3.4986000000014883,3.5153000000007424,3.5319999999999965,3.5538000000007415,3.565400000002235,3.5820000000000007,3.598700000002978,3.615400000002232,3.631999999999998,3.6487000000029823,3.6655000000000015,3.682000000000002,3.6987000000029795,3.7153000000007452,3.737499999999997,3.7487000000029767,3.765400000002238,3.7868000000007456,3.799100000001488,3.816200000002979,3.8344999999999985,3.8496000000014874,3.865400000002232,3.8822000000029817,3.900800000000743,3.9159000000022317,3.932200000002979,3.951999999999998,3.9654999999999987,3.981900000002234,3.9991000000014907,4.015400000002238,4.0319999999999965,4.05110000000149,4.065700000002977,4.082000000000001,4.09860000000149,4.115300000000744,4.131999999999998,4.151300000000745,4.16560000000149,4.182000000000002,4.198600000001491,4.215400000002234,4.231999999999999,4.250400000002237,4.265300000000742,4.2819999999999965,4.2989999999999995,4.315300000000747,4.33420000000298,4.353499999999997,4.368000000000002,4.382100000001486,4.403600000001489,4.41860000000149,4.432400000002232,4.448800000000745,4.468100000001492,4.483400000002234,4.498800000000742,4.519300000000747,4.534700000002978,4.551400000002232,4.5689000000022375,4.585499999999996,4.601400000002236,4.61660000000149,4.635100000001486,4.651800000000748,4.666100000001492,4.685700000002981,4.700700000002982,4.715400000002234,4.732200000002983,4.752400000002233,4.767499999999998,4.7819999999999965,4.801000000000002,4.815400000002235,4.832000000000001,4.849300000000746,4.8681000000014905,4.882100000001486,4.8988000000007474,4.919100000001492,4.9354000000022324,4.9524000000022355,4.968400000002234,4.982500000000002,4.998700000002977,5.015600000001491,5.036499999999997,5.052400000002237,5.067800000000744,5.082800000000745,5.1015000000000015,5.115700000002981,5.132900000002238,5.151800000000748,5.166200000002981,5.1821000000014905,5.198800000000745,5.219000000000001,5.2328000000007435,5.2527000000029815,5.268100000001489,5.282499999999999,5.299400000002237,5.3155,5.331900000002236,5.352900000002236,5.366,5.381999999999998,5.398600000001487,5.415400000002236,5.436600000001491,5.449400000002235,5.465600000001487,5.482200000002983,5.501700000002977,5.516100000001487,5.532100000001492,5.548800000000746,5.568200000002982,5.5822000000029774,5.59860000000149,5.615300000000744,5.642900000002236,5.650400000002236,5.6655000000000015,5.683100000001488,5.705500000000001,5.715400000002234,5.732100000001488,5.749000000000002,5.770400000002233,5.7819999999999965,5.7989999999999995,5.820700000002979,5.832000000000001,5.848700000002978,5.865300000000744,5.881900000002233,5.898600000001487,5.915200000002983,5.931900000002237,5.953800000000747,5.96820000000298,5.982400000002237,5.998700000002977,6.015400000002238,6.0319999999999965,6.05110000000149,6.065300000000747,6.0826000000014915,6.09860000000149,6.115300000000744,6.131999999999998,6.152300000000743,6.165700000002978,6.1858000000007465,6.201500000000003,6.215300000000745,6.231999999999999,6.250500000000002,6.265200000002977,6.281900000002231,6.298600000001493,6.315300000000747,6.331900000002236,6.348999999999997,6.365200000002979,6.382200000002982,6.4014000000022335,6.415200000002983,6.431900000002237,6.450900000002235,6.465300000000745,6.481999999999999,6.498700000002977,6.515300000000742,6.537900000002232,6.548900000002234,6.565400000002235,6.582100000001489,6.6015000000000015,6.615600000001493,6.632100000001486,6.648700000002982,6.668100000001488,6.682300000000744,6.698800000000745,6.718900000002236,6.7328000000007435,6.761600000001486,6.778100000001487,6.788800000000748,6.798700000002981,6.815300000000747,6.832000000000001,6.84860000000149,6.865300000000744]","[1733130016704,1733130016731,1733130016740,1733130016765,1733130016772,1733130016798,1733130016806,1733130016831,1733130016840,1733130016845,1733130016863,1733130016899,1733130016906,1733130016931,1733130016941,1733130016965,1733130016972,1733130016998,1733130017005,1733130017035,1733130017042,1733130017065,1733130017072,1733130017100,1733130017108,1733130017132,1733130017142,1733130017166,1733130017176,1733130017198,1733130017205,1733130017235,1733130017244,1733130017265,1733130017272,1733130017300,1733130017307,1733130017331,1733130017341,1733130017367,1733130017374,1733130017398,1733130017405,1733130017436,1733130017444,1733130017464,1733130017471,1733130017498,1733130017506,1733130017531,1733130017541,1733130017563,1733130017570,1733130017598,1733130017605,1733130017631,1733130017644,1733130017665,1733130017671,1733130017698,1733130017705,1733130017732,1733130017744,1733130017765,1733130017771,1733130017800,1733130017807,1733130017832,1733130017842,1733130017867,1733130017874,1733130017898,1733130017905,1733130017940,1733130017948,1733130017962,1733130017979,1733130017999,1733130018012,1733130018029,1733130018045,1733130018068,1733130018080,1733130018096,1733130018112,1733130018134,1733130018145,1733130018162,1733130018184,1733130018196,1733130018212,1733130018229,1733130018251,1733130018262,1733130018279,1733130018295,1733130018317,1733130018329,1733130018346,1733130018362,1733130018383,1733130018399,1733130018415,1733130018434,1733130018446,1733130018462,1733130018486,1733130018496,1733130018512,1733130018529,1733130018547,1733130018562,1733130018579,1733130018595,1733130018612,1733130018629,1733130018649,1733130018662,1733130018679,1733130018696,1733130018712,1733130018729,1733130018748,1733130018763,1733130018779,1733130018795,1733130018813,1733130018829,1733130018848,1733130018865,1733130018879,1733130018897,1733130018913,1733130018933,1733130018949,1733130018964,1733130018979,1733130018998,1733130019013,1733130019029,1733130019049,1733130019062,1733130019079,1733130019098,1733130019115,1733130019129,1733130019150,1733130019166,1733130019181,1733130019196,1733130019212,1733130019234,1733130019250,1733130019264,1733130019279,1733130019295,1733130019315,1733130019329,1733130019346,1733130019362,1733130019379,1733130019398,1733130019413,1733130019429,1733130019449,1733130019464,1733130019482,1733130019499,1733130019515,1733130019532,1733130019553,1733130019567,1733130019583,1733130019598,1733130019612,1733130019629,1733130019649,1733130019664,1733130019679,1733130019695,1733130019712,1733130019729,1733130019746,1733130019762,1733130019779,1733130019799,1733130019815,1733130019829,1733130019845,1733130019862,1733130019879,1733130019895,1733130019912,1733130019929,1733130019946,1733130019962,1733130019979,1733130019995,1733130020012,1733130020031,1733130020046,1733130020064,1733130020079,1733130020095,1733130020112,1733130020129,1733130020145,1733130020162,1733130020179,1733130020195,1733130020212,1733130020229,1733130020250,1733130020262,1733130020279,1733130020295,1733130020312,1733130020329,1733130020345,1733130020362,1733130020379,1733130020395,1733130020412,1733130020434,1733130020445,1733130020462,1733130020483,1733130020496,1733130020513,1733130020531,1733130020546,1733130020562,1733130020579,1733130020597,1733130020613,1733130020629,1733130020649,1733130020662,1733130020679,1733130020696,1733130020712,1733130020729,1733130020748,1733130020762,1733130020779,1733130020795,1733130020812,1733130020829,1733130020848,1733130020862,1733130020879,1733130020895,1733130020912,1733130020929,1733130020947,1733130020962,1733130020979,1733130020996,1733130021012,1733130021031,1733130021050,1733130021065,1733130021079,1733130021100,1733130021115,1733130021129,1733130021145,1733130021165,1733130021180,1733130021196,1733130021216,1733130021231,1733130021248,1733130021266,1733130021282,1733130021298,1733130021313,1733130021332,1733130021348,1733130021363,1733130021382,1733130021397,1733130021412,1733130021429,1733130021449,1733130021464,1733130021479,1733130021498,1733130021512,1733130021529,1733130021546,1733130021565,1733130021579,1733130021596,1733130021616,1733130021632,1733130021649,1733130021665,1733130021679,1733130021695,1733130021712,1733130021733,1733130021749,1733130021764,1733130021779,1733130021798,1733130021812,1733130021830,1733130021848,1733130021863,1733130021879,1733130021895,1733130021916,1733130021929,1733130021949,1733130021965,1733130021979,1733130021996,1733130022012,1733130022029,1733130022050,1733130022063,1733130022079,1733130022095,1733130022112,1733130022133,1733130022146,1733130022162,1733130022179,1733130022198,1733130022213,1733130022229,1733130022245,1733130022265,1733130022279,1733130022295,1733130022312,1733130022340,1733130022347,1733130022362,1733130022380,1733130022402,1733130022412,1733130022429,1733130022446,1733130022467,1733130022479,1733130022496,1733130022517,1733130022529,1733130022545,1733130022562,1733130022579,1733130022595,1733130022612,1733130022629,1733130022650,1733130022665,1733130022679,1733130022695,1733130022712,1733130022729,1733130022748,1733130022762,1733130022779,1733130022795,1733130022812,1733130022829,1733130022849,1733130022862,1733130022882,1733130022898,1733130022912,1733130022929,1733130022947,1733130022962,1733130022979,1733130022995,1733130023012,1733130023029,1733130023046,1733130023062,1733130023079,1733130023098,1733130023112,1733130023129,1733130023148,1733130023162,1733130023179,1733130023195,1733130023212,1733130023235,1733130023246,1733130023262,1733130023279,1733130023298,1733130023312,1733130023329,1733130023345,1733130023365,1733130023379,1733130023395,1733130023416,1733130023430,1733130023458,1733130023475,1733130023485,1733130023495,1733130023512,1733130023529,1733130023545,1733130023562]","[[873.8,600.3],[873.7,607],[873.7,607],[913.9,618.7],[913.9,618.7],[943.6,652.5],[943.6,652.5],[963.2,676.4],[963.2,676.4],[963.2,676.4],[963.2,676.4],[960.7,697.1],[960.7,697.1],[960.3,696.5],[960.3,696.5],[974.8,707.6],[974.8,707.6],[948.1,712.8],[948.1,712.8],[962.2,693.3],[962.2,693.3],[920.3,664.7],[920.3,664.7],[887.3,627.5],[887.3,627.5],[817.4,642.6],[817.4,642.6],[755.8,627.5],[755.8,627.5],[717.6,606.3],[717.6,606.3],[703.5,572],[703.5,572],[651.4,560.9],[651.4,560.9],[607.6,543.5],[607.6,543.5],[606.1,530.4],[606.1,530.4],[609.8,513.6],[609.8,513.6],[646.3,512.7],[646.3,512.7],[709.4,540.4],[709.4,540.4],[714.2,522.1],[714.2,522.1],[703.4,499.9],[703.4,499.9],[699,500.5],[699,500.5],[692.7,525.5],[692.7,525.5],[756.3,526.9],[756.3,526.9],[795.8,541.9],[795.8,541.9],[790.5,558.5],[790.5,558.5],[805.2,561.5],[805.2,561.5],[823.5,583.1],[823.5,583.1],[768.2,575.3],[768.2,575.3],[758.7,596.2],[758.7,596.2],[790,625.9],[790,625.9],[812.3,638.9],[812.3,638.9],[836.1,619.8],[836.1,619.8],[803.4,616.6],[803.4,616.6],[788,602.2],[788,602.2],[810.7,566.1],[810.7,566.1],[819.1,566],[819.1,566],[835.9,552.9],[835.9,552.9],[877.9,587.6],[877.9,587.6],[949.7,572.1],[949.7,572.1],[971.6,570.5],[985.3,562.7],[985.3,562.7],[987.9,585.3],[987.9,585.3],[1012.7,595.8],[1012.7,595.8],[1004.1,625.6],[1004.1,625.6],[986.6,660.9],[986.6,660.9],[949.6,679.5],[947.2,701],[951.8,679.5],[958.2,677.1],[990.2,661.2],[1025.7,654.6],[1025.7,654.6],[1048.3,645.9],[1030.6,647.4],[1030.6,647.4],[1068.8,616.6],[1092,622.3],[1128.9,627.7],[1141.1,609.7],[1160.7,603.8],[1158.6,606.3],[1140.5,614.4],[1126.9,623],[1144.3,607],[1190.5,592],[1185.5,592.5],[1192.6,561.6],[1189.8,522.4],[1180.3,506.7],[1173.5,484],[1166.7,461.3],[1168.4,448.2],[1156,426.7],[1111,438.3],[1066,449.9],[1047.2,455.2],[1064.1,469.6],[1076.1,459.3],[1048.2,472.3],[1017.6,492.3],[1021.4,504.5],[1017.1,500.1],[1028.9,504.3],[1044.2,490.3],[1059.5,476.3],[1068.5,464.6],[1016.2,453.1],[994.2,471.2],[994.2,471.2],[1015,472.7],[1023.6,487.9],[1027,488.6],[1054.7,484.7],[1062.6,479.1],[1057.4,488.8],[1064.9,474.1],[1056.5,470.6],[1076.4,454.8],[1074.7,453.9],[1077.4,445.9],[1096.3,425.9],[1086,428.2],[1067,436.5],[1060.9,435.1],[1074.9,409.2],[1076.2,407.7],[1075.9,411],[1072.9,417.3],[1078.9,403.9],[1083.2,422.5],[1083.5,439.4],[1086.7,430.9],[1081.6,436.8],[1120.8,437.2],[1152.5,433.6],[1143.1,456.8],[1148,466.3],[1148,466.3],[1153.6,493.9],[1155.6,527.1],[1152,528.7],[1153.8,535.9],[1152.7,568.5],[1144.9,571.8],[1082.6,586.8],[1020.8,615],[1003,620.8],[987.8,629.5],[946,628.3],[902.8,627.1],[910.9,600.5],[879.5,604.9],[882.2,572.7],[879.4,560.2],[887.2,552.2],[887.2,552.2],[874.2,558],[857.7,547.7],[841.2,537.4],[845.6,534.7],[850,532],[817.8,541.3],[819.7,514],[808.4,509.5],[817.6,500.2],[819.7,506.7],[842.6,499.4],[865.8,526.6],[887.9,536.5],[915,530.6],[954.6,519.1],[983.4,517.8],[1011.9,519.4],[1011.9,519.4],[1012.3,530.1],[1012.3,530.1],[1032.8,544.5],[1032.8,544.5],[1048.2,553.7],[1048.2,553.7],[1035.9,574.8],[1035.9,574.8],[1050.9,540.7],[1050.9,540.7],[1067.7,544.5],[1067.7,544.5],[1059.5,558.3],[1059.5,558.3],[1057.4,571.2],[1057.4,571.2],[1069.5,597.6],[1069.5,597.6],[1061,621.1],[1061,621.1],[1043.3,642.8],[1013.1,659.2],[999,667.1],[1022.7,648.6],[1022.7,663.1],[1022,657],[1046.3,640.9],[1045.1,635.4],[1023.2,626.4],[1022.7,605.6],[1045.7,592.3],[1056.7,586.3],[1072.8,555.8],[1084.9,562.3],[1093.7,568.2],[1118.2,561.5],[1142.7,554.8],[1160.7,542.1],[1181.3,522.6],[1190.2,514.7],[1192,505.8],[1210.7,512.8],[1186.9,518.8],[1161.1,503.4],[1135.3,488],[1085.7,486],[1066.6,489.3],[1060.9,494.5],[1065.8,519.6],[1085.4,544.1],[1101.5,569.4],[1095.2,573.7],[1119.1,592.5],[1125.7,609.2],[1132.3,625.9],[1172.5,602.9],[1180,573.9],[1162.9,574.7],[1135.2,555.6],[1091.2,548],[1041.8,561.5],[1013.7,544.2],[988.9,535.8],[975.5,526.4],[972.1,511.9],[943.2,536.3],[910.2,577.4],[900.9,576.4],[904.6,569.3],[924.9,546.1],[940.4,516],[941.6,509.3],[976.3,515.5],[1020.7,504.4],[1027.2,491.4],[1045.5,491.9],[1070.1,476.4],[1081.3,464.9],[1095.1,446.5],[1094.8,455],[1108.2,448.5],[1108.2,448.5],[1134.5,458],[1124.1,422.5],[1105.8,406.3],[1124.3,397],[1121.2,344.1],[1108.8,306.7],[1099.6,307.1],[1074.8,320.5],[1060.4,288],[1061.2,268],[1056.8,233.1],[1043.7,243.8],[1039.6,264.1],[1011.6,274.9],[1033,308.8],[1063.7,327.2],[1105.5,316.1],[1092.9,330.4],[1073.6,372.3],[1059.1,397.5],[1049.3,400.8],[1043.9,392.3],[1020.6,390],[1031.3,376.9],[994.1,371.5],[941.9,370.1],[889.1,372.6],[908.1,345.6],[933.7,315.4],[955.4,279.3],[967.6,270.8],[969.4,272.3],[975.1,258.3],[961.8,264.7],[956,255.6],[965.2,242.5],[970.9,234.2],[970.9,234.2],[964.2,229.8],[972.1,218.2],[963.9,216.7],[944.8,202.1],[943.6,175.8],[934.2,164.6],[924.8,153.4],[927.1,172.9],[927.9,201.3],[932.9,226.6],[971.5,252.2],[971.5,252.2],[939.6,267.1],[962.6,246.2],[996.5,238.4],[996.5,238.4],[976.1,273.3],[976.1,273.3],[980.1,265.1],[980.1,265.1],[979.3,290.1],[989,256.8],[989,256.8],[998.3,243],[987.3,236.5],[937.7,229.9],[962.9,216.8],[912,250],[861.1,283.2],[889,283.6],[903.9,297.7],[922.1,272.9],[905.6,293.5],[894.6,281.9],[903.8,257.4],[915.4,234.5],[908.1,236],[930.4,227.8],[952.7,219.6],[936.5,209.8],[922.1,214],[921,218.7],[925.9,224.2],[929.6,234.3],[954,242.9],[952,251.7],[958.4,254.4],[956.4,256.3],[957,248.7],[968.1,243.7],[979.2,238.7],[983.3,223.4],[1003.4,207.1],[1003.6,202.2],[983.1,198.8],[1001.2,175.8],[1010.9,158.9],[996.2,170.4],[978.9,191.4],[984.6,211.6],[990.3,231.8],[975.6,265.1],[952.2,295.6],[969.7,318.8],[987.2,342],[987.2,342],[982.5,354.2],[972.2,391.8],[984.4,397.6],[1000.1,389.6],[985.7,382.8],[971.5,373.8],[989.9,348.8],[1012.1,319.1],[1015.7,286.3],[996.1,270.8],[984.9,279.2],[984.9,279.2],[993.1,274.4],[993.1,274.4],[990.2,256.6],[994.4,256.2],[1006.8,247.2],[1002.8,228.2],[981.8,227.6]]","[0,0.5333]","[0.5333,0.5333]","[-0.5333,0]","[-0.5333,-0.5333]","[0,0]","[0.5333,0]","[0,-0.5333]","[0.5333,-0.5333]",0,0,0,0,1,3,Monitor,11,9,9,1
