inst1_resp.keys,inst1_resp.rt,calibrationMouse.x,calibrationMouse.y,calibrationMouse.leftButton,calibrationMouse.midButton,calibrationMouse.rightButton,calibrationClick.x,calibrationClick.y,calibrationClick.leftButton,calibrationClick.midButton,calibrationClick.rightButton,calibrationClick.clicked_name,trialsc.thisRepN,trialsc.thisTrialN,trialsc.thisN,trialsc.thisIndex,trialsc.ran,calibration_x,calibration_y,participant,session,date,expName,psychopyVersion,OS,frameRate,ScreenRes_pixels,Camera_pixels,mouse_2.x,mouse_2.y,mouse_2.leftButton,mouse_2.midButton,mouse_2.rightButton,mouse_2.time,mouse_2.clicked_name,mouse.x,mouse.y,mouse.leftButton,mouse.midButton,mouse.rightButton,mouse.time,mouse.clicked_name,Choice,Trial,TrialDuration,MOUSE_GAZE,ET_GAZE,ET_GAZE_x_T,time,unixTime,ET_GAZE_NF,Loc_Option1_label,Loc_Option2_label,Loc_Cost_label,Loc_Qual_label,Loc_Option1_cost,Loc_Option2_cost,Loc_Option1_quality,Loc_Option2_quality,trials.thisRepN,trials.thisTrialN,trials.thisN,trials.thisIndex,trials.ran,Block,Device,cost1,qual1,cost2,qual2
space,5.7583,0.00625,0.066666667,1,0,0,0.329166667,-0.674074074,1,0,0,calibration_square,0,0,0,14,1,0.33,-0.67,39,001,2024-11-28_12h36.41.113,Attention_exp_legacy,2023.1.0,Win32,59.88023952,,,,,,,,,,,,,,,,,,,,,,,,,,,,,,,,,,,,,,,,,,,,
,,,,,,,-0.33125,0.337037037,1,0,0,calibration_square,0,1,1,7,1,-0.33,0.33,39,001,2024-11-28_12h36.41.113,Attention_exp_legacy,2023.1.0,Win32,59.88023952,,,,,,,,,,,,,,,,,,,,,,,,,,,,,,,,,,,,,,,,,,,,
,,,,,,,-0.669791667,0.32962963,1,0,0,calibration_square,0,2,2,3,1,-0.67,0.33,39,001,2024-11-28_12h36.41.113,Attention_exp_legacy,2023.1.0,Win32,59.88023952,,,,,,,,,,,,,,,,,,,,,,,,,,,,,,,,,,,,,,,,,,,,
,,,,,,,-0.670833333,-0.67037037,1,0,0,calibration_square,0,3,3,0,1,-0.67,-0.67,39,001,2024-11-28_12h36.41.113,Attention_exp_legacy,2023.1.0,Win32,59.88023952,,,,,,,,,,,,,,,,,,,,,,,,,,,,,,,,,,,,,,,,,,,,
,,,,,,,0.333333333,0.331481481,1,0,0,calibration_square,0,4,4,17,1,0.33,0.33,39,001,2024-11-28_12h36.41.113,Attention_exp_legacy,2023.1.0,Win32,59.88023952,,,,,,,,,,,,,,,,,,,,,,,,,,,,,,,,,,,,,,,,,,,,
,,,,,,,-0.001041667,0.67037037,1,0,0,calibration_square,0,5,5,13,1,0,0.67,39,001,2024-11-28_12h36.41.113,Attention_exp_legacy,2023.1.0,Win32,59.88023952,,,,,,,,,,,,,,,,,,,,,,,,,,,,,,,,,,,,,,,,,,,,
,,,,,,,0.326041667,-0.001851852,1,0,0,calibration_square,0,6,6,16,1,0.33,0,39,001,2024-11-28_12h36.41.113,Attention_exp_legacy,2023.1.0,Win32,59.88023952,,,,,,,,,,,,,,,,,,,,,,,,,,,,,,,,,,,,,,,,,,,,
,,,,,,,0.669791667,0.666666667,1,0,0,calibration_square,0,7,7,19,1,0.67,0.67,39,001,2024-11-28_12h36.41.113,Attention_exp_legacy,2023.1.0,Win32,59.88023952,,,,,,,,,,,,,,,,,,,,,,,,,,,,,,,,,,,,,,,,,,,,
,,,,,,,0.328125,-0.331481481,1,0,0,calibration_square,0,8,8,15,1,0.33,-0.33,39,001,2024-11-28_12h36.41.113,Attention_exp_legacy,2023.1.0,Win32,59.88023952,,,,,,,,,,,,,,,,,,,,,,,,,,,,,,,,,,,,,,,,,,,,
,,,,,,,-0.330208333,-0.32962963,1,0,0,calibration_square,0,9,9,5,1,-0.33,-0.33,39,001,2024-11-28_12h36.41.113,Attention_exp_legacy,2023.1.0,Win32,59.88023952,,,,,,,,,,,,,,,,,,,,,,,,,,,,,,,,,,,,,,,,,,,,
,,,,,,,-0.664583333,0.001851852,1,0,0,calibration_square,0,10,10,2,1,-0.67,0,39,001,2024-11-28_12h36.41.113,Attention_exp_legacy,2023.1.0,Win32,59.88023952,,,,,,,,,,,,,,,,,,,,,,,,,,,,,,,,,,,,,,,,,,,,
,,,,,,,0.004166667,0.005555556,1,0,0,calibration_square,0,11,11,11,1,0,0,39,001,2024-11-28_12h36.41.113,Attention_exp_legacy,2023.1.0,Win32,59.88023952,,,,,,,,,,,,,,,,,,,,,,,,,,,,,,,,,,,,,,,,,,,,
,,,,,,,-0.3375,0.677777778,1,0,0,calibration_square,0,12,12,8,1,-0.33,0.67,39,001,2024-11-28_12h36.41.113,Attention_exp_legacy,2023.1.0,Win32,59.88023952,,,,,,,,,,,,,,,,,,,,,,,,,,,,,,,,,,,,,,,,,,,,
,,,,,,,-0.334375,-0.007407407,1,0,0,calibration_square,0,13,13,6,1,-0.33,0,39,001,2024-11-28_12h36.41.113,Attention_exp_legacy,2023.1.0,Win32,59.88023952,,,,,,,,,,,,,,,,,,,,,,,,,,,,,,,,,,,,,,,,,,,,
,,,,,,,0.6625,-0.662962963,1,0,0,calibration_square,0,14,14,20,1,0.67,-0.67,39,001,2024-11-28_12h36.41.113,Attention_exp_legacy,2023.1.0,Win32,59.88023952,,,,,,,,,,,,,,,,,,,,,,,,,,,,,,,,,,,,,,,,,,,,
,,,,,,,-0.677083333,-0.327777778,1,0,0,calibration_square,0,15,15,1,1,-0.67,-0.33,39,001,2024-11-28_12h36.41.113,Attention_exp_legacy,2023.1.0,Win32,59.88023952,,,,,,,,,,,,,,,,,,,,,,,,,,,,,,,,,,,,,,,,,,,,
,,,,,,,-0.004166667,0.337037037,1,0,0,calibration_square,0,16,16,12,1,0,0.33,39,001,2024-11-28_12h36.41.113,Attention_exp_legacy,2023.1.0,Win32,59.88023952,,,,,,,,,,,,,,,,,,,,,,,,,,,,,,,,,,,,,,,,,,,,
,,,,,,,0.00625,-0.675925926,1,0,0,calibration_square,0,17,17,9,1,0,-0.67,39,001,2024-11-28_12h36.41.113,Attention_exp_legacy,2023.1.0,Win32,59.88023952,,,,,,,,,,,,,,,,,,,,,,,,,,,,,,,,,,,,,,,,,,,,
,,,,,,,-0.338541667,-0.666666667,1,0,0,calibration_square,0,18,18,4,1,-0.33,-0.67,39,001,2024-11-28_12h36.41.113,Attention_exp_legacy,2023.1.0,Win32,59.88023952,,,,,,,,,,,,,,,,,,,,,,,,,,,,,,,,,,,,,,,,,,,,
,,,,,,,-0.0125,-0.322222222,1,0,0,,0,19,19,10,1,0,-0.33,39,001,2024-11-28_12h36.41.113,Attention_exp_legacy,2023.1.0,Win32,59.88023952,,,,,,,,,,,,,,,,,,,,,,,,,,,,,,,,,,,,,,,,,,,,
,,,,,,,0.328125,0.67037037,1,0,0,calibration_square,0,20,20,18,1,0.33,0.67,39,001,2024-11-28_12h36.41.113,Attention_exp_legacy,2023.1.0,Win32,59.88023952,,,,,,,,,,,,,,,,,,,,,,,,,,,,,,,,,,,,,,,,,,,,
,,,,,,,,,,,,,,,,,,,,39,001,2024-11-28_12h36.41.113,Attention_exp_legacy,2023.1.0,Win32,59.88023952,"[1920,1080]","[640,480]",[0.041666666666666664],[-0.5203703703703704],[1],[0],[0],[1.800099999994039],"[""StartButton""]",[0.33645833333333336],[0.31296296296296294],[1],[0],[0],[1.9169000000059668],"[""Option2_label""]",Option2_label,1,2.9379,"[[0.09583333333333334,0.23703703703703705],[0.09583333333333334,0.23703703703703705],[0.09583333333333334,0.23703703703703705],[0.09583333333333334,0.23703703703703705],[0.09583333333333334,0.23703703703703705],[0.09583333333333334,0.23703703703703705],[0.09583333333333334,0.23703703703703705],[0.09583333333333334,0.23703703703703705],[0.09583333333333334,0.23703703703703705],[0.09583333333333334,0.2351851851851852],[0.09583333333333334,0.2351851851851852],[0.09583333333333334,0.2351851851851852],[0.09583333333333334,0.23148148148148148],[0.09479166666666666,0.22777777777777777],[0.09270833333333334,0.22592592592592592],[0.09270833333333334,0.22592592592592592],[0.08958333333333333,0.22407407407407406],[0.08854166666666667,0.2222222222222222],[0.08645833333333333,0.2222222222222222],[0.08541666666666667,0.22037037037037038],[0.084375,0.22037037037037038],[0.08333333333333333,0.22037037037037038],[0.07916666666666666,0.22037037037037038],[0.07291666666666667,0.22037037037037038],[0.06041666666666667,0.2351851851851852],[0.04583333333333333,0.2537037037037037],[0.025,0.2740740740740741],[0.01875,0.2759259259259259],[-0.00625,0.2833333333333333],[-0.022916666666666665,0.2833333333333333],[-0.04583333333333333,0.2814814814814815],[-0.06979166666666667,0.26851851851851855],[-0.10520833333333333,0.2518518518518518],[-0.140625,0.23333333333333334],[-0.16770833333333332,0.20925925925925926],[-0.18854166666666666,0.18703703703703703],[-0.21145833333333333,0.15925925925925927],[-0.22083333333333333,0.15],[-0.24166666666666667,0.11481481481481481],[-0.253125,0.08703703703703704],[-0.2604166666666667,0.06851851851851852],[-0.26875,0.05185185185185185],[-0.27708333333333335,0.03888888888888889],[-0.284375,0.02962962962962963],[-0.28854166666666664,0.025925925925925925],[-0.28958333333333336,0.025925925925925925],[-0.28958333333333336,0.024074074074074074],[-0.28958333333333336,0.024074074074074074],[-0.28958333333333336,0.024074074074074074],[-0.290625,0.024074074074074074],[-0.29270833333333335,0.024074074074074074],[-0.29791666666666666,0.024074074074074074],[-0.30416666666666664,0.024074074074074074],[-0.31354166666666666,0.02962962962962963],[-0.32395833333333335,0.03518518518518519],[-0.32916666666666666,0.04259259259259259],[-0.33229166666666665,0.04814814814814815],[-0.3333333333333333,0.05],[-0.3333333333333333,0.05],[-0.3333333333333333,0.05],[-0.31354166666666666,0.027777777777777776],[-0.24791666666666667,-0.04259259259259259],[-0.22291666666666668,-0.08148148148148149],[-0.209375,-0.1],[-0.15104166666666666,-0.16296296296296298],[-0.09895833333333333,-0.2074074074074074],[-0.04375,-0.25],[0.004166666666666667,-0.2722222222222222],[0.04479166666666667,-0.29259259259259257],[0.07395833333333333,-0.3055555555555556],[0.09375,-0.3148148148148148],[0.11041666666666666,-0.32222222222222224],[0.12708333333333333,-0.32222222222222224],[0.14166666666666666,-0.32222222222222224],[0.16041666666666668,-0.32037037037037036],[0.184375,-0.3074074074074074],[0.21770833333333334,-0.2814814814814815],[0.234375,-0.26296296296296295],[0.253125,-0.22592592592592592],[0.25729166666666664,-0.21296296296296297],[0.26666666666666666,-0.1814814814814815],[0.278125,-0.14074074074074075],[0.284375,-0.1],[0.28854166666666664,-0.07222222222222222],[0.28958333333333336,-0.046296296296296294],[0.29270833333333335,-0.027777777777777776],[0.29583333333333334,-0.001851851851851852],[0.2989583333333333,0.014814814814814815],[0.3072916666666667,0.05555555555555555],[0.31666666666666665,0.09259259259259259],[0.32395833333333335,0.13333333333333333],[0.33229166666666665,0.1685185185185185],[0.33645833333333336,0.2],[0.33958333333333335,0.22777777777777777],[0.34270833333333334,0.2462962962962963],[0.34375,0.25555555555555554],[0.34375,0.26296296296296295],[0.34375,0.26481481481481484],[0.34270833333333334,0.26851851851851855],[0.3416666666666667,0.26851851851851855],[0.33958333333333335,0.2777777777777778],[0.3375,0.28703703703703703],[0.3375,0.29444444444444445],[0.33645833333333336,0.30185185185185187],[0.33645833333333336,0.3037037037037037],[0.33645833333333336,0.3037037037037037],[0.33645833333333336,0.3055555555555556],[0.33645833333333336,0.31296296296296294],[0.33645833333333336,0.31296296296296294],[0.33645833333333336,0.31296296296296294],[0.33645833333333336,0.31296296296296294],[0.33645833333333336,0.31296296296296294],[0.33645833333333336,0.31296296296296294],[0.33645833333333336,0.31296296296296294],[0.33645833333333336,0.31296296296296294],[0.33645833333333336,0.31296296296296294],[0.33645833333333336,0.31296296296296294],[0.33645833333333336,0.31296296296296294],[0.33645833333333336,0.31296296296296294],[0.33645833333333336,0.31296296296296294],[0.33645833333333336,0.31296296296296294],[0.33645833333333336,0.31296296296296294],[0.33645833333333336,0.31296296296296294],[0.33645833333333336,0.31296296296296294],[0.33645833333333336,0.31296296296296294],[0.33645833333333336,0.31296296296296294],[0.33645833333333336,0.31296296296296294],[0.33645833333333336,0.31296296296296294],[0.33645833333333336,0.31296296296296294],[0.33645833333333336,0.31296296296296294],[0.33645833333333336,0.31296296296296294],[0.33645833333333336,0.31296296296296294],[0.33645833333333336,0.31296296296296294],[0.33645833333333336,0.31296296296296294],[0.33645833333333336,0.31296296296296294],[0.33645833333333336,0.31296296296296294],[0.33645833333333336,0.31296296296296294],[0.33645833333333336,0.31296296296296294],[0.33645833333333336,0.31296296296296294],[0.33645833333333336,0.31296296296296294],[0.33645833333333336,0.31296296296296294],[0.33645833333333336,0.31296296296296294],[0.33645833333333336,0.31296296296296294],[0.33645833333333336,0.31296296296296294],[0.33645833333333336,0.31296296296296294],[0.33645833333333336,0.31296296296296294],[0.33645833333333336,0.31296296296296294],[0.33645833333333336,0.31296296296296294],[0.33645833333333336,0.31296296296296294],[0.33645833333333336,0.31296296296296294],[0.33645833333333336,0.31296296296296294],[0.33645833333333336,0.31296296296296294],[0.33645833333333336,0.31296296296296294],[0.33645833333333336,0.31296296296296294],[0.33645833333333336,0.31296296296296294],[0.33645833333333336,0.31296296296296294],[0.33645833333333336,0.31296296296296294],[0.33645833333333336,0.31296296296296294],[0.33645833333333336,0.31296296296296294],[0.33645833333333336,0.31296296296296294],[0.33645833333333336,0.31296296296296294],[0.33645833333333336,0.31296296296296294],[0.33645833333333336,0.31296296296296294],[0.33645833333333336,0.31296296296296294],[0.33645833333333336,0.31296296296296294],[0.33645833333333336,0.31296296296296294],[0.33645833333333336,0.31296296296296294],[0.33645833333333336,0.31296296296296294],[0.33645833333333336,0.31296296296296294],[0.33645833333333336,0.31296296296296294],[0.33645833333333336,0.31296296296296294],[0.33645833333333336,0.31296296296296294],[0.33645833333333336,0.31296296296296294],[0.33645833333333336,0.31296296296296294],[0.33645833333333336,0.31296296296296294],[0.33645833333333336,0.31296296296296294]]","[[0.02802083333333331,0.052962962962963],[0.02802083333333331,0.052962962962963],[0.04125000000000002,0.057777777777777865],[0.05572916666666667,0.05314814814814823],[0.07156250000000004,0.07314814814814814],[0.06822916666666666,0.06481481481481481],[0.06822916666666666,0.06481481481481481],[0.03177083333333333,0.051111111111111156],[0.05145833333333331,0.01574074074074074],[0.07156250000000004,-0.01962962962962967],[0.08427083333333343,-0.03314814814814811],[0.07885416666666671,-0.06518518518518517],[0.11333333333333329,-0.09092592592592597],[0.10239583333333328,-0.1096296296296296],[0.09260416666666677,-0.10981481481481484],[0.08572916666666662,-0.13722222222222227],[0.07552083333333333,-0.13037037037037033],[0.10114583333333324,-0.14462962962962966],[0.10114583333333324,-0.14462962962962966],[0.08802083333333334,-0.14425925925925923],[0.0765625,-0.152962962962963],[0.07322916666666662,-0.16870370370370374],[0.05270833333333336,-0.20185185185185187],[0.0026041666666666665,-0.22981481481481486],[0.0026041666666666665,-0.22981481481481486],[-0.02000000000000005,-0.2337037037037037],[-0.029270833333333357,-0.22999999999999998],[-0.029270833333333357,-0.22999999999999998],[-0.01072916666666662,-0.27],[0.001145833333333357,-0.3314814814814815],[0.001145833333333357,-0.3314814814814815],[0.01395833333333331,-0.30537037037037035],[-0.017916666666666713,-0.3066666666666667],[-0.059791666666666646,-0.31796296296296295],[-0.059791666666666646,-0.31796296296296295],[-0.06822916666666666,-0.29962962962962963],[-0.0328125,-0.25333333333333335],[-0.0005208333333333333,-0.21425925925925923],[0.01427083333333338,-0.1735185185185185],[-0.012083333333333357,-0.15611111111111114],[-0.07677083333333339,-0.13481481481481483],[-0.128125,-0.10611111111111113],[-0.128125,-0.10611111111111113],[-0.13875000000000004,-0.1551851851851852],[-0.12875000000000003,-0.16018518518518518],[-0.11083333333333331,-0.14611111111111108],[-0.12885416666666671,-0.13296296296296298],[-0.1554166666666667,-0.11185185185185181],[-0.1554166666666667,-0.11185185185185181],[-0.19864583333333338,-0.11814814814814817],[-0.19864583333333338,-0.11814814814814817],[-0.22885416666666672,-0.12185185185185188],[-0.23104166666666662,-0.1440740740740741],[-0.23364583333333327,-0.11259259259259262],[-0.23374999999999999,-0.0816666666666667],[-0.2782291666666667,-0.034074074074074034],[-0.2782291666666667,-0.034074074074074034],[-0.2984375,-0.010370370370370412],[-0.2964583333333334,0.027037037037037078],[-0.28145833333333337,0.03592592592592588],[-0.28541666666666665,0.03722222222222227],[-0.2875,0.053703703703703705],[-0.25104166666666666,0.056296296296296254],[-0.25104166666666666,0.056296296296296254],[-0.20687500000000003,0.08296296296296288],[-0.16302083333333334,0.08666666666666659],[-0.16302083333333334,0.08666666666666659],[-0.15833333333333333,0.09074074074074075],[-0.15833333333333333,0.09074074074074075],[-0.11979166666666667,0.12759259259259256],[-0.09552083333333337,0.1411111111111112],[-0.09343750000000005,0.14092592592592595],[-0.09343750000000005,0.14092592592592595],[-0.07083333333333333,0.11851851851851852],[0.00947916666666669,0.10851851851851856],[0.09041666666666662,0.10611111111111103],[0.09041666666666662,0.10611111111111103],[0.10989583333333333,0.08944444444444435],[0.10989583333333333,0.08944444444444435],[0.11770833333333333,0.12388888888888884],[0.16104166666666658,0.12481481481481477],[0.22989583333333338,0.12296296296296293],[0.28781249999999997,0.11166666666666658],[0.32666666666666655,0.10203703703703708],[0.36437499999999995,0.0992592592592593],[0.3720833333333334,0.12018518518518514],[0.3396874999999999,0.13666666666666658],[0.325,0.14074074074074075],[0.34041666666666665,0.16814814814814807],[0.36749999999999994,0.14444444444444443],[0.3463541666666667,0.15203703703703708],[0.3385416666666667,0.13425925925925927],[0.31447916666666675,0.10055555555555547],[0.325,0.08462962962962971],[0.3180208333333333,0.034999999999999955],[0.31104166666666655,-0.014629629629629588],[0.2594791666666666,-0.052962962962963],[0.20437500000000006,-0.0742592592592593],[0.1984375,-0.1264814814814815],[0.19249999999999995,-0.1787037037037037],[0.1820833333333333,-0.19592592592592595],[0.15833333333333333,-0.18777777777777774],[0.11135416666666677,-0.18759259259259262],[0.06437499999999995,-0.18740740740740738],[0.03937499999999995,-0.15851851851851856],[0.014374999999999952,-0.12962962962962962],[0.021458333333333357,-0.0772222222222222],[0.0806250000000001,-0.08666666666666668],[0.0806250000000001,-0.08666666666666668],[0.06208333333333336,-0.09000000000000004],[0.04239583333333338,-0.0544444444444444],[0.051145833333333356,-0.04259259259259259],[0.03447916666666669,-0.05351851851851848],[0.034375,-0.06388888888888888],[0.08499999999999991,-0.07259259259259257],[0.12645833333333342,-0.07148148148148152],[0.15739583333333323,-0.1081481481481481],[0.2021874999999999,-0.17999999999999997],[0.2259375000000001,-0.21629629629629632],[0.2647916666666667,-0.25092592592592594],[0.2990624999999999,-0.30759259259259264],[0.3333333333333333,-0.3642592592592592],[0.3696875000000001,-0.3774074074074074],[0.41375000000000006,-0.3933333333333333],[0.3372916666666666,-0.38055555555555554],[0.26666666666666666,-0.3794444444444444],[0.3082291666666668,-0.38055555555555554],[0.3082291666666668,-0.38055555555555554],[0.3497916666666666,-0.3816666666666667],[0.3285416666666668,-0.3212962962962963],[0.32833333333333337,-0.29907407407407405],[0.3338541666666667,-0.29370370370370374],[0.3338541666666667,-0.29370370370370374],[0.3384375000000001,-0.28351851851851856],[0.3384375000000001,-0.26185185185185184],[0.32010416666666663,-0.25092592592592594],[0.41166666666666674,-0.2948148148148148],[0.5171875,-0.3146296296296296],[0.5171875,-0.3146296296296296],[0.560625,-0.3237037037037037],[0.5525000000000001,-0.32092592592592595],[0.5761458333333332,-0.35333333333333333],[0.5416666666666666,-0.3398148148148148],[0.5419791666666666,-0.32592592592592595],[0.5566666666666668,-0.3031481481481481],[0.5848958333333333,-0.32462962962962966],[0.6119791666666666,-0.3359259259259259],[0.6118750000000001,-0.3374074074074074],[0.6118750000000001,-0.3374074074074074],[0.5697916666666667,-0.3466666666666666],[0.4881249999999999,-0.3266666666666666],[0.47718749999999993,-0.35037037037037033],[0.47718749999999993,-0.35037037037037033],[0.49093749999999997,-0.3814814814814815],[0.49093749999999997,-0.3814814814814815],[0.47020833333333345,-0.38370370370370366],[0.4211458333333333,-0.38555555555555554],[0.39072916666666657,-0.40703703703703703],[0.39072916666666657,-0.40703703703703703],[0.34260416666666677,-0.3762962962962963],[0.34104166666666674,-0.367037037037037],[0.3265625,-0.34314814814814815],[0.34739583333333335,-0.3383333333333333],[0.34739583333333335,-0.3383333333333333],[0.36822916666666666,-0.33351851851851855],[0.3597916666666668,-0.2796296296296296],[0.29927083333333326,-0.23055555555555557],[0.32802083333333343,-0.22000000000000003],[0.3246875000000001,-0.1814814814814815],[0.31614583333333335,-0.10574074074074079],[0.31218750000000006,-0.13407407407407404],[0.27854166666666674,-0.12037037037037036],[0.28187499999999993,-0.057777777777777754],[0.2607291666666666,-0.009999999999999959],[0.2607291666666666,-0.009999999999999959],[0.2431250000000001,0.025370370370370456]]","[[0.02802083333333331,0.052962962962963,0.000399999976160359],[0.02802083333333331,0.052962962962963,0.040399999976159506],[0.04125000000000002,0.057777777777777865,0.05449999999999733],[0.05572916666666667,0.05314814814814823,0.07439999997615843],[0.07156250000000004,0.07314814814814814,0.0902999999821148],[0.06822916666666666,0.06481481481481481,0.11059999999403658],[0.06822916666666666,0.06481481481481481,0.12129999998212071],[0.03177083333333333,0.051111111111111156,0.1378999999761561],[0.05145833333333331,0.01574074074074074,0.15589999997615678],[0.07156250000000004,-0.01962962962962967,0.1737999999821156],[0.08427083333333343,-0.03314814814814811,0.1928999999761558],[0.07885416666666671,-0.06518518518518517,0.2082999999821169],[0.11333333333333329,-0.09092592592592597,0.2259999999999991],[0.10239583333333328,-0.1096296296296296,0.2415999999940368],[0.09260416666666677,-0.10981481481481484,0.2563999999761606],[0.08572916666666662,-0.13722222222222227,0.2711999999880774],[0.07552083333333333,-0.13037037037037033,0.2921999999880782],[0.10114583333333324,-0.14462962962962966,0.3083999999761602],[0.10114583333333324,-0.14462962962962966,0.32129999998211645],[0.08802083333333334,-0.14425925925925923,0.3380999999940357],[0.0765625,-0.152962962962963,0.3595999999940389],[0.07322916666666662,-0.16870370370370374,0.37469999998808134],[0.05270833333333336,-0.20185185185185187,0.38939999997615615],[0.0026041666666666665,-0.22981481481481486,0.408099999994036],[0.0026041666666666665,-0.22981481481481486,0.42129999998211787],[-0.02000000000000005,-0.2337037037037037,0.438199999988079],[-0.029270833333333357,-0.22999999999999998,0.4582999999821169],[-0.029270833333333357,-0.22999999999999998,0.471299999982115],[-0.01072916666666662,-0.27,0.48799999999999955],[0.001145833333333357,-0.3314814814814815,0.5127999999821142],[0.001145833333333357,-0.3314814814814815,0.5212999999821193],[0.01395833333333331,-0.30537037037037035,0.5380999999940386],[-0.017916666666666713,-0.3066666666666667,0.5560999999940393],[-0.059791666666666646,-0.31796296296296295,0.5769999999999982],[-0.059791666666666646,-0.31796296296296295,0.5878999999761589],[-0.06822916666666666,-0.29962962962962963,0.6046999999880782],[-0.0328125,-0.25333333333333335,0.6247999999821161],[-0.0005208333333333333,-0.21425925925925923,0.6422999999821144],[0.01427083333333338,-0.1735185185185185,0.6576999999880755],[-0.012083333333333357,-0.15611111111111114,0.6728999999761598],[-0.07677083333333339,-0.13481481481481483,0.6880000000000024],[-0.128125,-0.10611111111111113,0.7095999999940403],[-0.128125,-0.10611111111111113,0.7214999999999989],[-0.13875000000000004,-0.1551851851851852,0.7379999999999995],[-0.12875000000000003,-0.16018518518518518,0.7546999999880768],[-0.11083333333333331,-0.14611111111111108,0.7762999999821147],[-0.12885416666666671,-0.13296296296296298,0.7906999999880782],[-0.1554166666666667,-0.11185185185185181,0.8083999999761602],[-0.1554166666666667,-0.11185185185185181,0.8212999999821164],[-0.19864583333333338,-0.11814814814814817,0.8414999999999964],[-0.19864583333333338,-0.11814814814814817,0.8547999999821201],[-0.22885416666666672,-0.12185185185185188,0.8713999999761555],[-0.23104166666666662,-0.1440740740740741,0.8913999999761586],[-0.23364583333333327,-0.11259259259259262,0.9081999999880779],[-0.23374999999999999,-0.0816666666666667,0.9248999999761551],[-0.2782291666666667,-0.034074074074074034,0.9451999999880769],[-0.2782291666666667,-0.034074074074074034,0.9545999999940378],[-0.2984375,-0.010370370370370412,0.971299999982115],[-0.2964583333333334,0.027037037037037078,0.9909999999999997],[-0.28145833333333337,0.03592592592592588,1.0060000000000002],[-0.28541666666666665,0.03722222222222227,1.0257999999821195],[-0.2875,0.053703703703703705,1.0414999999999992],[-0.25104166666666666,0.056296296296296254,1.0563999999761577],[-0.25104166666666666,0.056296296296296254,1.0712999999821164],[-0.20687500000000003,0.08296296296296288,1.0907999999821172],[-0.16302083333333334,0.08666666666666659,1.110899999976155],[-0.16302083333333334,0.08666666666666659,1.1213999999761555],[-0.15833333333333333,0.09074074074074075,1.1379999999999981],[-0.15833333333333333,0.09074074074074075,1.1575999999940407],[-0.11979166666666667,0.12759259259259256,1.1712999999821179],[-0.09552083333333337,0.1411111111111112,1.1880000000000024],[-0.09343750000000005,0.14092592592592595,1.2111999999880751],[-0.09343750000000005,0.14092592592592595,1.221299999982115],[-0.07083333333333333,0.11851851851851852,1.2379999999999995],[0.00947916666666669,0.10851851851851856,1.2546999999880768],[0.09041666666666662,0.10611111111111103,1.2765999999940405],[0.09041666666666662,0.10611111111111103,1.2882999999821152],[0.10989583333333333,0.08944444444444435,1.3075999999940393],[0.10989583333333333,0.08944444444444435,1.3320000000000007],[0.11770833333333333,0.12388888888888884,1.338000000000001],[0.16104166666666658,0.12481481481481477,1.3545999999940364],[0.22989583333333338,0.12296296296296293,1.3735],[0.28781249999999997,0.11166666666666658,1.3897999999821167],[0.32666666666666655,0.10203703703703708,1.4055999999940383],[0.36437499999999995,0.0992592592592593,1.4217999999821203],[0.3720833333333334,0.12018518518518514,1.4380000000000024],[0.3396874999999999,0.13666666666666658,1.4570000000000007],[0.325,0.14074074074074075,1.471299999982115],[0.34041666666666665,0.16814814814814807,1.4903999999761552],[0.36749999999999994,0.14444444444444443,1.504599999994042],[0.3463541666666667,0.15203703703703708,1.5250999999940404],[0.3385416666666667,0.13425925925925927,1.5406999999880782],[0.31447916666666675,0.10055555555555547,1.5545999999940392],[0.325,0.08462962962962971,1.5760999999940353],[0.3180208333333333,0.034999999999999955,1.5902999999821148],[0.31104166666666655,-0.014629629629629588,1.6048999999761548],[0.2594791666666666,-0.052962962962963,1.6235999999940418],[0.20437500000000006,-0.0742592592592593,1.6404999999999959],[0.1984375,-0.1264814814814815,1.655799999982115],[0.19249999999999995,-0.1787037037037037,1.6712999999821179],[0.1820833333333333,-0.19592592592592595,1.6880000000000024],[0.15833333333333333,-0.18777777777777774,1.7085000000000008],[0.11135416666666677,-0.18759259259259262,1.7233999999761593],[0.06437499999999995,-0.18740740740740738,1.7402999999821205],[0.03937499999999995,-0.15851851851851856,1.7547999999821187],[0.014374999999999952,-0.12962962962962962,1.7710999999940356],[0.021458333333333357,-0.0772222222222222,1.7908999999761548],[0.0806250000000001,-0.08666666666666668,1.8088999999761555],[0.0806250000000001,-0.08666666666666668,1.8211999999880746],[0.06208333333333336,-0.09000000000000004,1.837899999976159],[0.04239583333333338,-0.0544444444444444,1.8545999999940364],[0.051145833333333356,-0.04259259259259259,1.872599999994037],[0.03447916666666669,-0.05351851851851848,1.8877999999821142],[0.034375,-0.06388888888888888,1.9077999999821174],[0.08499999999999991,-0.07259259259259257,1.9243999999761598],[0.12645833333333342,-0.07148148148148152,1.9426999999880792],[0.15739583333333323,-0.1081481481481481,1.957399999976154],[0.2021874999999999,-0.17999999999999997,1.971299999982115],[0.2259375000000001,-0.21629629629629632,1.9903999999761552],[0.2647916666666667,-0.25092592592592594,2.005899999976158],[0.2990624999999999,-0.30759259259259264,2.0210999999940356],[0.3333333333333333,-0.3642592592592592,2.0393999999761547],[0.3696875000000001,-0.3774074074074074,2.0544999999999973],[0.41375000000000006,-0.3933333333333333,2.0711999999880746],[0.3372916666666666,-0.38055555555555554,2.087799999982117],[0.26666666666666666,-0.3794444444444444,2.1045000000000016],[0.3082291666666668,-0.38055555555555554,2.124199999988079],[0.3082291666666668,-0.38055555555555554,2.1377999999821142],[0.3497916666666666,-0.3816666666666667,2.1545999999940406],[0.3285416666666668,-0.3212962962962963,2.171199999988076],[0.32833333333333337,-0.29907407407407405,2.1877999999821185],[0.3338541666666667,-0.29370370370370374,2.206799999982117],[0.3338541666666667,-0.29370370370370374,2.221299999982115],[0.3384375000000001,-0.28351851851851856,2.2378999999761575],[0.3384375000000001,-0.26185185185185184,2.254599999994042],[0.32010416666666663,-0.25092592592592594,2.2710999999940356],[0.41166666666666674,-0.2948148148148148,2.2893999999761547],[0.5171875,-0.3146296296296296,2.3043999999761553],[0.5171875,-0.3146296296296296,2.3211999999880746],[0.560625,-0.3237037037037037,2.337899999976159],[0.5525000000000001,-0.32092592592592595,2.3543999999761596],[0.5761458333333332,-0.35333333333333333,2.3725000000000023],[0.5416666666666666,-0.3398148148148148,2.387899999976156],[0.5419791666666666,-0.32592592592592595,2.407499999999999],[0.5566666666666668,-0.3031481481481481,2.4237999999821156],[0.5848958333333333,-0.32462962962962966,2.442099999994042],[0.6119791666666666,-0.3359259259259259,2.4568999999761587],[0.6118750000000001,-0.3374074074074074,2.471599999994041],[0.6118750000000001,-0.3374074074074074,2.4877999999821157],[0.5697916666666667,-0.3466666666666666,2.504599999994042],[0.4881249999999999,-0.3266666666666666,2.5211999999880774],[0.47718749999999993,-0.35037037037037033,2.5412999999821153],[0.47718749999999993,-0.35037037037037033,2.5543999999761553],[0.49093749999999997,-0.3814814814814815,2.5713999999761583],[0.49093749999999997,-0.3814814814814815,2.587799999982117],[0.47020833333333345,-0.38370370370370366,2.6043999999761596],[0.4211458333333333,-0.38555555555555554,2.623599999994042],[0.39072916666666657,-0.40703703703703703,2.639399999976156],[0.39072916666666657,-0.40703703703703703,2.6544999999999987],[0.34260416666666677,-0.3762962962962963,2.671199999988076],[0.34104166666666674,-0.367037037037037,2.6877999999821185],[0.3265625,-0.34314814814814815,2.706799999982117],[0.34739583333333335,-0.3383333333333333,2.7225999999940385],[0.34739583333333335,-0.3383333333333333,2.7377999999821157],[0.36822916666666666,-0.33351851851851855,2.7545],[0.3597916666666668,-0.2796296296296296,2.7765999999940405],[0.29927083333333326,-0.23055555555555557,2.7912999999821153],[0.32802083333333343,-0.22000000000000003,2.8082999999821183],[0.3246875000000001,-0.1814814814814815,2.824799999982119],[0.31614583333333335,-0.10574074074074079,2.8414999999999964],[0.31218750000000006,-0.13407407407407404,2.860299999982118],[0.27854166666666674,-0.12037037037037036,2.874199999988079],[0.28187499999999993,-0.057777777777777754,2.8890999999940377],[0.2607291666666666,-0.009999999999999959,2.9082999999821197],[0.2607291666666666,-0.009999999999999959,2.921199999988076],[0.2431250000000001,0.025370370370370456,2.9378999999761604]]","[0.000399999976160359,0.040399999976159506,0.05449999999999733,0.07439999997615843,0.0902999999821148,0.11059999999403658,0.12129999998212071,0.1378999999761561,0.15589999997615678,0.1737999999821156,0.1928999999761558,0.2082999999821169,0.2259999999999991,0.2415999999940368,0.2563999999761606,0.2711999999880774,0.2921999999880782,0.3083999999761602,0.32129999998211645,0.3380999999940357,0.3595999999940389,0.37469999998808134,0.38939999997615615,0.408099999994036,0.42129999998211787,0.438199999988079,0.4582999999821169,0.471299999982115,0.48799999999999955,0.5127999999821142,0.5212999999821193,0.5380999999940386,0.5560999999940393,0.5769999999999982,0.5878999999761589,0.6046999999880782,0.6247999999821161,0.6422999999821144,0.6576999999880755,0.6728999999761598,0.6880000000000024,0.7095999999940403,0.7214999999999989,0.7379999999999995,0.7546999999880768,0.7762999999821147,0.7906999999880782,0.8083999999761602,0.8212999999821164,0.8414999999999964,0.8547999999821201,0.8713999999761555,0.8913999999761586,0.9081999999880779,0.9248999999761551,0.9451999999880769,0.9545999999940378,0.971299999982115,0.9909999999999997,1.0060000000000002,1.0257999999821195,1.0414999999999992,1.0563999999761577,1.0712999999821164,1.0907999999821172,1.110899999976155,1.1213999999761555,1.1379999999999981,1.1575999999940407,1.1712999999821179,1.1880000000000024,1.2111999999880751,1.221299999982115,1.2379999999999995,1.2546999999880768,1.2765999999940405,1.2882999999821152,1.3075999999940393,1.3320000000000007,1.338000000000001,1.3545999999940364,1.3735,1.3897999999821167,1.4055999999940383,1.4217999999821203,1.4380000000000024,1.4570000000000007,1.471299999982115,1.4903999999761552,1.504599999994042,1.5250999999940404,1.5406999999880782,1.5545999999940392,1.5760999999940353,1.5902999999821148,1.6048999999761548,1.6235999999940418,1.6404999999999959,1.655799999982115,1.6712999999821179,1.6880000000000024,1.7085000000000008,1.7233999999761593,1.7402999999821205,1.7547999999821187,1.7710999999940356,1.7908999999761548,1.8088999999761555,1.8211999999880746,1.837899999976159,1.8545999999940364,1.872599999994037,1.8877999999821142,1.9077999999821174,1.9243999999761598,1.9426999999880792,1.957399999976154,1.971299999982115,1.9903999999761552,2.005899999976158,2.0210999999940356,2.0393999999761547,2.0544999999999973,2.0711999999880746,2.087799999982117,2.1045000000000016,2.124199999988079,2.1377999999821142,2.1545999999940406,2.171199999988076,2.1877999999821185,2.206799999982117,2.221299999982115,2.2378999999761575,2.254599999994042,2.2710999999940356,2.2893999999761547,2.3043999999761553,2.3211999999880746,2.337899999976159,2.3543999999761596,2.3725000000000023,2.387899999976156,2.407499999999999,2.4237999999821156,2.442099999994042,2.4568999999761587,2.471599999994041,2.4877999999821157,2.504599999994042,2.5211999999880774,2.5412999999821153,2.5543999999761553,2.5713999999761583,2.587799999982117,2.6043999999761596,2.623599999994042,2.639399999976156,2.6544999999999987,2.671199999988076,2.6877999999821185,2.706799999982117,2.7225999999940385,2.7377999999821157,2.7545,2.7765999999940405,2.7912999999821153,2.8082999999821183,2.824799999982119,2.8414999999999964,2.860299999982118,2.874199999988079,2.8890999999940377,2.9082999999821197,2.921199999988076,2.9378999999761604]","[1732768648150,1732768648183,1732768648197,1732768648217,1732768648233,1732768648253,1732768648264,1732768648281,1732768648299,1732768648317,1732768648336,1732768648351,1732768648369,1732768648384,1732768648399,1732768648414,1732768648435,1732768648451,1732768648464,1732768648481,1732768648502,1732768648517,1732768648532,1732768648551,1732768648564,1732768648581,1732768648601,1732768648614,1732768648631,1732768648656,1732768648664,1732768648681,1732768648699,1732768648720,1732768648731,1732768648747,1732768648768,1732768648785,1732768648800,1732768648816,1732768648831,1732768648852,1732768648864,1732768648881,1732768648897,1732768648919,1732768648933,1732768648951,1732768648964,1732768648984,1732768648997,1732768649014,1732768649034,1732768649051,1732768649068,1732768649088,1732768649097,1732768649114,1732768649134,1732768649149,1732768649168,1732768649184,1732768649199,1732768649214,1732768649234,1732768649254,1732768649264,1732768649281,1732768649300,1732768649314,1732768649331,1732768649354,1732768649364,1732768649381,1732768649397,1732768649419,1732768649431,1732768649450,1732768649475,1732768649481,1732768649497,1732768649516,1732768649533,1732768649548,1732768649565,1732768649581,1732768649600,1732768649614,1732768649633,1732768649647,1732768649668,1732768649683,1732768649697,1732768649719,1732768649733,1732768649748,1732768649766,1732768649783,1732768649799,1732768649814,1732768649831,1732768649851,1732768649866,1732768649883,1732768649898,1732768649914,1732768649934,1732768649952,1732768649964,1732768649981,1732768649997,1732768650015,1732768650031,1732768650050,1732768650067,1732768650085,1732768650100,1732768650114,1732768650133,1732768650149,1732768650164,1732768650182,1732768650197,1732768650214,1732768650231,1732768650247,1732768650267,1732768650281,1732768650297,1732768650314,1732768650331,1732768650350,1732768650364,1732768650381,1732768650397,1732768650414,1732768650432,1732768650447,1732768650464,1732768650481,1732768650497,1732768650515,1732768650531,1732768650550,1732768650567,1732768650585,1732768650600,1732768650614,1732768650631,1732768650647,1732768650664,1732768650684,1732768650697,1732768650714,1732768650731,1732768650747,1732768650766,1732768650782,1732768650797,1732768650814,1732768650830,1732768650850,1732768650865,1732768650881,1732768650897,1732768650919,1732768650934,1732768650951,1732768650967,1732768650984,1732768651003,1732768651017,1732768651032,1732768651051,1732768651064,1732768651081]","[[986.9,568.6],[986.9,568.6],[999.6,571.2],[1013.5,568.7],[1028.7,579.5],[1025.5,575],[1025.5,575],[990.5,567.6],[1009.4,548.5],[1028.7,529.4],[1040.9,522.1],[1035.7,504.8],[1068.8,490.9],[1058.3,480.8],[1048.9,480.7],[1042.3,465.9],[1032.5,469.6],[1057.1,461.9],[1057.1,461.9],[1044.5,462.1],[1033.5,457.4],[1030.3,448.9],[1010.6,431],[962.5,415.9],[962.5,415.9],[940.8,413.8],[931.9,415.8],[931.9,415.8],[949.7,394.2],[961.1,361],[961.1,361],[973.4,375.1],[942.8,374.4],[902.6,368.3],[902.6,368.3],[894.5,378.2],[928.5,403.2],[959.5,424.3],[973.7,446.3],[948.4,455.7],[886.3,467.2],[837,482.7],[837,482.7],[826.8,456.2],[836.4,453.5],[853.6,461.1],[836.3,468.2],[810.8,479.6],[810.8,479.6],[769.3,476.2],[769.3,476.2],[740.3,474.2],[738.2,462.2],[735.7,479.2],[735.6,495.9],[692.9,521.6],[692.9,521.6],[673.5,534.4],[675.4,554.6],[689.8,559.4],[686,560.1],[684,569],[719,570.4],[719,570.4],[761.4,584.8],[803.5,586.8],[803.5,586.8],[808,589],[808,589],[845,608.9],[868.3,616.2],[870.3,616.1],[870.3,616.1],[892,604],[969.1,598.6],[1046.8,597.3],[1046.8,597.3],[1065.5,588.3],[1065.5,588.3],[1073,606.9],[1114.6,607.4],[1180.7,606.4],[1236.3,600.3],[1273.6,595.1],[1309.8,593.6],[1317.2,604.9],[1286.1,613.8],[1272,616],[1286.8,630.8],[1312.8,618],[1292.5,622.1],[1285,612.5],[1261.9,594.3],[1272,585.7],[1265.3,558.9],[1258.6,532.1],[1209.1,511.4],[1156.2,499.9],[1150.5,471.7],[1144.8,443.5],[1134.8,434.2],[1112,438.6],[1066.9,438.7],[1021.8,438.8],[997.8,454.4],[973.8,470],[980.6,498.3],[1037.4,493.2],[1037.4,493.2],[1019.6,491.4],[1000.7,510.6],[1009.1,517],[993.1,511.1],[993,505.5],[1041.6,500.8],[1081.4,501.4],[1111.1,481.6],[1154.1,442.8],[1176.9,423.2],[1214.2,404.5],[1247.1,373.9],[1280,343.3],[1314.9,336.2],[1357.2,327.6],[1283.8,334.5],[1216,335.1],[1255.9,334.5],[1255.9,334.5],[1295.8,333.9],[1275.4,366.5],[1275.2,378.5],[1280.5,381.4],[1280.5,381.4],[1284.9,386.9],[1284.9,398.6],[1267.3,404.5],[1355.2,380.8],[1456.5,370.1],[1456.5,370.1],[1498.2,365.2],[1490.4,366.7],[1513.1,349.2],[1480,356.5],[1480.3,364],[1494.4,376.3],[1521.5,364.7],[1547.5,358.6],[1547.4,357.8],[1547.4,357.8],[1507,352.8],[1428.6,363.6],[1418.1,350.8],[1418.1,350.8],[1431.3,334],[1431.3,334],[1411.4,332.8],[1364.3,331.8],[1335.1,320.2],[1335.1,320.2],[1288.9,336.8],[1287.4,341.8],[1273.5,354.7],[1293.5,357.3],[1293.5,357.3],[1313.5,359.9],[1305.4,389],[1247.3,415.5],[1274.9,421.2],[1271.7,442],[1263.5,482.9],[1259.7,467.6],[1227.4,475],[1230.6,508.8],[1210.3,534.6],[1210.3,534.6],[1193.4,553.7]]","[0,0.3527331528]","[0.3527331528,0.3527331528]","[-0.3527331528,-0.3527331528]","[-0.3527331528,0]","[0,-0.3527331528]","[0.3527331528,-0.3527331528]","[0,0]","[0.3527331528,0]",0,0,0,0,1,2,Tablet,7,1,11,9
,,,,,,,,,,,,,,,,,,,,39,001,2024-11-28_12h36.41.113,Attention_exp_legacy,2023.1.0,Win32,59.88023952,,,,,,,,,,[0.034375],[0.3388888888888889],[1],[0],[0],[3.1663000000119155],"[""Option1_label""]",Option1_label,2,4.181,"[[-0.0625,-0.05185185185185185],[-0.06354166666666666,-0.05185185185185185],[-0.06354166666666666,-0.05185185185185185],[-0.06354166666666666,-0.05185185185185185],[-0.06354166666666666,-0.046296296296296294],[-0.06354166666666666,-0.046296296296296294],[-0.06354166666666666,-0.046296296296296294],[-0.06354166666666666,-0.046296296296296294],[-0.06354166666666666,-0.046296296296296294],[-0.06354166666666666,-0.046296296296296294],[-0.06354166666666666,-0.046296296296296294],[-0.06354166666666666,-0.046296296296296294],[-0.06354166666666666,-0.046296296296296294],[-0.06354166666666666,-0.046296296296296294],[-0.06354166666666666,-0.046296296296296294],[-0.06354166666666666,-0.046296296296296294],[-0.06354166666666666,-0.046296296296296294],[-0.06354166666666666,-0.046296296296296294],[-0.06354166666666666,-0.046296296296296294],[-0.06354166666666666,-0.046296296296296294],[-0.06354166666666666,-0.046296296296296294],[-0.06875,-0.06296296296296296],[-0.07708333333333334,-0.06481481481481481],[-0.09479166666666666,-0.06851851851851852],[-0.12083333333333333,-0.07592592592592592],[-0.15208333333333332,-0.08148148148148149],[-0.18333333333333332,-0.09259259259259259],[-0.225,-0.11481481481481481],[-0.23958333333333334,-0.12222222222222222],[-0.2677083333333333,-0.13518518518518519],[-0.28958333333333336,-0.15555555555555556],[-0.31666666666666665,-0.17592592592592593],[-0.3229166666666667,-0.17962962962962964],[-0.3302083333333333,-0.18333333333333332],[-0.33229166666666665,-0.18518518518518517],[-0.3333333333333333,-0.18518518518518517],[-0.3333333333333333,-0.18518518518518517],[-0.3333333333333333,-0.18518518518518517],[-0.3333333333333333,-0.18518518518518517],[-0.3333333333333333,-0.18518518518518517],[-0.3333333333333333,-0.18518518518518517],[-0.334375,-0.18703703703703703],[-0.334375,-0.19814814814814816],[-0.334375,-0.20555555555555555],[-0.334375,-0.21666666666666667],[-0.334375,-0.2851851851851852],[-0.33958333333333335,-0.35],[-0.3458333333333333,-0.3888888888888889],[-0.34791666666666665,-0.40370370370370373],[-0.35104166666666664,-0.412962962962963],[-0.35104166666666664,-0.412962962962963],[-0.35104166666666664,-0.412962962962963],[-0.35104166666666664,-0.4148148148148148],[-0.34791666666666665,-0.4148148148148148],[-0.3375,-0.4111111111111111],[-0.3177083333333333,-0.3925925925925926],[-0.31145833333333334,-0.3851851851851852],[-0.2916666666666667,-0.3648148148148148],[-0.2708333333333333,-0.34444444444444444],[-0.2520833333333333,-0.32407407407407407],[-0.23333333333333334,-0.3037037037037037],[-0.21354166666666666,-0.2851851851851852],[-0.19479166666666667,-0.26666666666666666],[-0.1625,-0.24444444444444444],[-0.12916666666666668,-0.22777777777777777],[-0.08645833333333333,-0.20925925925925926],[-0.00625,-0.1925925925925926],[0.029166666666666667,-0.18333333333333332],[0.12604166666666666,-0.1814814814814815],[0.18541666666666667,-0.1814814814814815],[0.24791666666666667,-0.1814814814814815],[0.2875,-0.1814814814814815],[0.325,-0.1814814814814815],[0.35104166666666664,-0.1814814814814815],[0.37395833333333334,-0.1814814814814815],[0.3885416666666667,-0.1814814814814815],[0.3958333333333333,-0.1814814814814815],[0.39895833333333336,-0.1814814814814815],[0.4,-0.1814814814814815],[0.4,-0.1814814814814815],[0.4010416666666667,-0.1814814814814815],[0.4010416666666667,-0.1814814814814815],[0.4010416666666667,-0.1814814814814815],[0.4010416666666667,-0.1814814814814815],[0.40208333333333335,-0.1814814814814815],[0.40208333333333335,-0.1814814814814815],[0.40208333333333335,-0.1814814814814815],[0.40208333333333335,-0.1814814814814815],[0.40208333333333335,-0.1814814814814815],[0.40208333333333335,-0.1814814814814815],[0.40208333333333335,-0.1814814814814815],[0.40208333333333335,-0.1814814814814815],[0.40208333333333335,-0.1814814814814815],[0.40208333333333335,-0.1814814814814815],[0.40208333333333335,-0.1814814814814815],[0.40208333333333335,-0.1814814814814815],[0.40208333333333335,-0.1814814814814815],[0.40208333333333335,-0.1814814814814815],[0.40208333333333335,-0.1814814814814815],[0.40208333333333335,-0.1814814814814815],[0.40208333333333335,-0.1814814814814815],[0.40208333333333335,-0.1814814814814815],[0.40208333333333335,-0.1814814814814815],[0.40208333333333335,-0.1814814814814815],[0.40208333333333335,-0.1814814814814815],[0.4010416666666667,-0.17407407407407408],[0.3885416666666667,-0.13148148148148148],[0.37604166666666666,-0.07222222222222222],[0.3614583333333333,0.003703703703703704],[0.353125,0.07222222222222222],[0.35,0.12222222222222222],[0.3489583333333333,0.16296296296296298],[0.3489583333333333,0.18703703703703703],[0.3489583333333333,0.1962962962962963],[0.34791666666666665,0.20185185185185187],[0.34791666666666665,0.2074074074074074],[0.34791666666666665,0.20925925925925926],[0.34791666666666665,0.20925925925925926],[0.34791666666666665,0.20925925925925926],[0.34791666666666665,0.20925925925925926],[0.34791666666666665,0.20925925925925926],[0.34791666666666665,0.20925925925925926],[0.34791666666666665,0.20925925925925926],[0.346875,0.2111111111111111],[0.34375,0.2111111111111111],[0.325,0.19444444444444445],[0.2916666666666667,0.1574074074074074],[0.23958333333333334,0.10555555555555556],[0.12916666666666668,0.001851851851851852],[0.0625,-0.07222222222222222],[0.010416666666666666,-0.1388888888888889],[-0.035416666666666666,-0.18518518518518517],[-0.06875,-0.22037037037037038],[-0.08958333333333333,-0.24259259259259258],[-0.10520833333333333,-0.2574074074074074],[-0.11354166666666667,-0.26481481481481484],[-0.115625,-0.26666666666666666],[-0.11666666666666667,-0.26666666666666666],[-0.11666666666666667,-0.26666666666666666],[-0.11666666666666667,-0.26666666666666666],[-0.11666666666666667,-0.26666666666666666],[-0.11666666666666667,-0.26666666666666666],[-0.11666666666666667,-0.26666666666666666],[-0.11666666666666667,-0.26666666666666666],[-0.11666666666666667,-0.26666666666666666],[-0.11666666666666667,-0.26666666666666666],[-0.11666666666666667,-0.26666666666666666],[-0.11666666666666667,-0.26666666666666666],[-0.11666666666666667,-0.26666666666666666],[-0.12083333333333333,-0.2740740740740741],[-0.13020833333333334,-0.2814814814814815],[-0.14270833333333333,-0.2851851851851852],[-0.14479166666666668,-0.28703703703703703],[-0.146875,-0.28703703703703703],[-0.14895833333333333,-0.28703703703703703],[-0.14895833333333333,-0.28703703703703703],[-0.15,-0.2833333333333333],[-0.15,-0.26481481481481484],[-0.140625,-0.23333333333333334],[-0.11770833333333333,-0.2],[-0.08020833333333334,-0.15185185185185185],[-0.03958333333333333,-0.07037037037037037],[-0.015625,-0.014814814814814815],[-0.003125,0.03333333333333333],[0.0020833333333333333,0.06111111111111111],[0.009375,0.09259259259259259],[0.014583333333333334,0.1111111111111111],[0.022916666666666665,0.1259259259259259],[0.034375,0.1425925925925926],[0.040625,0.15555555555555556],[0.041666666666666664,0.16296296296296298],[0.041666666666666664,0.17037037037037037],[0.041666666666666664,0.1814814814814815],[0.041666666666666664,0.18888888888888888],[0.03958333333333333,0.20185185185185187],[0.03958333333333333,0.2074074074074074],[0.03958333333333333,0.21851851851851853],[0.03958333333333333,0.23148148148148148],[0.03958333333333333,0.2388888888888889],[0.03958333333333333,0.2462962962962963],[0.03958333333333333,0.2518518518518518],[0.03854166666666667,0.26666666666666666],[0.03854166666666667,0.2796296296296296],[0.0375,0.2962962962962963],[0.035416666666666666,0.3111111111111111],[0.035416666666666666,0.32222222222222224],[0.035416666666666666,0.3333333333333333],[0.034375,0.337037037037037],[0.034375,0.3388888888888889],[0.034375,0.3388888888888889],[0.034375,0.3388888888888889],[0.034375,0.3388888888888889],[0.034375,0.3388888888888889],[0.034375,0.3388888888888889],[0.034375,0.3388888888888889],[0.034375,0.3388888888888889],[0.034375,0.3388888888888889],[0.034375,0.3388888888888889],[0.034375,0.3388888888888889],[0.034375,0.3388888888888889],[0.034375,0.3388888888888889],[0.034375,0.3388888888888889],[0.034375,0.3388888888888889],[0.034375,0.3388888888888889],[0.034375,0.3388888888888889],[0.034375,0.3388888888888889],[0.034375,0.3388888888888889],[0.034375,0.3388888888888889],[0.034375,0.3388888888888889],[0.034375,0.3388888888888889],[0.034375,0.3388888888888889],[0.034375,0.3388888888888889],[0.034375,0.3388888888888889],[0.034375,0.3388888888888889],[0.034375,0.3388888888888889],[0.034375,0.3388888888888889],[0.034375,0.3388888888888889],[0.034375,0.3388888888888889],[0.034375,0.34074074074074073],[0.034375,0.34074074074074073],[0.034375,0.34074074074074073],[0.034375,0.34074074074074073],[0.034375,0.34074074074074073],[0.034375,0.34074074074074073],[0.034375,0.34074074074074073],[0.034375,0.34074074074074073],[0.034375,0.34074074074074073],[0.034375,0.34074074074074073],[0.034375,0.34074074074074073],[0.034375,0.34074074074074073],[0.034375,0.34074074074074073],[0.034375,0.34074074074074073],[0.034375,0.34074074074074073],[0.034375,0.34074074074074073],[0.034375,0.34074074074074073],[0.034375,0.34074074074074073],[0.034375,0.34074074074074073],[0.034375,0.34074074074074073],[0.034375,0.34074074074074073],[0.034375,0.34074074074074073],[0.034375,0.34074074074074073],[0.034375,0.34074074074074073],[0.034375,0.34074074074074073],[0.034375,0.34074074074074073],[0.034375,0.34074074074074073],[0.034375,0.34074074074074073],[0.034375,0.34074074074074073],[0.034375,0.34074074074074073],[0.034375,0.34074074074074073],[0.034375,0.34074074074074073],[0.034375,0.34074074074074073],[0.034375,0.34074074074074073]]","[[0.12364583333333339,-0.09740740740740746],[0.12364583333333339,-0.09740740740740746],[0.10510416666666676,-0.09981481481481477],[0.10270833333333323,-0.06333333333333331],[0.09020833333333324,0.007777777777777862],[0.09020833333333324,0.007777777777777862],[0.057395833333333354,-0.032037037037036954],[0.01906249999999995,-0.10277777777777777],[-0.004999999999999952,-0.14648148148148152],[-0.011041666666666691,-0.20703703703703705],[-0.017083333333333308,-0.2675925925925926],[0.016770833333333356,-0.3066666666666667],[0.04135416666666671,-0.3320370370370371],[0.04135416666666671,-0.3320370370370371],[0.028125,-0.33611111111111114],[0.03104166666666662,-0.4179629629629629],[0.033958333333333354,-0.49981481481481477],[0.059687499999999956,-0.46814814814814815],[0.11208333333333324,-0.41759259259259257],[0.1734375,-0.3544444444444444],[0.2209374999999999,-0.2814814814814815],[0.26104166666666656,-0.19537037037037036],[0.26104166666666656,-0.19537037037037036],[0.21458333333333332,-0.14055555555555552],[0.20947916666666658,-0.07981481481481485],[0.20041666666666677,-0.04407407407407399],[0.1671875,0.00722222222222218],[0.09458333333333328,0.05129629629629638],[0.017916666666666713,0.0787037037037037],[0.017916666666666713,0.0787037037037037],[0.007083333333333286,0.13259259259259262],[-0.0390625,0.13037037037037033],[-0.0390625,0.13037037037037033],[-0.09479166666666666,0.15722222222222218],[-0.14854166666666668,0.16370370370370366],[-0.1560416666666666,0.1814814814814815],[-0.22010416666666663,0.19518518518518516],[-0.22010416666666663,0.19518518518518516],[-0.2513541666666666,0.21222222222222226],[-0.25499999999999995,0.22481481481481477],[-0.21927083333333333,0.24462962962962967],[-0.1796875,0.2553703703703703],[-0.21604166666666663,0.2368518518518518],[-0.2616666666666667,0.2564814814814815],[-0.2977083333333333,0.247037037037037],[-0.33489583333333334,0.17240740740740745],[-0.33489583333333334,0.17240740740740745],[-0.3540625,0.17685185185185184],[-0.3540625,0.17685185185185184],[-0.3609375,0.14074074074074075],[-0.3538541666666667,0.08092592592592601],[-0.38177083333333334,0.08833333333333342],[-0.4096874999999999,0.09574074074074082],[-0.4096874999999999,0.09574074074074082],[-0.4092708333333333,0.10425925925925918],[-0.39718749999999997,0.09888888888888885],[-0.39718749999999997,0.09888888888888885],[-0.36656249999999996,0.11796296296296305],[-0.31916666666666665,0.15129629629629637],[-0.265625,0.22240740740740744],[-0.265625,0.22240740740740744],[-0.25729166666666664,0.22629629629629638],[-0.26614583333333336,0.23666666666666658],[-0.24125000000000002,0.297037037037037],[-0.2107291666666666,0.2933333333333333],[-0.15843750000000004,0.29000000000000004],[-0.13010416666666663,0.28481481481481474],[-0.11989583333333335,0.3111111111111111],[-0.10270833333333336,0.2887037037037037],[-0.06229166666666662,0.2661111111111112],[-0.021458333333333357,0.27814814814814826],[0.012395833333333309,0.2448148148148149],[0.0900000000000001,0.2601851851851852],[0.11427083333333338,0.21944444444444444],[0.1321875000000001,0.20333333333333325],[0.1490624999999999,0.22111111111111106],[0.1490624999999999,0.22111111111111106],[0.1618750000000001,0.20111111111111116],[0.1618750000000001,0.20111111111111116],[0.2163541666666667,0.19185185185185188],[0.2608333333333334,0.16296296296296298],[0.23302083333333337,0.12629629629629638],[0.19666666666666663,0.10740740740740741],[0.19666666666666663,0.10740740740740741],[0.1944791666666667,0.122037037037037],[0.20739583333333325,0.1331481481481481],[0.25104166666666666,0.15129629629629637],[0.29697916666666657,0.16833333333333328],[0.28927083333333337,0.15907407407407403],[0.315625,0.17555555555555546],[0.3336458333333333,0.16814814814814807],[0.3146874999999999,0.19722222222222222],[0.32802083333333343,0.21999999999999992],[0.32802083333333343,0.21999999999999992],[0.39947916666666666,0.23925925925925934],[0.4365624999999999,0.24814814814814815],[0.43208333333333326,0.24592592592592585],[0.44500000000000006,0.24888888888888885],[0.4556250000000001,0.252962962962963],[0.4796875,0.244074074074074],[0.47374999999999995,0.24722222222222223],[0.4544791666666666,0.23296296296296287],[0.4544791666666666,0.23296296296296287],[0.46822916666666664,0.22314814814814815],[0.46687500000000004,0.23740740740740748],[0.44208333333333344,0.2511111111111112],[0.43864583333333323,0.24611111111111106],[0.42552083333333335,0.22074074074074082],[0.3950000000000001,0.19018518518518526],[0.38614583333333335,0.20629629629629626],[0.3967708333333334,0.22740740740740734],[0.3692708333333333,0.20666666666666672],[0.3619791666666667,0.1816666666666667],[0.3619791666666667,0.1816666666666667],[0.33781249999999996,0.20037037037037045],[0.28885416666666663,0.1844444444444445],[0.2686458333333334,0.10907407407407403],[0.2243750000000001,0.12981481481481486],[0.19260416666666677,0.169074074074074],[0.13052083333333328,0.19129629629629621],[0.13052083333333328,0.19129629629629621],[0.05916666666666662,0.13851851851851843],[0.03083333333333336,0.0816666666666667],[0.019166666666666644,0.08870370370370366],[-0.014583333333333334,0.16074074074074066],[-0.034062500000000044,0.15722222222222218],[-0.013645833333333357,0.16425925925925935],[-0.06072916666666662,0.20555555555555555],[-0.03270833333333331,0.15685185185185194],[-0.02520833333333338,0.1124074074074075],[0.01260416666666669,0.08499999999999996],[0.01260416666666669,0.08499999999999996],[0.049687500000000044,0.07574074074074069],[0.049687500000000044,0.07574074074074069],[0.06124999999999995,0.0625925925925925],[0.08604166666666657,0.04537037037037037],[0.10927083333333343,-0.016851851851851896],[0.10927083333333343,-0.016851851851851896],[0.09593749999999991,-0.027222222222222307],[0.11437499999999995,-0.0514814814814814],[0.14541666666666658,-0.06425925925925924],[0.10791666666666658,-0.01574074074074074],[0.10791666666666658,-0.01574074074074074],[0.09093749999999995,0.028518518518518478],[0.12166666666666662,0.04055555555555551],[0.07510416666666657,0.04129629629629621],[0.011041666666666691,0.05],[0.017499999999999953,0.08259259259259263],[0.023958333333333335,0.11518518518518527],[0.04885416666666664,0.10833333333333334],[0.019895833333333356,0.1359259259259259],[-0.002812500000000047,0.1301851851851851],[0.004999999999999952,0.08611111111111111],[0.05375000000000003,0.03888888888888889],[0.05479166666666669,0.02388888888888885],[0.12145833333333324,0.03037037037037033],[0.1462500000000001,0.0764814814814814],[0.12083333333333333,0.0492592592592593],[0.09541666666666657,0.022037037037036994],[0.10385416666666672,0.018518518518518517],[0.134375,-0.005555555555555556],[0.134375,-0.005555555555555556],[0.12687499999999996,-0.049629629629629544],[0.10750000000000005,-0.06314814814814819],[0.04718749999999995,-0.0735185185185185],[0.010208333333333286,-0.06722222222222224],[-0.03968750000000002,-0.01592592592592597],[-0.024166666666666715,-0.03796296296296296],[-0.024166666666666715,-0.03796296296296296],[-0.027187500000000024,-0.04944444444444453],[-0.049479166666666664,-0.024074074074074074],[-0.075,-0.03851851851851843],[-0.075,-0.03851851851851843],[-0.08937499999999995,-0.05870370370370368],[-0.08770833333333337,-0.036481481481481566],[-0.08770833333333337,-0.036481481481481566],[-0.07270833333333329,-0.01703703703703712],[-0.06635416666666671,0.015555555555555513],[-0.08333333333333333,0.03148148148148148],[-0.08333333333333333,0.03148148148148148],[-0.08041666666666672,-0.006666666666666709],[-0.09510416666666661,-0.04333333333333329],[-0.10333333333333337,-0.05907407407407403],[-0.0782291666666667,-0.12981481481481486],[-0.07270833333333329,-0.14888888888888885],[-0.07593749999999998,-0.167037037037037],[-0.06343749999999998,-0.1742592592592593],[-0.06343749999999998,-0.1742592592592593],[-0.03916666666666669,-0.17888888888888893],[-0.010000000000000024,-0.21796296296296294],[0.019166666666666644,-0.25703703703703706],[0.019166666666666644,-0.25703703703703706],[0.014479166666666644,-0.3333333333333333],[0.04208333333333331,-0.32333333333333336],[0.0978125000000001,-0.2633333333333333],[0.11177083333333329,-0.21148148148148146],[0.11677083333333324,-0.21500000000000005],[0.11677083333333324,-0.21500000000000005],[0.1234375,-0.22259259259259256],[0.13739583333333344,-0.20462962962962963],[0.12958333333333344,-0.21222222222222226],[0.1271874999999999,-0.24981481481481477],[0.1352083333333333,-0.26592592592592595],[0.1352083333333333,-0.26592592592592595],[0.1701041666666666,-0.23574074074074075],[0.1396874999999999,-0.30388888888888893],[0.08114583333333343,-0.422037037037037],[0.08114583333333343,-0.422037037037037],[0.06875,-0.4777777777777778],[0.09281249999999991,-0.4824074074074074],[0.11281249999999995,-0.4781481481481481],[0.14072916666666657,-0.4853703703703704],[0.17718749999999991,-0.49740740740740746],[0.17718749999999991,-0.49740740740740746],[0.20052083333333334,-0.4766666666666666],[0.18322916666666675,-0.5042592592592593],[0.16593749999999996,-0.5318518518518518],[0.17312500000000006,-0.5081481481481481],[0.1803124999999999,-0.4844444444444445],[0.1803124999999999,-0.4844444444444445],[0.16395833333333343,-0.48462962962962963],[0.15374999999999991,-0.5124074074074074],[0.15374999999999991,-0.5124074074074074],[0.1462500000000001,-0.5448148148148148],[0.07760416666666667,-0.5625925925925926],[0.011354166666666643,-0.6094444444444445],[-0.04562499999999995,-0.6325925925925926],[-0.04562499999999995,-0.6325925925925926],[-0.0037500000000000237,-0.615925925925926],[0.00916666666666662,-0.5938888888888889],[0.024687500000000046,-0.5788888888888889],[0.01416666666666669,-0.5635185185185185],[0.008749999999999977,-0.5603703703703704],[0.01593749999999995,-0.49851851851851847],[0.01593749999999995,-0.49851851851851847],[0.02041666666666669,-0.43203703703703705],[0.042812500000000024,-0.42611111111111116],[0.07229166666666677,-0.3894444444444445],[0.07229166666666677,-0.3894444444444445],[0.10395833333333329,-0.357962962962963],[0.07520833333333338,-0.33499999999999996],[0.06302083333333333,-0.33851851851851855],[0.050833333333333286,-0.34203703703703703],[0.050833333333333286,-0.34203703703703703],[0.05343749999999995,-0.34981481481481475],[0.0671875,-0.3412962962962963],[0.044375000000000026,-0.3757407407407407],[0.016458333333333287,-0.4101851851851852],[0.004062499999999977,-0.4116666666666667],[0.0203125,-0.3894444444444445],[0.036458333333333336,-0.3605555555555555],[0.035416666666666666,-0.34759259259259256]]","[[0.12364583333333339,-0.09740740740740746,0.00010000002384202844],[0.12364583333333339,-0.09740740740740746,0.014700000017882076],[0.10510416666666676,-0.09981481481481477,0.0277000000178802],[0.10270833333333323,-0.06333333333333331,0.04440000000595745],[0.09020833333333324,0.007777777777777862,0.06370000001788156],[0.09020833333333324,0.007777777777777862,0.07780000001191922],[0.057395833333333354,-0.032037037037036954,0.09440000000596172],[0.01906249999999995,-0.10277777777777777,0.1147000000178835],[-0.004999999999999952,-0.14648148148148152,0.13140000000596075],[-0.011041666666666691,-0.20703703703703705,0.1457000000178823],[-0.017083333333333308,-0.2675925925925926,0.16140000000596189],[0.016770833333333356,-0.3066666666666667,0.1811000000238394],[0.04135416666666671,-0.3320370370370371,0.19710000002383765],[0.04135416666666671,-0.3320370370370371,0.21110000002384055],[0.028125,-0.33611111111111114,0.22800000000000153],[0.03104166666666662,-0.4179629629629629,0.2444000000059603],[0.033958333333333354,-0.49981481481481477,0.2639999999999958],[0.059687499999999956,-0.46814814814814815,0.2814000000059593],[0.11208333333333324,-0.41759259259259257,0.29740000000595757],[0.1734375,-0.3544444444444444,0.31099999999999994],[0.2209374999999999,-0.2814814814814815,0.3278000000119192],[0.26104166666666656,-0.19537037037037036,0.34899999999999665],[0.26104166666666656,-0.19537037037037036,0.361200000017881],[0.21458333333333332,-0.14055555555555552,0.3780000000000001],[0.20947916666666658,-0.07981481481481485,0.3948000000119194],[0.20041666666666677,-0.04407407407407399,0.41640000000595734],[0.1671875,0.00722222222222218,0.4312000000178813],[0.09458333333333328,0.05129629629629638,0.4482000000178772],[0.017916666666666713,0.0787037037037037,0.4666000000238384],[0.017916666666666713,0.0787037037037037,0.47790000000595967],[0.007083333333333286,0.13259259259259262,0.4946000000238442],[-0.0390625,0.13037037037037033,0.5176000000238403],[-0.0390625,0.13037037037037033,0.5279000000059568],[-0.09479166666666666,0.15722222222222218,0.5447000000178832],[-0.14854166666666668,0.16370370370370366,0.5612000000178838],[-0.1560416666666666,0.1814814814814815,0.5828000000119218],[-0.22010416666666663,0.19518518518518516,0.5985000000000014],[-0.22010416666666663,0.19518518518518516,0.6111000000238391],[-0.2513541666666666,0.21222222222222226,0.6278000000119164],[-0.25499999999999995,0.22481481481481477,0.6444000000059589],[-0.21927083333333333,0.24462962962962967,0.6617000000178805],[-0.1796875,0.2553703703703703,0.6823000000119208],[-0.21604166666666663,0.2368518518518518,0.6974000000059561],[-0.2616666666666667,0.2564814814814815,0.7126000000238406],[-0.2977083333333333,0.247037037037037,0.7279000000059597],[-0.33489583333333334,0.17240740740740745,0.7490000000000023],[-0.33489583333333334,0.17240740740740745,0.7612000000178796],[-0.3540625,0.17685185185185184,0.781700000017878],[-0.3540625,0.17685185185185184,0.8004999999999995],[-0.3609375,0.14074074074074075,0.8112000000178838],[-0.3538541666666667,0.08092592592592601,0.8278000000119192],[-0.38177083333333334,0.08833333333333342,0.8459000000059618],[-0.4096874999999999,0.09574074074074082,0.863600000023844],[-0.4096874999999999,0.09574074074074082,0.8779000000059582],[-0.4092708333333333,0.10425925925925918,0.8947000000178775],[-0.39718749999999997,0.09888888888888885,0.9179999999999993],[-0.39718749999999997,0.09888888888888885,0.9279000000059625],[-0.36656249999999996,0.11796296296296305,0.9446000000238399],[-0.31916666666666665,0.15129629629629637,0.9634999999999962],[-0.265625,0.22240740740740744,0.9837000000178833],[-0.265625,0.22240740740740744,0.9946000000238442],[-0.25729166666666664,0.22629629629629638,1.0113000000119214],[-0.26614583333333336,0.23666666666666658,1.0279000000059568],[-0.24125000000000002,0.297037037037037,1.0489000000059576],[-0.2107291666666666,0.2933333333333333,1.063400000005963],[-0.15843750000000004,0.29000000000000004,1.077900000005961],[-0.13010416666666663,0.28481481481481474,1.096600000023841],[-0.11989583333333335,0.3111111111111111,1.1137000000178787],[-0.10270833333333336,0.2887037037037037,1.1299000000059607],[-0.06229166666666662,0.2661111111111112,1.1445000000000007],[-0.021458333333333357,0.27814814814814826,1.1612000000178782],[0.012395833333333309,0.2448148148148149,1.1818000000119184],[0.0900000000000001,0.2601851851851852,1.1967000000178771],[0.11427083333333338,0.21944444444444444,1.2112000000178824],[0.1321875000000001,0.20333333333333325,1.2299000000059621],[0.1490624999999999,0.22111111111111106,1.249300000011921],[0.1490624999999999,0.22111111111111106,1.2612000000178796],[0.1618750000000001,0.20111111111111116,1.2779000000059568],[0.1618750000000001,0.20111111111111116,1.2965000000000018],[0.2163541666666667,0.19185185185185188,1.311],[0.2608333333333334,0.16296296296296298,1.3279999999999959],[0.23302083333333337,0.12629629629629638,1.3459999999999965],[0.19666666666666663,0.10740740740740741,1.360999999999997],[0.19666666666666663,0.10740740740740741,1.3777000000178816],[0.1944791666666667,0.122037037037037,1.3969999999999985],[0.20739583333333325,0.1331481481481481,1.415200000017883],[0.25104166666666666,0.15129629629629637,1.4302000000178836],[0.29697916666666657,0.16833333333333328,1.444400000005956],[0.28927083333333337,0.15907407407407403,1.4639000000059568],[0.315625,0.17555555555555546,1.4804999999999993],[0.3336458333333333,0.16814814814814807,1.4943000000119184],[0.3146874999999999,0.19722222222222222,1.5129999999999981],[0.32802083333333343,0.21999999999999992,1.528500000000001],[0.32802083333333343,0.21999999999999992,1.5444000000059575],[0.39947916666666666,0.23925925925925934,1.561100000023842],[0.4365624999999999,0.24814814814814815,1.5782000000178797],[0.43208333333333326,0.24592592592592585,1.596400000005957],[0.44500000000000006,0.24888888888888885,1.610999999999997],[0.4556250000000001,0.252962962962963,1.6304999999999978],[0.4796875,0.244074074074074,1.6444000000059589],[0.47374999999999995,0.24722222222222223,1.6610000000000014],[0.4544791666666666,0.23296296296296287,1.6809000000059626],[0.4544791666666666,0.23296296296296287,1.694400000005956],[0.46822916666666664,0.22314814814814815,1.7109999999999985],[0.46687500000000004,0.23740740740740748,1.727700000017883],[0.44208333333333344,0.2511111111111112,1.7488000000119186],[0.43864583333333323,0.24611111111111106,1.7642000000178797],[0.42552083333333335,0.22074074074074082,1.780200000017878],[0.3950000000000001,0.19018518518518526,1.7983000000119205],[0.38614583333333335,0.20629629629629626,1.8134999999999977],[0.3967708333333334,0.22740740740740734,1.8319000000059589],[0.3692708333333333,0.20666666666666672,1.847200000017878],[0.3619791666666667,0.1816666666666667,1.863500000000002],[0.3619791666666667,0.1816666666666667,1.8778000000119164],[0.33781249999999996,0.20037037037037045,1.8947000000178775],[0.28885416666666663,0.1844444444444445,1.916700000017883],[0.2686458333333334,0.10907407407407403,1.930700000017879],[0.2243750000000001,0.12981481481481486,1.9457000000178795],[0.19260416666666677,0.169074074074074,1.9642000000178825],[0.13052083333333328,0.19129629629629621,1.9802000000178808],[0.13052083333333328,0.19129629629629621,1.9944000000059603],[0.05916666666666662,0.13851851851851843,2.0109999999999957],[0.03083333333333336,0.0816666666666667,2.02770000001788],[0.019166666666666644,0.08870370370370366,2.048800000011923],[-0.014583333333333334,0.16074074074074066,2.062700000017884],[-0.034062500000000044,0.15722222222222218,2.0778000000119192],[-0.013645833333333357,0.16425925925925935,2.0961000000238386],[-0.06072916666666662,0.20555555555555555,2.1129999999999995],[-0.03270833333333331,0.15685185185185194,2.130300000011921],[-0.02520833333333338,0.1124074074074075,2.1445000000000007],[0.01260416666666669,0.08499999999999996,2.1670000000000016],[0.01260416666666669,0.08499999999999996,2.1778000000119206],[0.049687500000000044,0.07574074074074069,2.19460000002384],[0.049687500000000044,0.07574074074074069,2.2134000000059615],[0.06124999999999995,0.0625925925925925,2.2280000000000015],[0.08604166666666657,0.04537037037037037,2.2449999999999974],[0.10927083333333343,-0.016851851851851896,2.2664000000059588],[0.10927083333333343,-0.016851851851851896,2.277900000005957],[0.09593749999999991,-0.027222222222222307,2.2944000000059575],[0.11437499999999995,-0.0514814814814814,2.311100000023842],[0.14541666666666658,-0.06425925925925924,2.3277000000178774],[0.10791666666666658,-0.01574074074074074,2.3474999999999966],[0.10791666666666658,-0.01574074074074074,2.360999999999997],[0.09093749999999995,0.028518518518518478,2.3778000000119164],[0.12166666666666662,0.04055555555555551,2.3978000000119195],[0.07510416666666657,0.04129629629629621,2.4162000000178807],[0.011041666666666691,0.05,2.4311000000238394],[0.017499999999999953,0.08259259259259263,2.4458000000119213],[0.023958333333333335,0.11518518518518527,2.4624000000059567],[0.04885416666666664,0.10833333333333334,2.4802000000178808],[0.019895833333333356,0.1359259259259259,2.494800000011921],[-0.002812500000000047,0.1301851851851851,2.513800000011919],[0.004999999999999952,0.08611111111111111,2.5329000000059594],[0.05375000000000003,0.03888888888888889,2.547100000023839],[0.05479166666666669,0.02388888888888885,2.5614000000059605],[0.12145833333333324,0.03037037037037033,2.577900000005961],[0.1462500000000001,0.0764814814814814,2.5993000000119224],[0.12083333333333333,0.0492592592592593,2.615100000023844],[0.09541666666666657,0.022037037037036994,2.63060000002384],[0.10385416666666672,0.018518518518518517,2.646100000023843],[0.134375,-0.005555555555555556,2.6663000000119226],[0.134375,-0.005555555555555556,2.6779000000059625],[0.12687499999999996,-0.049629629629629544,2.694499999999998],[0.10750000000000005,-0.06314814814814819,2.7111000000238406],[0.04718749999999995,-0.0735185185185185,2.7304000000059574],[0.010208333333333286,-0.06722222222222224,2.7498000000119234],[-0.03968750000000002,-0.01592592592592597,2.7644000000059563],[-0.024166666666666715,-0.03796296296296296,2.7834000000059618],[-0.024166666666666715,-0.03796296296296296,2.7944999999999993],[-0.027187500000000024,-0.04944444444444453,2.811200000017884],[-0.049479166666666664,-0.024074074074074074,2.827900000005961],[-0.075,-0.03851851851851843,2.848900000005962],[-0.075,-0.03851851851851843,2.861200000017881],[-0.08937499999999995,-0.05870370370370368,2.8779000000059582],[-0.08770833333333337,-0.036481481481481566,2.900500000000001],[-0.08770833333333337,-0.036481481481481566,2.911200000017878],[-0.07270833333333329,-0.01703703703703712,2.9279000000059625],[-0.06635416666666671,0.015555555555555513,2.944499999999998],[-0.08333333333333333,0.03148148148148148,2.969999999999999],[-0.08333333333333333,0.03148148148148148,2.977800000011918],[-0.08041666666666672,-0.006666666666666709,2.994700000017879],[-0.09510416666666661,-0.04333333333333329,3.0135000000000005],[-0.10333333333333337,-0.05907407407407403,3.031500000000001],[-0.0782291666666667,-0.12981481481481486,3.0465000000000018],[-0.07270833333333329,-0.14888888888888885,3.0616000000238444],[-0.07593749999999998,-0.167037037037037,3.0778000000119192],[-0.06343749999999998,-0.1742592592592593,3.0993000000119224],[-0.06343749999999998,-0.1742592592592593,3.111200000017881],[-0.03916666666666669,-0.17888888888888893,3.128100000023842],[-0.010000000000000024,-0.21796296296296294,3.145800000011917],[0.019166666666666644,-0.25703703703703706,3.1671000000238436],[0.019166666666666644,-0.25703703703703706,3.1778000000119206],[0.014479166666666644,-0.3333333333333333,3.194400000005956],[0.04208333333333331,-0.32333333333333336,3.2111000000238406],[0.0978125000000001,-0.2633333333333333,3.227700000017883],[0.11177083333333329,-0.21148148148148146,3.2449999999999974],[0.11677083333333324,-0.21500000000000005,3.2635000000000005],[0.11677083333333324,-0.21500000000000005,3.27770000001788],[0.1234375,-0.22259259259259256,3.2944000000059575],[0.13739583333333344,-0.20462962962962963,3.311],[0.12958333333333344,-0.21222222222222226,3.3277000000178774],[0.1271874999999999,-0.24981481481481477,3.346400000005957],[0.1352083333333333,-0.26592592592592595,3.360999999999997],[0.1352083333333333,-0.26592592592592595,3.3777000000178816],[0.1701041666666666,-0.23574074074074075,3.394400000005959],[0.1396874999999999,-0.30388888888888893,3.4110000000000014],[0.08114583333333343,-0.422037037037037,3.4303000000119184],[0.08114583333333343,-0.422037037037037,3.4443000000119213],[0.06875,-0.4777777777777778,3.4609999999999985],[0.09281249999999991,-0.4824074074074074,3.477800000011918],[0.11281249999999995,-0.4781481481481481,3.4943000000119184],[0.14072916666666657,-0.4853703703703704,3.513800000011919],[0.17718749999999991,-0.49740740740740746,3.5304000000059617],[0.17718749999999991,-0.49740740740740746,3.5443000000119227],[0.20052083333333334,-0.4766666666666666,3.561],[0.18322916666666675,-0.5042592592592593,3.5776000000238426],[0.16593749999999996,-0.5318518518518518,3.5969000000059594],[0.17312500000000006,-0.5081481481481481,3.613300000011918],[0.1803124999999999,-0.4844444444444445,3.6331000000238376],[0.1803124999999999,-0.4844444444444445,3.644300000011917],[0.16395833333333343,-0.48462962962962963,3.6610000000000014],[0.15374999999999991,-0.5124074074074074,3.6808000000119208],[0.15374999999999991,-0.5124074074074074,3.6943000000119213],[0.1462500000000001,-0.5448148148148148,3.7109999999999985],[0.07760416666666667,-0.5625925925925926,3.727600000023841],[0.011354166666666643,-0.6094444444444445,3.7443000000119184],[-0.04562499999999995,-0.6325925925925926,3.764100000023838],[-0.04562499999999995,-0.6325925925925926,3.7776000000238383],[-0.0037500000000000237,-0.615925925925926,3.7944000000059575],[0.00916666666666662,-0.5938888888888889,3.811],[0.024687500000000046,-0.5788888888888889,3.8277000000178774],[0.01416666666666669,-0.5635185185185185,3.846600000023841],[0.008749999999999977,-0.5603703703703704,3.862600000023839],[0.01593749999999995,-0.49851851851851847,3.8825000000000003],[0.01593749999999995,-0.49851851851851847,3.894400000005959],[0.02041666666666669,-0.43203703703703705,3.9111000000238434],[0.042812500000000024,-0.42611111111111116,3.9299999999999997],[0.07229166666666677,-0.3894444444444445,3.946700000017877],[0.07229166666666677,-0.3894444444444445,3.9609999999999985],[0.10395833333333329,-0.357962962962963,3.977700000017883],[0.07520833333333338,-0.33499999999999996,3.9994999999999976],[0.06302083333333333,-0.33851851851851855,4.01420000001788],[0.050833333333333286,-0.34203703703703703,4.029600000023841],[0.050833333333333286,-0.34203703703703703,4.044300000011923],[0.05343749999999995,-0.34981481481481475,4.061100000023842],[0.0671875,-0.3412962962962963,4.077600000023843],[0.044375000000000026,-0.3757407407407407,4.097000000000001],[0.016458333333333287,-0.4101851851851852,4.1123000000119205],[0.004062499999999977,-0.4116666666666667,4.129400000005958],[0.0203125,-0.3894444444444445,4.144600000023843],[0.036458333333333336,-0.3605555555555555,4.161100000023843],[0.035416666666666666,-0.34759259259259256,4.180999999999997]]","[0.00010000002384202844,0.014700000017882076,0.0277000000178802,0.04440000000595745,0.06370000001788156,0.07780000001191922,0.09440000000596172,0.1147000000178835,0.13140000000596075,0.1457000000178823,0.16140000000596189,0.1811000000238394,0.19710000002383765,0.21110000002384055,0.22800000000000153,0.2444000000059603,0.2639999999999958,0.2814000000059593,0.29740000000595757,0.31099999999999994,0.3278000000119192,0.34899999999999665,0.361200000017881,0.3780000000000001,0.3948000000119194,0.41640000000595734,0.4312000000178813,0.4482000000178772,0.4666000000238384,0.47790000000595967,0.4946000000238442,0.5176000000238403,0.5279000000059568,0.5447000000178832,0.5612000000178838,0.5828000000119218,0.5985000000000014,0.6111000000238391,0.6278000000119164,0.6444000000059589,0.6617000000178805,0.6823000000119208,0.6974000000059561,0.7126000000238406,0.7279000000059597,0.7490000000000023,0.7612000000178796,0.781700000017878,0.8004999999999995,0.8112000000178838,0.8278000000119192,0.8459000000059618,0.863600000023844,0.8779000000059582,0.8947000000178775,0.9179999999999993,0.9279000000059625,0.9446000000238399,0.9634999999999962,0.9837000000178833,0.9946000000238442,1.0113000000119214,1.0279000000059568,1.0489000000059576,1.063400000005963,1.077900000005961,1.096600000023841,1.1137000000178787,1.1299000000059607,1.1445000000000007,1.1612000000178782,1.1818000000119184,1.1967000000178771,1.2112000000178824,1.2299000000059621,1.249300000011921,1.2612000000178796,1.2779000000059568,1.2965000000000018,1.311,1.3279999999999959,1.3459999999999965,1.360999999999997,1.3777000000178816,1.3969999999999985,1.415200000017883,1.4302000000178836,1.444400000005956,1.4639000000059568,1.4804999999999993,1.4943000000119184,1.5129999999999981,1.528500000000001,1.5444000000059575,1.561100000023842,1.5782000000178797,1.596400000005957,1.610999999999997,1.6304999999999978,1.6444000000059589,1.6610000000000014,1.6809000000059626,1.694400000005956,1.7109999999999985,1.727700000017883,1.7488000000119186,1.7642000000178797,1.780200000017878,1.7983000000119205,1.8134999999999977,1.8319000000059589,1.847200000017878,1.863500000000002,1.8778000000119164,1.8947000000178775,1.916700000017883,1.930700000017879,1.9457000000178795,1.9642000000178825,1.9802000000178808,1.9944000000059603,2.0109999999999957,2.02770000001788,2.048800000011923,2.062700000017884,2.0778000000119192,2.0961000000238386,2.1129999999999995,2.130300000011921,2.1445000000000007,2.1670000000000016,2.1778000000119206,2.19460000002384,2.2134000000059615,2.2280000000000015,2.2449999999999974,2.2664000000059588,2.277900000005957,2.2944000000059575,2.311100000023842,2.3277000000178774,2.3474999999999966,2.360999999999997,2.3778000000119164,2.3978000000119195,2.4162000000178807,2.4311000000238394,2.4458000000119213,2.4624000000059567,2.4802000000178808,2.494800000011921,2.513800000011919,2.5329000000059594,2.547100000023839,2.5614000000059605,2.577900000005961,2.5993000000119224,2.615100000023844,2.63060000002384,2.646100000023843,2.6663000000119226,2.6779000000059625,2.694499999999998,2.7111000000238406,2.7304000000059574,2.7498000000119234,2.7644000000059563,2.7834000000059618,2.7944999999999993,2.811200000017884,2.827900000005961,2.848900000005962,2.861200000017881,2.8779000000059582,2.900500000000001,2.911200000017878,2.9279000000059625,2.944499999999998,2.969999999999999,2.977800000011918,2.994700000017879,3.0135000000000005,3.031500000000001,3.0465000000000018,3.0616000000238444,3.0778000000119192,3.0993000000119224,3.111200000017881,3.128100000023842,3.145800000011917,3.1671000000238436,3.1778000000119206,3.194400000005956,3.2111000000238406,3.227700000017883,3.2449999999999974,3.2635000000000005,3.27770000001788,3.2944000000059575,3.311,3.3277000000178774,3.346400000005957,3.360999999999997,3.3777000000178816,3.394400000005959,3.4110000000000014,3.4303000000119184,3.4443000000119213,3.4609999999999985,3.477800000011918,3.4943000000119184,3.513800000011919,3.5304000000059617,3.5443000000119227,3.561,3.5776000000238426,3.5969000000059594,3.613300000011918,3.6331000000238376,3.644300000011917,3.6610000000000014,3.6808000000119208,3.6943000000119213,3.7109999999999985,3.727600000023841,3.7443000000119184,3.764100000023838,3.7776000000238383,3.7944000000059575,3.811,3.8277000000178774,3.846600000023841,3.862600000023839,3.8825000000000003,3.894400000005959,3.9111000000238434,3.9299999999999997,3.946700000017877,3.9609999999999985,3.977700000017883,3.9994999999999976,4.01420000001788,4.029600000023841,4.044300000011923,4.061100000023842,4.077600000023843,4.097000000000001,4.1123000000119205,4.129400000005958,4.144600000023843,4.161100000023843,4.180999999999997]","[1732768652087,1732768652101,1732768652114,1732768652131,1732768652150,1732768652164,1732768652181,1732768652201,1732768652217,1732768652232,1732768652247,1732768652267,1732768652283,1732768652297,1732768652314,1732768652330,1732768652350,1732768652367,1732768652383,1732768652397,1732768652414,1732768652435,1732768652447,1732768652464,1732768652481,1732768652503,1732768652517,1732768652534,1732768652553,1732768652564,1732768652581,1732768652604,1732768652614,1732768652631,1732768652647,1732768652669,1732768652685,1732768652697,1732768652714,1732768652730,1732768652748,1732768652768,1732768652783,1732768652799,1732768652814,1732768652835,1732768652847,1732768652868,1732768652887,1732768652897,1732768652914,1732768652932,1732768652950,1732768652964,1732768652981,1732768653004,1732768653014,1732768653031,1732768653050,1732768653070,1732768653081,1732768653097,1732768653114,1732768653135,1732768653149,1732768653164,1732768653183,1732768653200,1732768653216,1732768653231,1732768653247,1732768653268,1732768653283,1732768653297,1732768653316,1732768653335,1732768653347,1732768653364,1732768653383,1732768653397,1732768653414,1732768653432,1732768653447,1732768653464,1732768653483,1732768653501,1732768653516,1732768653531,1732768653550,1732768653567,1732768653580,1732768653599,1732768653615,1732768653631,1732768653647,1732768653664,1732768653682,1732768653697,1732768653717,1732768653730,1732768653747,1732768653767,1732768653781,1732768653797,1732768653814,1732768653835,1732768653850,1732768653866,1732768653884,1732768653900,1732768653918,1732768653933,1732768653950,1732768653964,1732768653981,1732768654003,1732768654017,1732768654032,1732768654050,1732768654066,1732768654080,1732768654097,1732768654114,1732768654135,1732768654149,1732768654164,1732768654182,1732768654199,1732768654216,1732768654231,1732768654253,1732768654264,1732768654281,1732768654300,1732768654314,1732768654331,1732768654352,1732768654364,1732768654381,1732768654397,1732768654414,1732768654434,1732768654447,1732768654464,1732768654484,1732768654502,1732768654517,1732768654532,1732768654548,1732768654566,1732768654581,1732768654600,1732768654619,1732768654633,1732768654648,1732768654664,1732768654685,1732768654701,1732768654717,1732768654732,1732768654752,1732768654764,1732768654781,1732768654797,1732768654817,1732768654836,1732768654851,1732768654870,1732768654881,1732768654897,1732768654914,1732768654935,1732768654947,1732768654964,1732768654987,1732768654997,1732768655014,1732768655031,1732768655056,1732768655064,1732768655081,1732768655100,1732768655118,1732768655133,1732768655148,1732768655164,1732768655185,1732768655197,1732768655214,1732768655232,1732768655253,1732768655264,1732768655281,1732768655297,1732768655314,1732768655331,1732768655350,1732768655364,1732768655380,1732768655397,1732768655414,1732768655433,1732768655447,1732768655464,1732768655481,1732768655497,1732768655516,1732768655530,1732768655547,1732768655564,1732768655580,1732768655600,1732768655616,1732768655630,1732768655647,1732768655664,1732768655683,1732768655699,1732768655719,1732768655730,1732768655747,1732768655767,1732768655780,1732768655797,1732768655814,1732768655830,1732768655850,1732768655864,1732768655881,1732768655897,1732768655914,1732768655933,1732768655949,1732768655969,1732768655980,1732768655997,1732768656016,1732768656033,1732768656047,1732768656064,1732768656086,1732768656100,1732768656116,1732768656130,1732768656147,1732768656164,1732768656183,1732768656198,1732768656216,1732768656231,1732768656247,1732768656267]","[[1078.7,487.4],[1078.7,487.4],[1060.9,486.1],[1058.6,505.8],[1046.6,544.2],[1046.6,544.2],[1015.1,522.7],[978.3,484.5],[955.2,460.9],[949.4,428.2],[943.6,395.5],[976.1,374.4],[999.7,360.7],[999.7,360.7],[987,358.5],[989.8,314.3],[992.6,270.1],[1017.3,287.2],[1067.6,314.5],[1126.5,348.6],[1172.1,388],[1210.6,434.5],[1210.6,434.5],[1166,464.1],[1161.1,496.9],[1152.4,516.2],[1120.5,543.9],[1050.8,567.7],[977.2,582.5],[977.2,582.5],[966.8,611.6],[922.5,610.4],[922.5,610.4],[869,624.9],[817.4,628.4],[810.2,638],[748.7,645.4],[748.7,645.4],[718.7,654.6],[715.2,661.4],[749.5,672.1],[787.5,677.9],[752.6,667.9],[708.8,678.5],[674.2,673.4],[638.5,633.1],[638.5,633.1],[620.1,635.5],[620.1,635.5],[613.5,616],[620.3,583.7],[593.5,587.7],[566.7,591.7],[566.7,591.7],[567.1,596.3],[578.7,593.4],[578.7,593.4],[608.1,603.7],[653.6,621.7],[705,660.1],[705,660.1],[713,662.2],[704.5,667.8],[728.4,700.4],[757.7,698.4],[807.9,696.6],[835.1,693.8],[844.9,708],[861.4,695.9],[900.2,683.7],[939.4,690.2],[971.9,672.2],[1046.4,680.5],[1069.7,658.5],[1086.9,649.8],[1103.1,659.4],[1103.1,659.4],[1115.4,648.6],[1115.4,648.6],[1167.7,643.6],[1210.4,628],[1183.7,608.2],[1148.8,598],[1148.8,598],[1146.7,605.9],[1159.1,611.9],[1201,621.7],[1245.1,630.9],[1237.7,625.9],[1263,634.8],[1280.3,630.8],[1262.1,646.5],[1274.9,658.8],[1274.9,658.8],[1343.5,669.2],[1379.1,674],[1374.8,672.8],[1387.2,674.4],[1397.4,676.6],[1420.5,671.8],[1414.8,673.5],[1396.3,665.8],[1396.3,665.8],[1409.5,660.5],[1408.2,668.2],[1384.4,675.6],[1381.1,672.9],[1368.5,659.2],[1339.2,642.7],[1330.7,651.4],[1340.9,662.8],[1314.5,651.6],[1307.5,638.1],[1307.5,638.1],[1284.3,648.2],[1237.3,639.6],[1217.9,598.9],[1175.4,610.1],[1144.9,631.3],[1085.3,643.3],[1085.3,643.3],[1016.8,614.8],[989.6,584.1],[978.4,587.9],[946,626.8],[927.3,624.9],[946.9,628.7],[901.7,651],[928.6,624.7],[935.8,600.7],[972.1,585.9],[972.1,585.9],[1007.7,580.9],[1007.7,580.9],[1018.8,573.8],[1042.6,564.5],[1064.9,530.9],[1064.9,530.9],[1052.1,525.3],[1069.8,512.2],[1099.6,505.3],[1063.6,531.5],[1063.6,531.5],[1047.3,555.4],[1076.8,561.9],[1032.1,562.3],[970.6,567],[976.8,584.6],[983,602.2],[1006.9,598.5],[979.1,613.4],[957.3,610.3],[964.8,586.5],[1011.6,561],[1012.6,552.9],[1076.6,556.4],[1100.4,581.3],[1076,566.6],[1051.6,551.9],[1059.7,550],[1089,537],[1089,537],[1081.8,513.2],[1063.2,505.9],[1005.3,500.3],[969.8,503.7],[921.9,531.4],[936.8,519.5],[936.8,519.5],[933.9,513.3],[912.5,527],[888,519.2],[888,519.2],[874.2,508.3],[875.8,520.3],[875.8,520.3],[890.2,530.8],[896.3,548.4],[880,557],[880,557],[882.8,536.4],[868.7,516.6],[860.8,508.1],[884.9,469.9],[890.2,459.6],[887.1,449.8],[899.1,445.9],[899.1,445.9],[922.4,443.4],[950.4,422.3],[978.4,401.2],[978.4,401.2],[973.9,360],[1000.4,365.4],[1053.9,397.8],[1067.3,425.8],[1072.1,423.9],[1072.1,423.9],[1078.5,419.8],[1091.9,429.5],[1084.4,425.4],[1082.1,405.1],[1089.8,396.4],[1089.8,396.4],[1123.3,412.7],[1094.1,375.9],[1037.9,312.1],[1037.9,312.1],[1026,282],[1049.1,279.5],[1068.3,281.8],[1095.1,277.9],[1130.1,271.4],[1130.1,271.4],[1152.5,282.6],[1135.9,267.7],[1119.3,252.8],[1126.2,265.6],[1133.1,278.4],[1133.1,278.4],[1117.4,278.3],[1107.6,263.3],[1107.6,263.3],[1100.4,245.8],[1034.5,236.2],[970.9,210.9],[916.2,198.4],[916.2,198.4],[956.4,207.4],[968.8,219.3],[983.7,227.4],[973.6,235.7],[968.4,237.4],[975.3,270.8],[975.3,270.8],[979.6,306.7],[1001.1,309.9],[1029.4,329.7],[1029.4,329.7],[1059.8,346.7],[1032.2,359.1],[1020.5,357.2],[1008.8,355.3],[1008.8,355.3],[1011.3,351.1],[1024.5,355.7],[1002.6,337.1],[975.8,318.5],[963.9,317.7],[979.5,329.7],[995,345.3],[994,352.3]]","[0,0.3527331528]","[0.3527331528,0.3527331528]","[-0.3527331528,-0.3527331528]","[-0.3527331528,0]","[0,-0.3527331528]","[0.3527331528,-0.3527331528]","[0,0]","[0.3527331528,0]",0,1,1,1,1,2,Tablet,13,7,11,1
