inst1_resp.keys,inst1_resp.rt,calibrationMouse.x,calibrationMouse.y,calibrationMouse.leftButton,calibrationMouse.midButton,calibrationMouse.rightButton,calibrationClick.x,calibrationClick.y,calibrationClick.leftButton,calibrationClick.midButton,calibrationClick.rightButton,trialsc.thisRepN,trialsc.thisTrialN,trialsc.thisN,trialsc.thisIndex,trialsc.ran,calibration_x,calibration_y,participant,session,date,expName,psychopyVersion,OS,frameRate,calibrationClick.clicked_name,ScreenRes_pixels,mouse_2.x,mouse_2.y,mouse_2.leftButton,mouse_2.midButton,mouse_2.rightButton,mouse_2.time,mouse_2.clicked_name,Camera_pixels,mouse.x,mouse.y,mouse.leftButton,mouse.midButton,mouse.rightButton,mouse.time,mouse.clicked_name,Choice,Trial,TrialDuration,MOUSE_GAZE,ET_GAZE,ET_GAZE_x_T,time,unixTime,ET_GAZE_NF,Loc_Option1_label,Loc_Option2_label,Loc_Cost_label,Loc_Qual_label,Loc_Option1_cost,Loc_Option2_cost,Loc_Option1_quality,Loc_Option2_quality,trials.thisRepN,trials.thisTrialN,trials.thisN,trials.thisIndex,trials.ran,Block,Device,cost1,qual1,cost2,qual2
space,1.552,0.009375,-0.148148148,1,0,0,-0.682291667,0.309259259,1,0,0,0,0,0,3,1,-0.67,0.33,30,001,2024-12-02_13h32.27.691,Attention_exp_legacy,2023.1.0,Win32,60.60606061,,,,,,,,,,,,,,,,,,,,,,,,,,,,,,,,,,,,,,,,,,,,,
,,,,,,,0.333333333,-0.709259259,1,0,0,0,1,1,14,1,0.33,-0.67,30,001,2024-12-02_13h32.27.691,Attention_exp_legacy,2023.1.0,Win32,60.60606061,,,,,,,,,,,,,,,,,,,,,,,,,,,,,,,,,,,,,,,,,,,,,
,,,,,,,0.339583333,-0.698148148,1,0,0,0,2,2,13,1,0,0.67,30,001,2024-12-02_13h32.27.691,Attention_exp_legacy,2023.1.0,Win32,60.60606061,,,,,,,,,,,,,,,,,,,,,,,,,,,,,,,,,,,,,,,,,,,,,
,,,,,,,-0.305208333,0.642592593,1,0,0,0,3,3,8,1,-0.33,0.67,30,001,2024-12-02_13h32.27.691,Attention_exp_legacy,2023.1.0,Win32,60.60606061,,,,,,,,,,,,,,,,,,,,,,,,,,,,,,,,,,,,,,,,,,,,,
,,,,,,,-0.002083333,-0.005555556,1,0,0,0,4,4,11,1,0,0,30,001,2024-12-02_13h32.27.691,Attention_exp_legacy,2023.1.0,Win32,60.60606061,calibration_square,,,,,,,,,,,,,,,,,,,,,,,,,,,,,,,,,,,,,,,,,,,,
,,,,,,,-0.320833333,0.02037037,1,0,0,0,5,5,6,1,-0.33,0,30,001,2024-12-02_13h32.27.691,Attention_exp_legacy,2023.1.0,Win32,60.60606061,,,,,,,,,,,,,,,,,,,,,,,,,,,,,,,,,,,,,,,,,,,,,
,,,,,,,-0.691666667,-0.301851852,1,0,0,0,6,6,1,1,-0.67,-0.33,30,001,2024-12-02_13h32.27.691,Attention_exp_legacy,2023.1.0,Win32,60.60606061,,,,,,,,,,,,,,,,,,,,,,,,,,,,,,,,,,,,,,,,,,,,,
,,,,,,,0.710416667,-0.714814815,1,0,0,0,7,7,20,1,0.67,-0.67,30,001,2024-12-02_13h32.27.691,Attention_exp_legacy,2023.1.0,Win32,60.60606061,,,,,,,,,,,,,,,,,,,,,,,,,,,,,,,,,,,,,,,,,,,,,
,,,,,,,0.040625,-0.27962963,1,0,0,0,8,8,10,1,0,-0.33,30,001,2024-12-02_13h32.27.691,Attention_exp_legacy,2023.1.0,Win32,60.60606061,,,,,,,,,,,,,,,,,,,,,,,,,,,,,,,,,,,,,,,,,,,,,
,,,,,,,0.411458333,0.646296296,1,0,0,0,9,9,18,1,0.33,0.67,30,001,2024-12-02_13h32.27.691,Attention_exp_legacy,2023.1.0,Win32,60.60606061,,,,,,,,,,,,,,,,,,,,,,,,,,,,,,,,,,,,,,,,,,,,,
,,,,,,,-0.427083333,0.388888889,1,0,0,0,10,10,7,1,-0.33,0.33,30,001,2024-12-02_13h32.27.691,Attention_exp_legacy,2023.1.0,Win32,60.60606061,,,,,,,,,,,,,,,,,,,,,,,,,,,,,,,,,,,,,,,,,,,,,
,,,,,,,-0.239583333,-0.418518519,1,0,0,0,11,11,5,1,-0.33,-0.33,30,001,2024-12-02_13h32.27.691,Attention_exp_legacy,2023.1.0,Win32,60.60606061,,,,,,,,,,,,,,,,,,,,,,,,,,,,,,,,,,,,,,,,,,,,,
,,,,,,,0.288541667,0.009259259,1,0,0,0,12,12,16,1,0.33,0,30,001,2024-12-02_13h32.27.691,Attention_exp_legacy,2023.1.0,Win32,60.60606061,,,,,,,,,,,,,,,,,,,,,,,,,,,,,,,,,,,,,,,,,,,,,
,,,,,,,-0.289583333,-0.687037037,1,0,0,0,13,13,4,1,-0.33,-0.67,30,001,2024-12-02_13h32.27.691,Attention_exp_legacy,2023.1.0,Win32,60.60606061,,,,,,,,,,,,,,,,,,,,,,,,,,,,,,,,,,,,,,,,,,,,,
,,,,,,,0.701041667,0.627777778,1,0,0,0,14,14,19,1,0.67,0.67,30,001,2024-12-02_13h32.27.691,Attention_exp_legacy,2023.1.0,Win32,60.60606061,,,,,,,,,,,,,,,,,,,,,,,,,,,,,,,,,,,,,,,,,,,,,
,,,,,,,0.048958333,-0.738888889,1,0,0,0,15,15,9,1,0,-0.67,30,001,2024-12-02_13h32.27.691,Attention_exp_legacy,2023.1.0,Win32,60.60606061,,,,,,,,,,,,,,,,,,,,,,,,,,,,,,,,,,,,,,,,,,,,,
,,,,,,,0.3,-0.294444444,1,0,0,0,16,16,15,1,0.33,-0.33,30,001,2024-12-02_13h32.27.691,Attention_exp_legacy,2023.1.0,Win32,60.60606061,,,,,,,,,,,,,,,,,,,,,,,,,,,,,,,,,,,,,,,,,,,,,
,,,,,,,-0.015625,0.35,1,0,0,0,17,17,12,1,0,0.33,30,001,2024-12-02_13h32.27.691,Attention_exp_legacy,2023.1.0,Win32,60.60606061,,,,,,,,,,,,,,,,,,,,,,,,,,,,,,,,,,,,,,,,,,,,,
,,,,,,,-0.634375,-0.035185185,1,0,0,0,18,18,2,1,-0.67,0,30,001,2024-12-02_13h32.27.691,Attention_exp_legacy,2023.1.0,Win32,60.60606061,,,,,,,,,,,,,,,,,,,,,,,,,,,,,,,,,,,,,,,,,,,,,
,,,,,,,0.435416667,0.383333333,1,0,0,0,19,19,17,1,0.33,0.33,30,001,2024-12-02_13h32.27.691,Attention_exp_legacy,2023.1.0,Win32,60.60606061,,,,,,,,,,,,,,,,,,,,,,,,,,,,,,,,,,,,,,,,,,,,,
,,,,,,,-0.716666667,-0.701851852,1,0,0,0,20,20,0,1,-0.67,-0.67,30,001,2024-12-02_13h32.27.691,Attention_exp_legacy,2023.1.0,Win32,60.60606061,,,,,,,,,,,,,,,,,,,,,,,,,,,,,,,,,,,,,,,,,,,,,
,,,,,,,,,,,,,,,,,,,30,001,2024-12-02_13h32.27.691,Attention_exp_legacy,2023.1.0,Win32,60.60606061,,"[1920,1080]",[0.05625],[-0.5074074074074074],[1],[0],[0],[0.91440000000037],"[""StartButton""]","[640,480]",[0.046875],[0.39814814814814814],[1],[0],[0],[1.905300000000743],"[""Option1_label""]",Option1_label,1,2.9131,"[[-0.1375,-0.5796296296296296],[-0.15104166666666666,-0.6129629629629629],[-0.15208333333333332,-0.6203703703703703],[-0.15208333333333332,-0.6222222222222222],[-0.15208333333333332,-0.6222222222222222],[-0.15208333333333332,-0.6222222222222222],[-0.14166666666666666,-0.6240740740740741],[-0.08854166666666667,-0.5722222222222222],[-0.010416666666666666,-0.48518518518518516],[0.059375,-0.38333333333333336],[0.11770833333333333,-0.2777777777777778],[0.16041666666666668,-0.1925925925925926],[0.18229166666666666,-0.13333333333333333],[0.190625,-0.08333333333333333],[0.19270833333333334,-0.04814814814814815],[0.19270833333333334,-0.025925925925925925],[0.19270833333333334,-0.020370370370370372],[0.19270833333333334,-0.011111111111111112],[0.184375,0.001851851851851852],[0.17604166666666668,0.009259259259259259],[0.1625,0.018518518518518517],[0.15416666666666667,0.025925925925925925],[0.14270833333333333,0.02962962962962963],[0.13020833333333334,0.03518518518518519],[0.12083333333333333,0.037037037037037035],[0.11041666666666666,0.037037037037037035],[0.10833333333333334,0.037037037037037035],[0.10729166666666666,0.037037037037037035],[0.10416666666666667,0.037037037037037035],[0.10416666666666667,0.03888888888888889],[0.103125,0.03888888888888889],[0.10208333333333333,0.03888888888888889],[0.10104166666666667,0.040740740740740744],[0.10104166666666667,0.046296296296296294],[0.1,0.053703703703703705],[0.09895833333333333,0.06111111111111111],[0.096875,0.07222222222222222],[0.09270833333333334,0.09259259259259259],[0.08958333333333333,0.11481481481481481],[0.08645833333333333,0.13703703703703704],[0.08229166666666667,0.16111111111111112],[0.078125,0.18703703703703703],[0.07395833333333333,0.20925925925925926],[0.07291666666666667,0.23333333333333334],[0.07083333333333333,0.2518518518518518],[0.07083333333333333,0.2740740740740741],[0.07083333333333333,0.29444444444444445],[0.07083333333333333,0.3111111111111111],[0.07083333333333333,0.32222222222222224],[0.07083333333333333,0.3314814814814815],[0.07083333333333333,0.3351851851851852],[0.07083333333333333,0.3388888888888889],[0.07083333333333333,0.3388888888888889],[0.07083333333333333,0.3388888888888889],[0.07083333333333333,0.3388888888888889],[0.07083333333333333,0.3388888888888889],[0.07083333333333333,0.3388888888888889],[0.07083333333333333,0.3388888888888889],[0.07083333333333333,0.3388888888888889],[0.07083333333333333,0.3388888888888889],[0.07083333333333333,0.3388888888888889],[0.07083333333333333,0.3388888888888889],[0.07083333333333333,0.3388888888888889],[0.07083333333333333,0.34074074074074073],[0.07083333333333333,0.3425925925925926],[0.07083333333333333,0.35185185185185186],[0.07083333333333333,0.3592592592592593],[0.06458333333333334,0.37407407407407406],[0.058333333333333334,0.3851851851851852],[0.05416666666666667,0.3907407407407407],[0.05,0.39444444444444443],[0.04791666666666667,0.39814814814814814],[0.046875,0.39814814814814814],[0.046875,0.39814814814814814],[0.046875,0.39814814814814814],[0.046875,0.39814814814814814],[0.046875,0.39814814814814814],[0.046875,0.39814814814814814],[0.046875,0.39814814814814814],[0.046875,0.39814814814814814],[0.046875,0.39814814814814814],[0.046875,0.39814814814814814],[0.046875,0.39814814814814814],[0.046875,0.39814814814814814],[0.046875,0.39814814814814814],[0.046875,0.39814814814814814],[0.046875,0.39814814814814814],[0.046875,0.39814814814814814],[0.046875,0.39814814814814814],[0.046875,0.39814814814814814],[0.046875,0.39814814814814814],[0.046875,0.39814814814814814],[0.046875,0.39814814814814814],[0.046875,0.39814814814814814],[0.046875,0.39814814814814814],[0.046875,0.39814814814814814],[0.046875,0.39814814814814814],[0.046875,0.39814814814814814],[0.046875,0.39814814814814814],[0.046875,0.39814814814814814],[0.046875,0.39814814814814814],[0.046875,0.39814814814814814],[0.046875,0.39814814814814814],[0.046875,0.39814814814814814],[0.046875,0.39814814814814814],[0.046875,0.39814814814814814],[0.046875,0.39814814814814814],[0.046875,0.39814814814814814],[0.046875,0.39814814814814814],[0.046875,0.39814814814814814],[0.046875,0.39814814814814814],[0.046875,0.39814814814814814],[0.046875,0.39814814814814814],[0.046875,0.39814814814814814],[0.046875,0.39814814814814814],[0.046875,0.39814814814814814],[0.046875,0.39814814814814814],[0.046875,0.39814814814814814],[0.046875,0.39814814814814814],[0.046875,0.39814814814814814],[0.046875,0.39814814814814814],[0.046875,0.39814814814814814],[0.046875,0.39814814814814814],[0.046875,0.39814814814814814],[0.046875,0.39814814814814814],[0.046875,0.39814814814814814],[0.046875,0.39814814814814814],[0.046875,0.39814814814814814],[0.046875,0.39814814814814814],[0.046875,0.39814814814814814],[0.046875,0.39814814814814814],[0.046875,0.39814814814814814],[0.046875,0.39814814814814814],[0.046875,0.39814814814814814],[0.046875,0.39814814814814814],[0.046875,0.39814814814814814],[0.046875,0.39814814814814814],[0.046875,0.39814814814814814],[0.046875,0.39814814814814814],[0.046875,0.39814814814814814],[0.046875,0.39814814814814814],[0.046875,0.39814814814814814],[0.046875,0.39814814814814814],[0.046875,0.39814814814814814],[0.046875,0.39814814814814814],[0.046875,0.39814814814814814],[0.046875,0.39814814814814814],[0.046875,0.39814814814814814],[0.046875,0.39814814814814814],[0.046875,0.39814814814814814],[0.046875,0.39814814814814814],[0.046875,0.39814814814814814],[0.046875,0.39814814814814814],[0.046875,0.39814814814814814],[0.046875,0.39814814814814814],[0.046875,0.39814814814814814],[0.046875,0.39814814814814814],[0.046875,0.39814814814814814],[0.046875,0.39814814814814814],[0.046875,0.39814814814814814],[0.046875,0.39814814814814814],[0.046875,0.39814814814814814],[0.046875,0.39814814814814814],[0.046875,0.39814814814814814],[0.046875,0.39814814814814814],[0.046875,0.39814814814814814],[0.046875,0.39814814814814814],[0.046875,0.39814814814814814],[0.046875,0.39814814814814814],[0.046875,0.39814814814814814],[0.046875,0.3925925925925926],[0.046875,0.3925925925925926],[0.046875,0.3925925925925926],[0.046875,0.3925925925925926],[0.046875,0.3907407407407407]]","[[-0.030520833333333285,0.3472222222222222],[-0.030520833333333285,0.3472222222222222],[-0.11083333333333331,0.3707407407407408],[-0.11083333333333331,0.3707407407407408],[-0.16072916666666662,0.3461111111111111],[-0.16072916666666662,0.3461111111111111],[-0.17895833333333327,0.331111111111111],[-0.19135416666666671,0.32518518518518524],[-0.19239583333333338,0.35037037037037044],[-0.16177083333333328,0.38351851851851854],[-0.13250000000000003,0.37814814814814823],[-0.12229166666666665,0.3653703703703703],[-0.09249999999999996,0.36740740740740735],[-0.07208333333333337,0.3507407407407407],[-0.043958333333333384,0.3122222222222223],[-0.019166666666666644,0.3218518518518518],[-0.01270833333333338,0.3050000000000001],[-0.004479166666666619,0.31203703703703706],[-0.0171875,0.2953703703703704],[-0.02833333333333338,0.25574074074074077],[-0.030624999999999975,0.28425925925925927],[-0.03885416666666662,0.31851851851851853],[-0.04583333333333333,0.2992592592592593],[-0.02374999999999995,0.27925925925925915],[0.0203125,0.27759259259259256],[0.02802083333333331,0.3031481481481482],[0.05947916666666669,0.2935185185185185],[0.07104166666666671,0.22518518518518524],[0.10395833333333329,0.17925925925925917],[0.11697916666666662,0.1227777777777777],[0.14416666666666675,0.05129629629629638],[0.13010416666666677,-0.012962962962962963],[0.15208333333333332,-0.05462962962962963],[0.12541666666666676,-0.0824074074074074],[0.10104166666666667,-0.07481481481481478],[0.10333333333333337,-0.13796296296296295],[0.10197916666666676,-0.12314814814814815],[0.10166666666666657,-0.0940740740740741],[0.12239583333333333,-0.08425925925925926],[0.11645833333333329,-0.07592592592592592],[0.10593750000000005,-0.036481481481481566],[0.14260416666666675,-0.009999999999999959],[0.14260416666666675,-0.009999999999999959],[0.14541666666666658,-0.025185185185185227],[0.14593749999999991,-0.05592592592592591],[0.14416666666666675,-0.122037037037037],[0.14458333333333329,-0.175],[0.1453125,-0.24444444444444444],[0.1460416666666667,-0.3138888888888889],[0.13552083333333323,-0.34018518518518515],[0.1330208333333334,-0.3557407407407408],[0.14249999999999996,-0.375],[0.12729166666666672,-0.42537037037037034],[0.12281250000000009,-0.43629629629629635],[0.12062499999999995,-0.4316666666666667],[0.1396874999999999,-0.402962962962963],[0.15635416666666657,-0.36314814814814816],[0.1678124999999999,-0.3581481481481481],[0.1759375000000001,-0.35185185185185186],[0.17385416666666675,-0.36814814814814817],[0.1404166666666666,-0.367037037037037],[0.10656249999999995,-0.4027777777777778],[0.12729166666666672,-0.37962962962962965],[0.13354166666666673,-0.34500000000000003],[0.13781249999999995,-0.3418518518518519],[0.12208333333333338,-0.34574074074074074],[0.09239583333333339,-0.3774074074074074],[0.05927083333333331,-0.3774074074074074],[0.06145833333333333,-0.33555555555555555],[0.06895833333333339,-0.29666666666666663],[0.07729166666666672,-0.2918518518518519],[0.09187500000000005,-0.2646296296296296],[0.0765625,-0.2651851851851852],[0.07249999999999991,-0.2537037037037037],[0.08322916666666676,-0.21129629629629634],[0.08791666666666677,-0.18944444444444447],[0.10656249999999995,-0.1398148148148148],[0.14968750000000006,-0.09944444444444442],[0.14812500000000003,-0.10351851851851848],[0.1396874999999999,-0.12222222222222222],[0.15572916666666667,-0.12518518518518523],[0.16375000000000003,-0.14962962962962964],[0.16708333333333342,-0.13259259259259262],[0.17052083333333337,-0.13759259259259263],[0.16156249999999991,-0.15777777777777777],[0.15010416666666657,-0.1714814814814815],[0.13562500000000005,-0.19296296296296295],[0.1053124999999999,-0.19444444444444445],[0.09010416666666667,-0.19722222222222222],[0.08145833333333338,-0.1712962962962963],[0.08083333333333324,-0.18074074074074079],[0.075,-0.1816666666666667],[0.06833333333333323,-0.17962962962962964],[0.06833333333333323,-0.17962962962962964],[0.06927083333333334,-0.18407407407407403],[0.07583333333333328,-0.19518518518518516],[0.0896874999999999,-0.20925925925925926],[0.11458333333333333,-0.2059259259259259],[0.13947916666666677,-0.2101851851851852],[0.13781249999999995,-0.22833333333333336],[0.13114583333333343,-0.25759259259259265],[0.13114583333333343,-0.25759259259259265],[0.15104166666666666,-0.21296296296296297],[0.15104166666666666,-0.21296296296296297],[0.15614583333333343,-0.17833333333333334],[0.15614583333333343,-0.17833333333333334],[0.1806250000000001,-0.20314814814814813],[0.19135416666666671,-0.20055555555555557],[0.19135416666666671,-0.20055555555555557],[0.21864583333333343,-0.1646296296296296],[0.21864583333333343,-0.1646296296296296],[0.2353125000000001,-0.14537037037037037],[0.2462500000000001,-0.11981481481481479],[0.25718750000000007,-0.09425925925925922],[0.27666666666666656,-0.11574074074074074],[0.3147916666666667,-0.07888888888888893],[0.3189583333333334,-0.08148148148148149],[0.33791666666666675,-0.07407407407407407],[0.34343750000000006,-0.06962962962962967],[0.3551041666666668,-0.08611111111111111],[0.3441666666666668,-0.11351851851851855],[0.32958333333333345,-0.1037037037037037],[0.31270833333333337,-0.10981481481481484],[0.2647916666666667,-0.15111111111111114],[0.24770833333333328,-0.13425925925925927],[0.19635416666666666,-0.1757407407407407],[0.16833333333333325,-0.19129629629629633],[0.16833333333333325,-0.19129629629629633],[0.13468749999999996,-0.21722222222222223],[0.12052083333333338,-0.20166666666666663],[0.10520833333333333,-0.20333333333333337],[0.0900000000000001,-0.1983333333333334],[0.07843749999999995,-0.23574074074074075],[0.09343750000000005,-0.2270370370370371],[0.11166666666666672,-0.21888888888888886],[0.13427083333333342,-0.17092592592592595],[0.16666666666666666,-0.1544444444444444],[0.20520833333333333,-0.15185185185185185],[0.22791666666666663,-0.17925925925925928],[0.23072916666666668,-0.23018518518518521],[0.2478125000000001,-0.23962962962962958],[0.2553124999999999,-0.27740740740740744],[0.28104166666666663,-0.27037037037037037],[0.28020833333333334,-0.30944444444444447],[0.3071875000000001,-0.3127777777777777],[0.3229166666666667,-0.3224074074074075],[0.33791666666666675,-0.3175925925925926],[0.31260416666666657,-0.3287037037037037],[0.3064583333333334,-0.29518518518518516],[0.3298958333333334,-0.25851851851851854],[0.33864583333333326,-0.24759259259259256],[0.34312500000000007,-0.22518518518518524],[0.34312500000000007,-0.22518518518518524],[0.3303124999999999,-0.21722222222222223],[0.3264583333333334,-0.2477777777777778],[0.3084374999999999,-0.27629629629629626],[0.3109375,-0.2916666666666667],[0.29812500000000003,-0.31055555555555553],[0.3063541666666666,-0.33185185185185184],[0.3168750000000001,-0.3574074074074074],[0.3008333333333333,-0.36129629629629634],[0.28635416666666674,-0.36370370370370364],[0.2616666666666667,-0.3594444444444445],[0.24666666666666662,-0.36370370370370364],[0.23697916666666666,-0.3592592592592593],[0.2582291666666668,-0.3066666666666667],[0.21614583333333334,-0.3138888888888889],[0.21833333333333324,-0.27611111111111114],[0.19395833333333337,-0.252962962962963],[0.15833333333333333,-0.2490740740740741],[0.1196875000000001,-0.27],[0.09260416666666677,-0.28833333333333333],[0.08947916666666676,-0.3031481481481481],[0.09177083333333323,-0.2875925925925926],[0.07979166666666657,-0.24222222222222226]]","[[-0.030520833333333285,0.3472222222222222,0.000299999999811007],[-0.030520833333333285,0.3472222222222222,0.04239999999943933],[-0.11083333333333331,0.3707407407407408,0.05320000000018865],[-0.11083333333333331,0.3707407407407408,0.07049999999999557],[-0.16072916666666662,0.3461111111111111,0.0862000000001828],[-0.16072916666666662,0.3461111111111111,0.0940000000000012],[-0.17895833333333327,0.331111111111111,0.11329999999981055],[-0.19135416666666671,0.32518518518518524,0.12739999999944018],[-0.19239583333333338,0.35037037037037044,0.14409999999962508],[-0.16177083333333328,0.38351851851851854,0.16400000000000148],[-0.13250000000000003,0.37814814814814823,0.17739999999943734],[-0.12229166666666665,0.3653703703703703,0.19459999999962463],[-0.09249999999999996,0.36740740740740735,0.21300000000000097],[-0.07208333333333337,0.3507407407407407,0.2273999999994416],[-0.043958333333333384,0.3122222222222223,0.2440999999996265],[-0.019166666666666644,0.3218518518518518,0.2639999999999958],[-0.01270833333333338,0.3050000000000001,0.2774999999999963],[-0.004479166666666619,0.31203703703703706,0.2942000000001883],[-0.0171875,0.2953703703703704,0.3127000000001843],[-0.02833333333333338,0.25574074074074077,0.327399999999443],[-0.030624999999999975,0.28425925925925927,0.3440999999996279],[-0.03885416666666662,0.31851851851851853,0.3637000000001862],[-0.04583333333333333,0.2992592592592593,0.3774999999999977],[-0.02374999999999995,0.27925925925925915,0.39429999999980936],[0.0203125,0.27759259259259256,0.41070000000018325],[0.02802083333333331,0.3031481481481482,0.430200000000184],[0.05947916666666669,0.2935185185185185,0.44409999999962935],[0.07104166666666671,0.22518518518518524,0.460899999999441],[0.10395833333333329,0.17925925925925917,0.4797999999998126],[0.11697916666666662,0.1227777777777777,0.4950999999996242],[0.14416666666666675,0.05129629629629638,0.5107000000001847],[0.13010416666666677,-0.012962962962962963,0.5304999999999964],[0.15208333333333332,-0.05462962962962963,0.5468999999994395],[0.12541666666666676,-0.0824074074074074,0.5608999999994424],[0.10104166666666667,-0.07481481481481478,0.5798999999994408],[0.10333333333333337,-0.13796296296296295,0.5942000000001855],[0.10197916666666676,-0.12314814814814815,0.6107000000001861],[0.10166666666666657,-0.0940740740740741,0.6272999999998135],[0.12239583333333333,-0.08425925925925926,0.6462999999998118],[0.11645833333333329,-0.07592592592592592,0.66079999999981],[0.10593750000000005,-0.036481481481481566,0.677500000000002],[0.14260416666666675,-0.009999999999999959,0.6980000000000004],[0.14260416666666675,-0.009999999999999959,0.7107000000001875],[0.14541666666666658,-0.025185185185185227,0.7274999999999991],[0.14593749999999991,-0.05592592592592591,0.744200000000184],[0.14416666666666675,-0.122037037037037,0.7637000000001848],[0.14458333333333329,-0.175,0.7774999999999963],[0.1453125,-0.24444444444444444,0.794299999999815],[0.1460416666666667,-0.3138888888888889,0.8134999999999977],[0.13552083333333323,-0.34018518518518515,0.827399999999443],[0.1330208333333334,-0.3557407407407408,0.8440000000000012],[0.14249999999999996,-0.375,0.8645999999996263],[0.12729166666666672,-0.42537037037037034,0.8772000000001867],[0.12281250000000009,-0.43629629629629635,0.8939999999999984],[0.12062499999999995,-0.4316666666666667,0.9105999999996257],[0.1396874999999999,-0.402962962962963,0.9272000000001839],[0.15635416666666657,-0.36314814814814816,0.943899999999438],[0.1678124999999999,-0.3581481481481481,0.9639999999999986],[0.1759375000000001,-0.35185185185185186,0.9772000000001881],[0.17385416666666675,-0.36814814814814817,0.9939999999999998],[0.1404166666666666,-0.367037037037037,1.0105999999996271],[0.10656249999999995,-0.4027777777777778,1.0272000000001853],[0.12729166666666672,-0.37962962962962965,1.0438999999994394],[0.13354166666666673,-0.34500000000000003,1.0634999999999977],[0.13781249999999995,-0.3418518518518519,1.077399999999443],[0.12208333333333338,-0.34574074074074074,1.0944999999999965],[0.09239583333333339,-0.3774074074074074,1.110700000000186],[0.05927083333333331,-0.3774074074074074,1.1297999999998112],[0.06145833333333333,-0.33555555555555555,1.144099999999625],[0.06895833333333339,-0.29666666666666663,1.1607000000001833],[0.07729166666666672,-0.2918518518518519,1.180500000000002],[0.09187500000000005,-0.2646296296296296,1.194799999999816],[0.0765625,-0.2651851851851852,1.2107000000001875],[0.07249999999999991,-0.2537037037037037,1.2272000000001881],[0.08322916666666676,-0.21129629629629634,1.2438999999994422],[0.08791666666666677,-0.18944444444444447,1.2605000000000004],[0.10656249999999995,-0.1398148148148148,1.277299999999812],[0.14968750000000006,-0.09944444444444442,1.293999999999997],[0.14812500000000003,-0.10351851851851848,1.3105999999996243],[0.1396874999999999,-0.12222222222222222,1.3272000000001825],[0.15572916666666667,-0.12518518518518523,1.3438999999994437],[0.16375000000000003,-0.14962962962962964,1.3605000000000018],[0.16708333333333342,-0.13259259259259262,1.3772000000001867],[0.17052083333333337,-0.13759259259259263,1.396899999999441],[0.16156249999999991,-0.15777777777777777,1.411399999999439],[0.15010416666666657,-0.1714814814814815,1.4272999999998106],[0.13562500000000005,-0.19296296296296295,1.4440000000000026],[0.1053124999999999,-0.19444444444444445,1.46059999999963],[0.09010416666666667,-0.19722222222222222,1.4772000000001881],[0.08145833333333338,-0.1712962962962963,1.4939999999999998],[0.08083333333333324,-0.18074074074074079,1.5105999999996271],[0.075,-0.1816666666666667,1.5272000000001853],[0.06833333333333323,-0.17962962962962964,1.5482999999998128],[0.06833333333333323,-0.17962962962962964,1.5605999999996243],[0.06927083333333334,-0.18407407407407403,1.5772999999998163],[0.07583333333333328,-0.19518518518518516,1.5938999999994437],[0.0896874999999999,-0.20925925925925926,1.610700000000186],[0.11458333333333333,-0.2059259259259259,1.6275999999996245],[0.13947916666666677,-0.2101851851851852,1.6438999999994408],[0.13781249999999995,-0.22833333333333336,1.6605999999996257],[0.13114583333333343,-0.25759259259259265,1.677799999999813],[0.13114583333333343,-0.25759259259259265,1.693899999999438],[0.15104166666666666,-0.21296296296296297,1.7107000000001875],[0.15104166666666666,-0.21296296296296297,1.7272999999998149],[0.15614583333333343,-0.17833333333333334,1.7437999999998155],[0.15614583333333343,-0.17833333333333334,1.7605999999996271],[0.1806250000000001,-0.20314814814814813,1.7772000000001853],[0.19135416666666671,-0.20055555555555557,1.7987000000001885],[0.19135416666666671,-0.20055555555555557,1.8105999999996243],[0.21864583333333343,-0.1646296296296296,1.8272000000001825],[0.21864583333333343,-0.1646296296296296,1.8438999999994437],[0.2353125000000001,-0.14537037037037037,1.8605999999996286],[0.2462500000000001,-0.11981481481481479,1.8807000000001821],[0.25718750000000007,-0.09425925925925922,1.8967000000001875],[0.27666666666666656,-0.11574074074074074,1.9125999999996282],[0.3147916666666667,-0.07888888888888893,1.9272999999998106],[0.3189583333333334,-0.08148148148148149,1.943899999999438],[0.33791666666666675,-0.07407407407407407,1.96059999999963],[0.34343750000000006,-0.06962962962962967,1.9772000000001881],[0.3551041666666668,-0.08611111111111111,1.9982000000001818],[0.3441666666666668,-0.11351851851851855,2.013099999999625],[0.32958333333333345,-0.1037037037037037,2.0272000000001853],[0.31270833333333337,-0.10981481481481484,2.0437999999998127],[0.2647916666666667,-0.15111111111111114,2.06339999999944],[0.24770833333333328,-0.13425925925925927,2.077999999999996],[0.19635416666666666,-0.1757407407407407,2.094000000000001],[0.16833333333333325,-0.19129629629629633,2.1105999999996286],[0.16833333333333325,-0.19129629629629633,2.1272999999998135],[0.13468749999999996,-0.21722222222222223,2.143899999999441],[0.12052083333333338,-0.20166666666666663,2.1605999999996257],[0.10520833333333333,-0.20333333333333337,2.1797000000001887],[0.0900000000000001,-0.1983333333333334,2.1967000000001846],[0.07843749999999995,-0.23574074074074075,2.2107000000001875],[0.09343750000000005,-0.2270370370370371,2.227200000000188],[0.11166666666666672,-0.21888888888888886,2.2438999999994422],[0.13427083333333342,-0.17092592592592595,2.260599999999627],[0.16666666666666666,-0.1544444444444444,2.2772000000001853],[0.20520833333333333,-0.15185185185185185,2.293999999999997],[0.22791666666666663,-0.17925925925925928,2.3105999999996243],[0.23072916666666668,-0.23018518518518521,2.3272000000001825],[0.2478125000000001,-0.23962962962962958,2.3438999999994437],[0.2553124999999999,-0.27740740740740744,2.3605999999996286],[0.28104166666666663,-0.27037037037037037,2.3772000000001867],[0.28020833333333334,-0.30944444444444447,2.3939999999999984],[0.3071875000000001,-0.3127777777777777,2.410499999999999],[0.3229166666666667,-0.3224074074074075,2.427200000000184],[0.33791666666666675,-0.3175925925925926,2.4437999999998112],[0.31260416666666657,-0.3287037037037037,2.460499999999996],[0.3064583333333334,-0.29518518518518516,2.477299999999815],[0.3298958333333334,-0.25851851851851854,2.4955],[0.33864583333333326,-0.24759259259259256,2.5105000000000004],[0.34312500000000007,-0.22518518518518524,2.5272000000001853],[0.34312500000000007,-0.22518518518518524,2.5438999999994394],[0.3303124999999999,-0.21722222222222223,2.5608999999994424],[0.3264583333333334,-0.2477777777777778,2.5772000000001825],[0.3084374999999999,-0.27629629629629626,2.594000000000001],[0.3109375,-0.2916666666666667,2.6105999999996286],[0.29812500000000003,-0.31055555555555553,2.6272000000001867],[0.3063541666666666,-0.33185185185185184,2.643899999999441],[0.3168750000000001,-0.3574074074074074,2.6605999999996257],[0.3008333333333333,-0.36129629629629634,2.677200000000184],[0.28635416666666674,-0.36370370370370364,2.693899999999438],[0.2616666666666667,-0.3594444444444445,2.71059999999963],[0.24666666666666662,-0.36370370370370364,2.727200000000188],[0.23697916666666666,-0.3592592592592593,2.7438999999994422],[0.2582291666666668,-0.3066666666666667,2.760599999999627],[0.21614583333333334,-0.3138888888888889,2.7772000000001853],[0.21833333333333324,-0.27611111111111114,2.793999999999997],[0.19395833333333337,-0.252962962962963,2.8105999999996243],[0.15833333333333333,-0.2490740740740741,2.8272999999998163],[0.1196875000000001,-0.27,2.8472999999998123],[0.09260416666666677,-0.28833333333333333,2.860500000000002],[0.08947916666666676,-0.3031481481481481,2.8772000000001867],[0.09177083333333323,-0.2875925925925926,2.894999999999996],[0.07979166666666657,-0.24222222222222226,2.9130999999996234]]","[0.000299999999811007,0.04239999999943933,0.05320000000018865,0.07049999999999557,0.0862000000001828,0.0940000000000012,0.11329999999981055,0.12739999999944018,0.14409999999962508,0.16400000000000148,0.17739999999943734,0.19459999999962463,0.21300000000000097,0.2273999999994416,0.2440999999996265,0.2639999999999958,0.2774999999999963,0.2942000000001883,0.3127000000001843,0.327399999999443,0.3440999999996279,0.3637000000001862,0.3774999999999977,0.39429999999980936,0.41070000000018325,0.430200000000184,0.44409999999962935,0.460899999999441,0.4797999999998126,0.4950999999996242,0.5107000000001847,0.5304999999999964,0.5468999999994395,0.5608999999994424,0.5798999999994408,0.5942000000001855,0.6107000000001861,0.6272999999998135,0.6462999999998118,0.66079999999981,0.677500000000002,0.6980000000000004,0.7107000000001875,0.7274999999999991,0.744200000000184,0.7637000000001848,0.7774999999999963,0.794299999999815,0.8134999999999977,0.827399999999443,0.8440000000000012,0.8645999999996263,0.8772000000001867,0.8939999999999984,0.9105999999996257,0.9272000000001839,0.943899999999438,0.9639999999999986,0.9772000000001881,0.9939999999999998,1.0105999999996271,1.0272000000001853,1.0438999999994394,1.0634999999999977,1.077399999999443,1.0944999999999965,1.110700000000186,1.1297999999998112,1.144099999999625,1.1607000000001833,1.180500000000002,1.194799999999816,1.2107000000001875,1.2272000000001881,1.2438999999994422,1.2605000000000004,1.277299999999812,1.293999999999997,1.3105999999996243,1.3272000000001825,1.3438999999994437,1.3605000000000018,1.3772000000001867,1.396899999999441,1.411399999999439,1.4272999999998106,1.4440000000000026,1.46059999999963,1.4772000000001881,1.4939999999999998,1.5105999999996271,1.5272000000001853,1.5482999999998128,1.5605999999996243,1.5772999999998163,1.5938999999994437,1.610700000000186,1.6275999999996245,1.6438999999994408,1.6605999999996257,1.677799999999813,1.693899999999438,1.7107000000001875,1.7272999999998149,1.7437999999998155,1.7605999999996271,1.7772000000001853,1.7987000000001885,1.8105999999996243,1.8272000000001825,1.8438999999994437,1.8605999999996286,1.8807000000001821,1.8967000000001875,1.9125999999996282,1.9272999999998106,1.943899999999438,1.96059999999963,1.9772000000001881,1.9982000000001818,2.013099999999625,2.0272000000001853,2.0437999999998127,2.06339999999944,2.077999999999996,2.094000000000001,2.1105999999996286,2.1272999999998135,2.143899999999441,2.1605999999996257,2.1797000000001887,2.1967000000001846,2.2107000000001875,2.227200000000188,2.2438999999994422,2.260599999999627,2.2772000000001853,2.293999999999997,2.3105999999996243,2.3272000000001825,2.3438999999994437,2.3605999999996286,2.3772000000001867,2.3939999999999984,2.410499999999999,2.427200000000184,2.4437999999998112,2.460499999999996,2.477299999999815,2.4955,2.5105000000000004,2.5272000000001853,2.5438999999994394,2.5608999999994424,2.5772000000001825,2.594000000000001,2.6105999999996286,2.6272000000001867,2.643899999999441,2.6605999999996257,2.677200000000184,2.693899999999438,2.71059999999963,2.727200000000188,2.7438999999994422,2.760599999999627,2.7772000000001853,2.793999999999997,2.8105999999996243,2.8272999999998163,2.8472999999998123,2.860500000000002,2.8772000000001867,2.894999999999996,2.9130999999996234]","[1733117583169,1733117583204,1733117583215,1733117583232,1733117583248,1733117583256,1733117583275,1733117583289,1733117583306,1733117583326,1733117583339,1733117583357,1733117583375,1733117583389,1733117583406,1733117583426,1733117583440,1733117583456,1733117583475,1733117583489,1733117583506,1733117583526,1733117583539,1733117583556,1733117583573,1733117583592,1733117583606,1733117583623,1733117583642,1733117583657,1733117583673,1733117583692,1733117583709,1733117583723,1733117583742,1733117583756,1733117583773,1733117583789,1733117583808,1733117583823,1733117583839,1733117583860,1733117583873,1733117583890,1733117583906,1733117583926,1733117583939,1733117583956,1733117583976,1733117583989,1733117584006,1733117584027,1733117584039,1733117584056,1733117584073,1733117584089,1733117584106,1733117584126,1733117584139,1733117584156,1733117584173,1733117584189,1733117584206,1733117584226,1733117584239,1733117584257,1733117584273,1733117584292,1733117584306,1733117584323,1733117584343,1733117584357,1733117584373,1733117584389,1733117584406,1733117584423,1733117584439,1733117584456,1733117584473,1733117584489,1733117584506,1733117584523,1733117584539,1733117584559,1733117584573,1733117584589,1733117584606,1733117584623,1733117584639,1733117584656,1733117584673,1733117584689,1733117584710,1733117584723,1733117584739,1733117584756,1733117584773,1733117584790,1733117584806,1733117584823,1733117584840,1733117584856,1733117584873,1733117584889,1733117584906,1733117584923,1733117584939,1733117584961,1733117584973,1733117584989,1733117585006,1733117585023,1733117585043,1733117585059,1733117585075,1733117585089,1733117585106,1733117585123,1733117585139,1733117585160,1733117585175,1733117585189,1733117585206,1733117585225,1733117585240,1733117585256,1733117585273,1733117585289,1733117585306,1733117585323,1733117585342,1733117585359,1733117585373,1733117585389,1733117585406,1733117585423,1733117585439,1733117585456,1733117585473,1733117585489,1733117585506,1733117585523,1733117585539,1733117585556,1733117585573,1733117585589,1733117585606,1733117585623,1733117585639,1733117585658,1733117585673,1733117585689,1733117585706,1733117585723,1733117585739,1733117585756,1733117585773,1733117585789,1733117585806,1733117585823,1733117585839,1733117585856,1733117585873,1733117585889,1733117585906,1733117585923,1733117585939,1733117585956,1733117585973,1733117585989,1733117586009,1733117586023,1733117586039,1733117586057,1733117586075]","[[930.7,727.5],[930.7,727.5],[853.6,740.2],[853.6,740.2],[805.7,726.9],[805.7,726.9],[788.2,718.8],[776.3,715.6],[775.3,729.2],[804.7,747.1],[832.8,744.2],[842.6,737.3],[871.2,738.4],[890.8,729.4],[917.8,708.6],[941.6,713.8],[947.8,704.7],[955.7,708.5],[943.5,699.5],[932.8,678.1],[930.6,693.5],[922.7,712],[916,701.6],[937.2,690.8],[979.5,689.9],[986.9,703.7],[1017.1,698.5],[1028.2,661.6],[1059.8,636.8],[1072.3,606.3],[1098.4,567.7],[1084.9,533],[1106,510.5],[1080.4,495.5],[1057,499.6],[1059.2,465.5],[1057.9,473.5],[1057.6,489.2],[1077.5,494.5],[1071.8,499],[1061.7,520.3],[1096.9,534.6],[1096.9,534.6],[1099.6,526.4],[1100.1,509.8],[1098.4,474.1],[1098.8,445.5],[1099.5,408],[1100.2,370.5],[1090.1,356.3],[1087.7,347.9],[1096.8,337.5],[1082.2,310.3],[1077.9,304.4],[1075.8,306.9],[1094.1,322.4],[1110.1,343.9],[1121.1,346.6],[1128.9,350],[1126.9,341.2],[1094.8,341.8],[1062.3,322.5],[1082.2,335],[1088.2,353.7],[1092.3,355.4],[1077.2,353.3],[1048.7,336.2],[1016.9,336.2],[1019,358.8],[1026.2,379.8],[1034.2,382.4],[1048.2,397.1],[1033.5,396.8],[1029.6,403],[1039.9,425.9],[1044.4,437.7],[1062.3,464.5],[1103.7,486.3],[1102.2,484.1],[1094.1,474],[1109.5,472.4],[1117.2,459.2],[1120.4,468.4],[1123.7,465.7],[1115.1,454.8],[1104.1,447.4],[1090.2,435.8],[1061.1,435],[1046.5,433.5],[1038.2,447.5],[1037.6,442.4],[1032,441.9],[1025.6,443],[1025.6,443],[1026.5,440.6],[1032.8,434.6],[1046.1,427],[1070,428.8],[1093.9,426.5],[1092.3,416.7],[1085.9,400.9],[1085.9,400.9],[1105,425],[1105,425],[1109.9,443.7],[1109.9,443.7],[1133.4,430.3],[1143.7,431.7],[1143.7,431.7],[1169.9,451.1],[1169.9,451.1],[1185.9,461.5],[1196.4,475.3],[1206.9,489.1],[1225.6,477.5],[1262.2,497.4],[1266.2,496],[1284.4,500],[1289.7,502.4],[1300.9,493.5],[1290.4,478.7],[1276.4,484],[1260.2,480.7],[1214.2,458.4],[1197.8,467.5],[1148.5,445.1],[1121.6,436.7],[1121.6,436.7],[1089.3,422.7],[1075.7,431.1],[1061,430.2],[1046.4,432.9],[1035.3,412.7],[1049.7,417.4],[1067.2,421.8],[1088.9,447.7],[1120,456.6],[1157,458],[1178.8,443.2],[1181.5,415.7],[1197.9,410.6],[1205.1,390.2],[1229.8,394],[1229,372.9],[1254.9,371.1],[1270,365.9],[1284.4,368.5],[1260.1,362.5],[1254.2,380.6],[1276.7,400.4],[1285.1,406.3],[1289.4,418.4],[1289.4,418.4],[1277.1,422.7],[1273.4,406.2],[1256.1,390.8],[1258.5,382.5],[1246.2,372.3],[1254.1,360.8],[1264.2,347],[1248.8,344.9],[1234.9,343.6],[1211.2,345.9],[1196.8,343.6],[1187.5,346],[1207.9,374.4],[1167.5,370.5],[1169.6,390.9],[1146.2,403.4],[1112,405.5],[1074.9,394.2],[1048.9,384.3],[1045.9,376.3],[1048.1,384.7],[1036.6,409.2]]","[0,0.3527331528]","[0.3527331528,0.3527331528]","[-0.3527331528,0]","[-0.3527331528,-0.3527331528]","[0,0]","[0.3527331528,0]","[0,-0.3527331528]","[0.3527331528,-0.3527331528]",0,0,0,0,1,3,Tablet,11,9,9,1
,,,,,,,,,,,,,,,,,,,30,001,2024-12-02_13h32.27.691,Attention_exp_legacy,2023.1.0,Win32,60.60606061,,,,,,,,,,,[0.440625],[0.29259259259259257],[1],[0],[0],[1.448400000000376],"[""Option2_label""]",Option2_label,2,2.4665,"[[0.046875,0.3907407407407407],[0.046875,0.3907407407407407],[0.046875,0.3907407407407407],[0.046875,0.3907407407407407],[0.046875,0.3907407407407407],[0.046875,0.3907407407407407],[0.046875,0.3907407407407407],[0.046875,0.3907407407407407],[0.046875,0.3907407407407407],[0.046875,0.3907407407407407],[0.046875,0.3907407407407407],[0.046875,0.3907407407407407],[0.046875,0.3907407407407407],[0.046875,0.3907407407407407],[0.046875,0.3907407407407407],[0.046875,0.3907407407407407],[0.046875,0.3907407407407407],[0.046875,0.3907407407407407],[0.046875,0.3907407407407407],[0.046875,0.3907407407407407],[0.046875,0.3907407407407407],[0.046875,0.3907407407407407],[0.046875,0.3907407407407407],[0.046875,0.3907407407407407],[0.046875,0.3907407407407407],[0.046875,0.3907407407407407],[0.046875,0.3907407407407407],[0.046875,0.3907407407407407],[0.046875,0.3907407407407407],[0.046875,0.3907407407407407],[0.046875,0.3907407407407407],[0.046875,0.3907407407407407],[0.046875,0.3907407407407407],[0.046875,0.3907407407407407],[0.046875,0.3907407407407407],[0.046875,0.3907407407407407],[0.046875,0.3907407407407407],[0.046875,0.3907407407407407],[0.046875,0.3907407407407407],[0.046875,0.3907407407407407],[0.046875,0.3907407407407407],[0.046875,0.3907407407407407],[0.046875,0.3907407407407407],[0.046875,0.3907407407407407],[0.046875,0.3907407407407407],[0.046875,0.3907407407407407],[0.046875,0.3907407407407407],[0.046875,0.3907407407407407],[0.046875,0.3907407407407407],[0.046875,0.3888888888888889],[0.075,0.3888888888888889],[0.153125,0.37962962962962965],[0.23854166666666668,0.35555555555555557],[0.3177083333333333,0.337037037037037],[0.3927083333333333,0.31666666666666665],[0.41875,0.3111111111111111],[0.43333333333333335,0.30925925925925923],[0.44166666666666665,0.30925925925925923],[0.44479166666666664,0.30925925925925923],[0.44583333333333336,0.30925925925925923],[0.446875,0.30925925925925923],[0.446875,0.30925925925925923],[0.446875,0.30925925925925923],[0.446875,0.30925925925925923],[0.446875,0.30925925925925923],[0.446875,0.30925925925925923],[0.4479166666666667,0.3074074074074074],[0.4479166666666667,0.3055555555555556],[0.4479166666666667,0.3037037037037037],[0.4479166666666667,0.29814814814814816],[0.446875,0.2962962962962963],[0.44583333333333336,0.29444444444444445],[0.44479166666666664,0.29444444444444445],[0.4427083333333333,0.29259259259259257],[0.44166666666666665,0.29259259259259257],[0.44166666666666665,0.29259259259259257],[0.440625,0.29259259259259257],[0.440625,0.29259259259259257],[0.440625,0.29259259259259257],[0.440625,0.29259259259259257],[0.440625,0.29259259259259257],[0.440625,0.29259259259259257],[0.440625,0.29259259259259257],[0.440625,0.29259259259259257],[0.440625,0.29259259259259257],[0.440625,0.29259259259259257],[0.440625,0.29259259259259257],[0.440625,0.29259259259259257],[0.440625,0.29259259259259257],[0.440625,0.29259259259259257],[0.440625,0.29259259259259257],[0.440625,0.29259259259259257],[0.440625,0.29259259259259257],[0.440625,0.29259259259259257],[0.440625,0.29259259259259257],[0.440625,0.29259259259259257],[0.440625,0.29259259259259257],[0.440625,0.29259259259259257],[0.440625,0.29259259259259257],[0.440625,0.29259259259259257],[0.440625,0.29259259259259257],[0.440625,0.29259259259259257],[0.440625,0.29259259259259257],[0.440625,0.29259259259259257],[0.440625,0.29259259259259257],[0.440625,0.29259259259259257],[0.440625,0.29259259259259257],[0.440625,0.29259259259259257],[0.440625,0.29259259259259257],[0.440625,0.29259259259259257],[0.440625,0.29259259259259257],[0.440625,0.29259259259259257],[0.440625,0.29259259259259257],[0.440625,0.29259259259259257],[0.440625,0.29259259259259257],[0.440625,0.29259259259259257],[0.440625,0.29259259259259257],[0.440625,0.29259259259259257],[0.440625,0.29259259259259257],[0.440625,0.29259259259259257],[0.440625,0.29259259259259257],[0.440625,0.29259259259259257],[0.440625,0.29259259259259257],[0.440625,0.29259259259259257],[0.440625,0.29259259259259257],[0.440625,0.29259259259259257],[0.440625,0.29259259259259257],[0.440625,0.29259259259259257],[0.440625,0.29259259259259257],[0.440625,0.29259259259259257],[0.440625,0.29259259259259257],[0.440625,0.29259259259259257],[0.440625,0.29259259259259257],[0.440625,0.29259259259259257],[0.440625,0.29259259259259257],[0.440625,0.29259259259259257],[0.440625,0.29259259259259257],[0.440625,0.29259259259259257],[0.440625,0.29259259259259257],[0.440625,0.29259259259259257],[0.440625,0.29259259259259257],[0.440625,0.29259259259259257],[0.440625,0.29259259259259257],[0.440625,0.29259259259259257],[0.440625,0.29259259259259257],[0.440625,0.29259259259259257],[0.440625,0.29259259259259257],[0.440625,0.29259259259259257],[0.440625,0.29259259259259257]]","[[0.3242708333333333,-0.20055555555555557],[0.3180208333333333,-0.22018518518518515],[0.32177083333333345,-0.22888888888888892],[0.3303124999999999,-0.2361111111111111],[0.3502083333333334,-0.22722222222222221],[0.3634375000000001,-0.18333333333333332],[0.3910416666666668,-0.1574074074074074],[0.3953125,-0.16518518518518516],[0.40593750000000006,-0.15351851851851847],[0.42239583333333336,-0.14833333333333337],[0.4375,-0.15611111111111114],[0.4460416666666667,-0.16203703703703703],[0.44562499999999994,-0.14777777777777779],[0.440625,-0.1381481481481482],[0.4331249999999999,-0.1425925925925926],[0.42166666666666663,-0.14333333333333328],[0.40958333333333335,-0.1411111111111111],[0.4078125,-0.167037037037037],[0.38958333333333334,-0.20851851851851855],[0.38875000000000004,-0.19814814814814816],[0.4010416666666667,-0.1646296296296296],[0.42041666666666655,-0.16203703703703703],[0.4487499999999999,-0.17962962962962964],[0.47416666666666674,-0.1646296296296296],[0.5020833333333333,-0.13555555555555554],[0.5311458333333334,-0.13481481481481483],[0.5490624999999999,-0.10629629629629625],[0.5680208333333333,-0.09000000000000004],[0.5869791666666667,-0.07370370370370373],[0.5885416666666666,-0.10925925925925926],[0.5771874999999999,-0.16370370370370366],[0.5587500000000001,-0.18722222222222226],[0.5460416666666668,-0.1794444444444444],[0.53625,-0.20425925925925928],[0.5223958333333333,-0.25277777777777777],[0.5113541666666668,-0.2766666666666666],[0.5228125000000001,-0.30092592592592593],[0.5228125000000001,-0.30092592592592593],[0.5229166666666667,-0.28481481481481485],[0.5178124999999999,-0.2729629629629629],[0.5048958333333334,-0.25407407407407406],[0.5017708333333334,-0.2242592592592593],[0.49541666666666656,-0.205],[0.4878124999999999,-0.225],[0.48020833333333335,-0.24500000000000002],[0.46593749999999995,-0.24240740740740738],[0.4510416666666667,-0.2346296296296296],[0.4276041666666667,-0.2564814814814815],[0.4041666666666667,-0.2783333333333334],[0.38562500000000005,-0.32833333333333337],[0.3446875000000001,-0.3581481481481481],[0.3272916666666667,-0.365925925925926],[0.31312499999999993,-0.36314814814814816],[0.28927083333333337,-0.3496296296296296],[0.2743750000000001,-0.32222222222222224],[0.27020833333333344,-0.29370370370370374],[0.27374999999999994,-0.2631481481481482],[0.28177083333333336,-0.2601851851851852],[0.2617708333333333,-0.24240740740740738],[0.24635416666666668,-0.20092592592592592],[0.2833333333333333,-0.17962962962962964],[0.2998958333333334,-0.17240740740740745],[0.2808333333333332,-0.16740740740740737],[0.27354166666666657,-0.17999999999999997],[0.25729166666666664,-0.2064814814814815],[0.24541666666666656,-0.24666666666666665],[0.228125,-0.28351851851851856],[0.23406250000000003,-0.2740740740740741],[0.26802083333333326,-0.2794444444444444],[0.28229166666666666,-0.31870370370370377],[0.2853125000000001,-0.3309259259259259],[0.2640625,-0.3424074074074074],[0.27843749999999995,-0.3516666666666666],[0.29177083333333326,-0.352962962962963],[0.3233333333333334,-0.34759259259259256],[0.33708333333333323,-0.32833333333333337],[0.34916666666666674,-0.31962962962962965],[0.34395833333333337,-0.3274074074074074],[0.3384375000000001,-0.32037037037037036],[0.34833333333333344,-0.2707407407407407],[0.3411458333333333,-0.2692592592592592],[0.35822916666666677,-0.26851851851851855],[0.39010416666666664,-0.24074074074074073],[0.41645833333333326,-0.20611111111111113],[0.42197916666666657,-0.19962962962962966],[0.46104166666666657,-0.17166666666666663],[0.4658333333333334,-0.17092592592592595],[0.4796875,-0.14759259259259258],[0.4938541666666666,-0.13907407407407413],[0.509375,-0.12814814814814812],[0.5072916666666667,-0.11833333333333329],[0.5438541666666665,-0.09574074074074072],[0.565625,-0.10018518518518522],[0.5541666666666667,-0.11814814814814817],[0.5548958333333334,-0.10166666666666663],[0.5276041666666667,-0.0962962962962963],[0.5345833333333334,-0.06370370370370367],[0.5256249999999999,-0.056296296296296254],[0.5135416666666667,-0.06111111111111111],[0.5150000000000001,-0.05870370370370368],[0.5402083333333333,-0.041111111111111195],[0.5383333333333333,0.0005555555555554713],[0.5117708333333333,0.002962962962963005],[0.5253125,0.044999999999999915],[0.5367708333333333,0.07018518518518514],[0.5175,0.05259259259259255],[0.5154166666666666,0.019259259259259216],[0.5069791666666668,-0.011481481481481566],[0.4836458333333333,-0.03740740740740749],[0.4836458333333333,-0.03740740740740749],[0.4443749999999999,-0.053703703703703705],[0.4158333333333334,-0.08814814814814818],[0.3757291666666667,-0.1594444444444445],[0.35666666666666674,-0.18222222222222217],[0.3307291666666667,-0.23111111111111113],[0.30104166666666665,-0.2518518518518518],[0.3099999999999999,-0.2403703703703704],[0.3099999999999999,-0.2403703703703704],[0.32145833333333323,-0.2161111111111111],[0.32145833333333323,-0.2161111111111111],[0.3366666666666667,-0.19166666666666668],[0.3366666666666667,-0.19166666666666668],[0.3694791666666667,-0.1479629629629629],[0.3694791666666667,-0.1479629629629629],[0.3688541666666666,-0.16018518518518518],[0.3688541666666666,-0.16018518518518518],[0.39385416666666656,-0.11777777777777781],[0.39385416666666656,-0.11777777777777781],[0.4109375,-0.06925925925925921],[0.4048958333333334,-0.0668518518518519],[0.41354166666666664,-0.05333333333333336],[0.39781250000000007,-0.06574074074074074],[0.38479166666666675,-0.07925925925925928],[0.35208333333333336,-0.08981481481481482],[0.325,-0.09000000000000004],[0.2835416666666667,-0.1081481481481481],[0.2765625,-0.08962962962962959],[0.2211458333333333,-0.10907407407407403],[0.18958333333333333,-0.13203703703703706],[0.22145833333333323,-0.12759259259259256],[0.23697916666666666,-0.13037037037037033],[0.2704166666666666,-0.10388888888888893],[0.3011458333333332,-0.07629629629629628],[0.32697916666666677,-0.06425925925925924],[0.34343750000000006,-0.06277777777777774],[0.3790625000000001,-0.05425925925925928],[0.41468749999999993,-0.045740740740740825],[0.4410416666666668,-0.06351851851851854],[0.4786458333333333,-0.049629629629629544]]","[[0.3242708333333333,-0.20055555555555557,0.00020000000019138042],[0.3180208333333333,-0.22018518518518515,0.016500000000000625],[0.32177083333333345,-0.22888888888888892,0.033100000000558794],[0.3303124999999999,-0.2361111111111111,0.0498000000007508],[0.3502083333333334,-0.22722222222222221,0.07030000000074921],[0.3634375000000001,-0.18333333333333332,0.08560000000056078],[0.3910416666666668,-0.1574074074074074,0.09980000000074796],[0.3953125,-0.16518518518518516,0.11640000000037531],[0.40593750000000006,-0.15351851851851847,0.13310000000056021],[0.42239583333333336,-0.14833333333333337,0.14980000000074511],[0.4375,-0.15611111111111114,0.16660000000056385],[0.4460416666666667,-0.16203703703703703,0.18310000000056448],[0.44562499999999994,-0.14777777777777779,0.20000000000000284],[0.440625,-0.1381481481481482,0.21640000000037674],[0.4331249999999999,-0.1425925925925926,0.23310000000056164],[0.42166666666666663,-0.14333333333333328,0.24980000000074654],[0.40958333333333335,-0.1411111111111111,0.2665000000000006],[0.4078125,-0.167037037037037,0.28320000000019263],[0.38958333333333334,-0.20851851851851855,0.2998000000007508],[0.38875000000000004,-0.19814814814814816,0.3165000000000049],[0.4010416666666667,-0.1646296296296296,0.3332000000001898],[0.42041666666666655,-0.16203703703703703,0.3497000000001904],[0.4487499999999999,-0.17962962962962964,0.36650000000000205],[0.47416666666666674,-0.1646296296296296,0.3831000000005602],[0.5020833333333333,-0.13555555555555554,0.3998000000007451],[0.5311458333333334,-0.13481481481481483,0.41640000000037247],[0.5490624999999999,-0.10629629629629625,0.4331000000005645],[0.5680208333333333,-0.09000000000000004,0.44970000000019184],[0.5869791666666667,-0.07370370370370373,0.466600000000561],[0.5885416666666666,-0.10925925925925926,0.48310000000056164],[0.5771874999999999,-0.16370370370370366,0.49980000000074654],[0.5587500000000001,-0.18722222222222226,0.5165000000000006],[0.5460416666666668,-0.1794444444444444,0.5333000000007502],[0.53625,-0.20425925925925928,0.5498000000007508],[0.5223958333333333,-0.25277777777777777,0.5666000000005624],[0.5113541666666668,-0.2766666666666666,0.5831000000005631],[0.5228125000000001,-0.30092592592592593,0.5997000000001904],[0.5228125000000001,-0.30092592592592593,0.616500000000002],[0.5229166666666667,-0.28481481481481485,0.6333000000007445],[0.5178124999999999,-0.2729629629629629,0.6498000000007451],[0.5048958333333334,-0.25407407407407406,0.6665000000000063],[0.5017708333333334,-0.2242592592592593,0.6831000000005645],[0.49541666666666656,-0.205,0.6998000000007494],[0.4878124999999999,-0.225,0.7165000000000035],[0.48020833333333335,-0.24500000000000002,0.7331000000005616],[0.46593749999999995,-0.24240740740740738,0.7498000000007465],[0.4510416666666667,-0.2346296296296296,0.7665000000000006],[0.4276041666666667,-0.2564814814814815,0.7831000000005588],[0.4041666666666667,-0.2783333333333334,0.7997000000001862],[0.38562500000000005,-0.32833333333333337,0.8185000000000002],[0.3446875000000001,-0.3581481481481481,0.8333000000007473],[0.3272916666666667,-0.365925925925926,0.8500000000000014],[0.31312499999999993,-0.36314814814814816,0.8700000000000045],[0.28927083333333337,-0.3496296296296296,0.8837000000001893],[0.2743750000000001,-0.32222222222222224,0.9000000000000057],[0.27020833333333344,-0.29370370370370374,0.9165000000000063],[0.27374999999999994,-0.2631481481481482,0.9370000000000047],[0.28177083333333336,-0.2601851851851852,0.9499000000003761],[0.2617708333333333,-0.24240740740740738,0.9668000000007453],[0.24635416666666668,-0.20092592592592592,0.9857000000001861],[0.2833333333333333,-0.17962962962962964,1],[0.2998958333333334,-0.17240740740740745,1.016400000000374],[0.2808333333333332,-0.16740740740740737,1.0331000000005588],[0.27354166666666657,-0.17999999999999997,1.0497000000001862],[0.25729166666666664,-0.2064814814814815,1.0666000000005624],[0.24541666666666656,-0.24666666666666665,1.083100000000563],[0.228125,-0.28351851851851856,1.1020000000000039],[0.23406250000000003,-0.2740740740740741,1.1166000000005596],[0.26802083333333326,-0.2794444444444444,1.1334000000003783],[0.28229166666666666,-0.31870370370370377,1.1530000000000058],[0.2853125000000001,-0.3309259259259259,1.1674000000003772],[0.2640625,-0.3424074074074074,1.1833000000007488],[0.27843749999999995,-0.3516666666666666,1.199900000000376],[0.29177083333333326,-0.352962962962963,1.2195000000000036],[0.3233333333333334,-0.34759259259259256,1.2332000000001884],[0.33708333333333323,-0.32833333333333337,1.249700000000189],[0.34916666666666674,-0.31962962962962965,1.2690000000000055],[0.34395833333333337,-0.3274074074074074,1.2831000000005588],[0.3384375000000001,-0.32037037037037036,1.2998000000007508],[0.34833333333333344,-0.2707407407407407,1.3164000000003782],[0.3411458333333333,-0.2692592592592592,1.333100000000563],[0.35822916666666677,-0.26851851851851855,1.3497000000001904],[0.39010416666666664,-0.24074074074074073,1.3667000000001863],[0.41645833333333326,-0.20611111111111113,1.3831000000005602],[0.42197916666666657,-0.19962962962962966,1.3997000000001876],[0.46104166666666657,-0.17166666666666663,1.4164000000003725],[0.4658333333333334,-0.17092592592592595,1.4331000000005645],[0.4796875,-0.14759259259259258,1.4498000000007494],[0.4938541666666666,-0.13907407407407413,1.4665000000000035],[0.509375,-0.12814814814814812,1.4831000000005616],[0.5072916666666667,-0.11833333333333329,1.499700000000189],[0.5438541666666665,-0.09574074074074072,1.5166000000005653],[0.565625,-0.10018518518518522,1.5331000000005588],[0.5541666666666667,-0.11814814814814817,1.5497000000001862],[0.5548958333333334,-0.10166666666666663,1.5705000000000027],[0.5276041666666667,-0.0962962962962963,1.5854000000003765],[0.5345833333333334,-0.06370370370370367,1.599800000000748],[0.5256249999999999,-0.056296296296296254,1.6203000000007464],[0.5135416666666667,-0.06111111111111111,1.636200000000187],[0.5150000000000001,-0.05870370370370368,1.6498000000007451],[0.5402083333333333,-0.041111111111111195,1.6666000000005639],[0.5383333333333333,0.0005555555555554713,1.6831000000005645],[0.5117708333333333,0.002962962962963005,1.6998000000007494],[0.5253125,0.044999999999999915,1.7164000000003767],[0.5367708333333333,0.07018518518518514,1.7331000000005616],[0.5175,0.05259259259259255,1.749700000000189],[0.5154166666666666,0.019259259259259216,1.7697000000001921],[0.5069791666666668,-0.011481481481481566,1.7835000000000036],[0.4836458333333333,-0.03740740740740749,1.8039000000003753],[0.4836458333333333,-0.03740740740740749,1.8166000000005624],[0.4443749999999999,-0.053703703703703705,1.8332000000001898],[0.4158333333333334,-0.08814814814814818,1.8503000000007503],[0.3757291666666667,-0.1594444444444445,1.8673000000007463],[0.35666666666666674,-0.18222222222222217,1.8867000000001894],[0.3307291666666667,-0.23111111111111113,1.9027000000001877],[0.30104166666666665,-0.2518518518518518,1.9164000000003725],[0.3099999999999999,-0.2403703703703704,1.9331000000005645],[0.3099999999999999,-0.2403703703703704,1.9497000000001918],[0.32145833333333323,-0.2161111111111111,1.9664000000003767],[0.32145833333333323,-0.2161111111111111,1.983000000000004],[0.3366666666666667,-0.19166666666666668,1.999700000000189],[0.3366666666666667,-0.19166666666666668,2.016400000000374],[0.3694791666666667,-0.1479629629629629,2.0332000000001926],[0.3694791666666667,-0.1479629629629629,2.049800000000751],[0.3688541666666666,-0.16018518518518518,2.066500000000005],[0.3688541666666666,-0.16018518518518518,2.083100000000563],[0.39385416666666656,-0.11777777777777781,2.099800000000748],[0.39385416666666656,-0.11777777777777781,2.1164000000003753],[0.4109375,-0.06925925925925921,2.13310000000056],[0.4048958333333334,-0.0668518518518519,2.1497000000001876],[0.41354166666666664,-0.05333333333333336,2.168100000000564],[0.39781250000000007,-0.06574074074074074,2.1831000000005645],[0.38479166666666675,-0.07925925925925928,2.199700000000192],[0.35208333333333336,-0.08981481481481482,2.2164000000003767],[0.325,-0.09000000000000004,2.2331000000005616],[0.2835416666666667,-0.1081481481481481,2.249700000000189],[0.2765625,-0.08962962962962959,2.2665000000000006],[0.2211458333333333,-0.10907407407407403,2.283100000000559],[0.18958333333333333,-0.13203703703703706,2.300400000000373],[0.22145833333333323,-0.12759259259259256,2.316400000000378],[0.23697916666666666,-0.13037037037037033,2.3330000000000055],[0.2704166666666666,-0.10388888888888893,2.3497000000001904],[0.3011458333333332,-0.07629629629629628,2.3664000000003753],[0.32697916666666677,-0.06425925925925924,2.38310000000056],[0.34343750000000006,-0.06277777777777774,2.4022000000001924],[0.3790625000000001,-0.05425925925925928,2.4164000000003725],[0.41468749999999993,-0.045740740740740825,2.433],[0.4410416666666668,-0.06351851851851854,2.4498000000007494],[0.4786458333333333,-0.049629629629629544,2.4665000000000035]]","[0.00020000000019138042,0.016500000000000625,0.033100000000558794,0.0498000000007508,0.07030000000074921,0.08560000000056078,0.09980000000074796,0.11640000000037531,0.13310000000056021,0.14980000000074511,0.16660000000056385,0.18310000000056448,0.20000000000000284,0.21640000000037674,0.23310000000056164,0.24980000000074654,0.2665000000000006,0.28320000000019263,0.2998000000007508,0.3165000000000049,0.3332000000001898,0.3497000000001904,0.36650000000000205,0.3831000000005602,0.3998000000007451,0.41640000000037247,0.4331000000005645,0.44970000000019184,0.466600000000561,0.48310000000056164,0.49980000000074654,0.5165000000000006,0.5333000000007502,0.5498000000007508,0.5666000000005624,0.5831000000005631,0.5997000000001904,0.616500000000002,0.6333000000007445,0.6498000000007451,0.6665000000000063,0.6831000000005645,0.6998000000007494,0.7165000000000035,0.7331000000005616,0.7498000000007465,0.7665000000000006,0.7831000000005588,0.7997000000001862,0.8185000000000002,0.8333000000007473,0.8500000000000014,0.8700000000000045,0.8837000000001893,0.9000000000000057,0.9165000000000063,0.9370000000000047,0.9499000000003761,0.9668000000007453,0.9857000000001861,1,1.016400000000374,1.0331000000005588,1.0497000000001862,1.0666000000005624,1.083100000000563,1.1020000000000039,1.1166000000005596,1.1334000000003783,1.1530000000000058,1.1674000000003772,1.1833000000007488,1.199900000000376,1.2195000000000036,1.2332000000001884,1.249700000000189,1.2690000000000055,1.2831000000005588,1.2998000000007508,1.3164000000003782,1.333100000000563,1.3497000000001904,1.3667000000001863,1.3831000000005602,1.3997000000001876,1.4164000000003725,1.4331000000005645,1.4498000000007494,1.4665000000000035,1.4831000000005616,1.499700000000189,1.5166000000005653,1.5331000000005588,1.5497000000001862,1.5705000000000027,1.5854000000003765,1.599800000000748,1.6203000000007464,1.636200000000187,1.6498000000007451,1.6666000000005639,1.6831000000005645,1.6998000000007494,1.7164000000003767,1.7331000000005616,1.749700000000189,1.7697000000001921,1.7835000000000036,1.8039000000003753,1.8166000000005624,1.8332000000001898,1.8503000000007503,1.8673000000007463,1.8867000000001894,1.9027000000001877,1.9164000000003725,1.9331000000005645,1.9497000000001918,1.9664000000003767,1.983000000000004,1.999700000000189,2.016400000000374,2.0332000000001926,2.049800000000751,2.066500000000005,2.083100000000563,2.099800000000748,2.1164000000003753,2.13310000000056,2.1497000000001876,2.168100000000564,2.1831000000005645,2.199700000000192,2.2164000000003767,2.2331000000005616,2.249700000000189,2.2665000000000006,2.283100000000559,2.300400000000373,2.316400000000378,2.3330000000000055,2.3497000000001904,2.3664000000003753,2.38310000000056,2.4022000000001924,2.4164000000003725,2.433,2.4498000000007494,2.4665000000000035]","[1733117587091,1733117587106,1733117587123,1733117587139,1733117587160,1733117587175,1733117587189,1733117587206,1733117587223,1733117587239,1733117587256,1733117587272,1733117587289,1733117587306,1733117587323,1733117587339,1733117587356,1733117587373,1733117587389,1733117587406,1733117587423,1733117587439,1733117587456,1733117587473,1733117587489,1733117587506,1733117587523,1733117587539,1733117587556,1733117587572,1733117587589,1733117587606,1733117587623,1733117587639,1733117587656,1733117587673,1733117587689,1733117587706,1733117587723,1733117587739,1733117587756,1733117587773,1733117587789,1733117587806,1733117587823,1733117587839,1733117587856,1733117587873,1733117587889,1733117587908,1733117587923,1733117587939,1733117587959,1733117587973,1733117587989,1733117588006,1733117588026,1733117588039,1733117588056,1733117588075,1733117588089,1733117588106,1733117588123,1733117588139,1733117588156,1733117588173,1733117588191,1733117588206,1733117588223,1733117588242,1733117588257,1733117588273,1733117588289,1733117588309,1733117588323,1733117588339,1733117588358,1733117588373,1733117588389,1733117588406,1733117588423,1733117588439,1733117588456,1733117588473,1733117588489,1733117588506,1733117588523,1733117588539,1733117588556,1733117588573,1733117588589,1733117588606,1733117588622,1733117588639,1733117588660,1733117588675,1733117588689,1733117588710,1733117588726,1733117588739,1733117588756,1733117588773,1733117588789,1733117588806,1733117588823,1733117588839,1733117588859,1733117588873,1733117588893,1733117588906,1733117588923,1733117588940,1733117588957,1733117588976,1733117588992,1733117589006,1733117589023,1733117589039,1733117589056,1733117589072,1733117589089,1733117589106,1733117589123,1733117589139,1733117589156,1733117589173,1733117589189,1733117589206,1733117589223,1733117589239,1733117589257,1733117589273,1733117589289,1733117589306,1733117589323,1733117589339,1733117589356,1733117589373,1733117589390,1733117589406,1733117589422,1733117589439,1733117589456,1733117589472,1733117589492,1733117589506,1733117589522,1733117589539,1733117589556]","[[1271.3,431.7],[1265.3,421.1],[1268.9,416.4],[1277.1,412.5],[1296.2,417.3],[1308.9,441],[1335.4,455],[1339.5,450.8],[1349.7,457.1],[1365.5,459.9],[1380,455.7],[1388.2,452.5],[1387.8,460.2],[1383,465.4],[1375.8,463],[1364.8,462.6],[1353.2,463.8],[1351.5,449.8],[1334,427.4],[1333.2,433],[1345,451.1],[1363.6,452.5],[1390.8,443],[1415.2,451.1],[1442,466.8],[1469.9,467.2],[1487.1,482.6],[1505.3,491.4],[1523.5,500.2],[1525,481],[1514.1,451.6],[1496.4,438.9],[1484.2,443.1],[1474.8,429.7],[1461.5,403.5],[1450.9,390.6],[1461.9,377.5],[1461.9,377.5],[1462,386.2],[1457.1,392.6],[1444.7,402.8],[1441.7,418.9],[1435.6,429.3],[1428.3,418.5],[1421,407.7],[1407.3,409.1],[1393,413.3],[1370.5,401.5],[1348,389.7],[1330.2,362.7],[1290.9,346.6],[1274.2,342.4],[1260.6,343.9],[1237.7,351.2],[1223.4,366],[1219.4,381.4],[1222.8,397.9],[1230.5,399.5],[1211.3,409.1],[1196.5,431.5],[1232,443],[1247.9,446.9],[1229.6,449.6],[1222.6,442.8],[1207,428.5],[1195.6,406.8],[1179,386.9],[1184.7,392],[1217.3,389.1],[1231,367.9],[1233.9,361.3],[1213.5,355.1],[1227.3,350.1],[1240.1,349.4],[1270.4,352.3],[1283.6,362.7],[1295.2,367.4],[1290.2,363.2],[1284.9,367],[1294.4,393.8],[1287.5,394.6],[1303.9,395],[1334.5,410],[1359.8,428.7],[1365.1,432.2],[1402.6,447.3],[1407.2,447.7],[1420.5,460.3],[1434.1,464.9],[1449,470.8],[1447,476.1],[1482.1,488.3],[1503,485.9],[1492,476.2],[1492.7,485.1],[1466.5,488],[1473.2,505.6],[1464.6,509.6],[1453,507],[1454.4,508.3],[1478.6,517.8],[1476.8,540.3],[1451.3,541.6],[1464.3,564.3],[1475.3,577.9],[1456.8,568.4],[1454.8,550.4],[1446.7,533.8],[1424.3,519.8],[1424.3,519.8],[1386.6,511],[1359.2,492.4],[1320.7,453.9],[1302.4,441.6],[1277.5,415.2],[1249,404],[1257.6,410.2],[1257.6,410.2],[1268.6,423.3],[1268.6,423.3],[1283.2,436.5],[1283.2,436.5],[1314.7,460.1],[1314.7,460.1],[1314.1,453.5],[1314.1,453.5],[1338.1,476.4],[1338.1,476.4],[1354.5,502.6],[1348.7,503.9],[1357,511.2],[1341.9,504.5],[1329.4,497.2],[1298,491.5],[1272,491.4],[1232.2,481.6],[1225.5,491.6],[1172.3,481.1],[1142,468.7],[1172.6,471.1],[1187.5,469.6],[1219.6,483.9],[1249.1,498.8],[1273.9,505.3],[1289.7,506.1],[1323.9,510.7],[1358.1,515.3],[1383.4,505.7],[1419.5,513.2]]","[0,0.3527331528]","[0.3527331528,0.3527331528]","[-0.3527331528,0]","[-0.3527331528,-0.3527331528]","[0,0]","[0.3527331528,0]","[0,-0.3527331528]","[0.3527331528,-0.3527331528]",0,1,1,1,1,3,Tablet,5,5,13,7
,,,,,,,,,,,,,,,,,,,30,001,2024-12-02_13h32.27.691,Attention_exp_legacy,2023.1.0,Win32,60.60606061,,,,,,,,,,,[0.3385416666666667],[0.3425925925925926],[1],[0],[0],[1.4319000000003683],"[""Option2_label""]",Option2_label,3,2.4332,"[[-0.10729166666666666,0.40925925925925927],[-0.10833333333333334,0.40925925925925927],[-0.10833333333333334,0.40925925925925927],[-0.10833333333333334,0.40925925925925927],[-0.10833333333333334,0.40925925925925927],[-0.10833333333333334,0.40925925925925927],[-0.10833333333333334,0.40925925925925927],[-0.10833333333333334,0.40925925925925927],[-0.10833333333333334,0.40925925925925927],[-0.10833333333333334,0.40925925925925927],[-0.10833333333333334,0.40925925925925927],[-0.10833333333333334,0.40925925925925927],[-0.10833333333333334,0.40925925925925927],[-0.10833333333333334,0.40925925925925927],[-0.10833333333333334,0.40925925925925927],[-0.10833333333333334,0.40925925925925927],[-0.10833333333333334,0.4074074074074074],[-0.10833333333333334,0.4074074074074074],[-0.10729166666666666,0.40555555555555556],[-0.10520833333333333,0.40370370370370373],[-0.10416666666666667,0.40185185185185185],[-0.10104166666666667,0.40185185185185185],[-0.096875,0.39814814814814814],[-0.08854166666666667,0.3907407407407407],[-0.075,0.37962962962962965],[-0.06875,0.37592592592592594],[-0.053125,0.36666666666666664],[-0.04583333333333333,0.3611111111111111],[-0.03854166666666667,0.3537037037037037],[-0.03333333333333333,0.35],[-0.028125,0.34814814814814815],[-0.026041666666666668,0.34629629629629627],[-0.021875,0.34629629629629627],[-0.01875,0.34629629629629627],[-0.016666666666666666,0.34444444444444444],[-0.015625,0.34444444444444444],[-0.015625,0.34444444444444444],[-0.014583333333333334,0.34444444444444444],[-0.0125,0.3425925925925926],[-0.009375,0.3425925925925926],[-0.005208333333333333,0.3425925925925926],[0.0020833333333333333,0.3425925925925926],[0.013541666666666667,0.3425925925925926],[0.030208333333333334,0.3425925925925926],[0.053125,0.3425925925925926],[0.08125,0.3425925925925926],[0.11354166666666667,0.3425925925925926],[0.14375,0.3425925925925926],[0.18125,0.3425925925925926],[0.21145833333333333,0.3425925925925926],[0.2604166666666667,0.3425925925925926],[0.2875,0.3425925925925926],[0.30833333333333335,0.3425925925925926],[0.3229166666666667,0.3425925925925926],[0.33125,0.3425925925925926],[0.33541666666666664,0.3425925925925926],[0.3375,0.3425925925925926],[0.3385416666666667,0.3425925925925926],[0.3385416666666667,0.3425925925925926],[0.3385416666666667,0.3425925925925926],[0.3385416666666667,0.3425925925925926],[0.3385416666666667,0.3425925925925926],[0.3385416666666667,0.3425925925925926],[0.3385416666666667,0.3425925925925926],[0.3385416666666667,0.3425925925925926],[0.3385416666666667,0.3425925925925926],[0.3385416666666667,0.3425925925925926],[0.3385416666666667,0.3425925925925926],[0.3385416666666667,0.3425925925925926],[0.3385416666666667,0.3425925925925926],[0.3385416666666667,0.3425925925925926],[0.3385416666666667,0.3425925925925926],[0.3385416666666667,0.3425925925925926],[0.3385416666666667,0.3425925925925926],[0.3385416666666667,0.3425925925925926],[0.3385416666666667,0.3425925925925926],[0.3385416666666667,0.3425925925925926],[0.3385416666666667,0.3425925925925926],[0.3385416666666667,0.3425925925925926],[0.3385416666666667,0.3425925925925926],[0.3385416666666667,0.3425925925925926],[0.3385416666666667,0.3425925925925926],[0.3385416666666667,0.3425925925925926],[0.3385416666666667,0.3425925925925926],[0.3385416666666667,0.3425925925925926],[0.3385416666666667,0.3425925925925926],[0.3385416666666667,0.3425925925925926],[0.3385416666666667,0.3425925925925926],[0.3385416666666667,0.3425925925925926],[0.3385416666666667,0.3425925925925926],[0.3385416666666667,0.3425925925925926],[0.3385416666666667,0.3425925925925926],[0.3385416666666667,0.3425925925925926],[0.3385416666666667,0.3425925925925926],[0.3385416666666667,0.3425925925925926],[0.3385416666666667,0.3425925925925926],[0.3385416666666667,0.3425925925925926],[0.3385416666666667,0.3425925925925926],[0.3385416666666667,0.3425925925925926],[0.3385416666666667,0.3425925925925926],[0.3385416666666667,0.3425925925925926],[0.3385416666666667,0.3425925925925926],[0.3385416666666667,0.3425925925925926],[0.3385416666666667,0.3425925925925926],[0.3385416666666667,0.3425925925925926],[0.3385416666666667,0.3425925925925926],[0.3385416666666667,0.3425925925925926],[0.3385416666666667,0.3425925925925926],[0.3385416666666667,0.3425925925925926],[0.3385416666666667,0.3425925925925926],[0.3385416666666667,0.3425925925925926],[0.3385416666666667,0.3425925925925926],[0.3385416666666667,0.3425925925925926],[0.3385416666666667,0.3425925925925926],[0.3385416666666667,0.3425925925925926],[0.3385416666666667,0.3425925925925926],[0.3385416666666667,0.3425925925925926],[0.3385416666666667,0.3425925925925926],[0.3385416666666667,0.3425925925925926],[0.3385416666666667,0.3425925925925926],[0.3385416666666667,0.3425925925925926],[0.3385416666666667,0.3425925925925926],[0.3385416666666667,0.3425925925925926],[0.3385416666666667,0.3425925925925926],[0.3385416666666667,0.3425925925925926],[0.3385416666666667,0.3425925925925926],[0.3385416666666667,0.3425925925925926],[0.3385416666666667,0.3425925925925926],[0.3385416666666667,0.3425925925925926],[0.3385416666666667,0.3425925925925926],[0.3385416666666667,0.3425925925925926],[0.3385416666666667,0.3425925925925926],[0.3385416666666667,0.3425925925925926],[0.3385416666666667,0.3425925925925926],[0.3385416666666667,0.3425925925925926],[0.3385416666666667,0.3425925925925926],[0.3385416666666667,0.3425925925925926],[0.3385416666666667,0.3425925925925926],[0.3385416666666667,0.3425925925925926],[0.3385416666666667,0.3425925925925926],[0.3385416666666667,0.3425925925925926],[0.3385416666666667,0.3425925925925926],[0.3385416666666667,0.3425925925925926],[0.3385416666666667,0.3425925925925926],[0.3385416666666667,0.3425925925925926],[0.3385416666666667,0.3425925925925926],[0.3385416666666667,0.3425925925925926]]","[[0.23802083333333332,-0.33259259259259266],[0.2693749999999999,-0.327962962962963],[0.24406249999999996,-0.362962962962963],[0.19604166666666673,-0.3990740740740741],[0.1540625000000001,-0.459074074074074],[0.10208333333333333,-0.48333333333333334],[0.07739583333333329,-0.49851851851851847],[0.0626041666666667,-0.5142592592592592],[0.024062500000000025,-0.5401851851851852],[0.024062500000000025,-0.5401851851851852],[-0.02364583333333338,-0.5668518518518519],[-0.051250000000000046,-0.6096296296296296],[-0.08104166666666662,-0.653888888888889],[-0.08104166666666662,-0.653888888888889],[-0.05406249999999998,-0.6444444444444445],[-0.03687499999999998,-0.620925925925926],[-0.024062500000000025,-0.5805555555555556],[-0.020833333333333332,-0.5655555555555555],[-0.01270833333333338,-0.5403703703703704],[-0.0015625,-0.5459259259259259],[0.0005208333333333333,-0.5537037037037037],[0.027499999999999976,-0.5375925925925926],[0.009895833333333333,-0.49796296296296294],[-0.005520833333333286,-0.45685185185185184],[0.008124999999999953,-0.4377777777777777],[0.010000000000000024,-0.4316666666666667],[0.04083333333333338,-0.40481481481481485],[0.09072916666666657,-0.36740740740740735],[0.08645833333333333,-0.3520370370370371],[0.07364583333333338,-0.31074074074074076],[0.11104166666666657,-0.27314814814814814],[0.1390625,-0.2609259259259259],[0.14833333333333343,-0.2603703703703704],[0.13177083333333334,-0.28277777777777774],[0.10864583333333329,-0.2905555555555555],[0.09468750000000009,-0.3127777777777777],[0.05010416666666669,-0.34870370370370374],[0.050520833333333334,-0.34314814814814815],[0.05135416666666662,-0.3442592592592592],[0.08020833333333334,-0.34740740740740744],[0.08020833333333334,-0.34740740740740744],[0.06166666666666672,-0.38],[0.06166666666666672,-0.38],[0.005104166666666643,-0.425],[0.005104166666666643,-0.425],[-0.012812499999999952,-0.45740740740740743],[-0.012812499999999952,-0.45740740740740743],[0.005729166666666666,-0.48277777777777775],[0.005729166666666666,-0.48277777777777775],[0.034375,-0.465],[0.034375,-0.465],[0.058124999999999954,-0.44611111111111107],[0.08468749999999996,-0.4140740740740741],[0.07937500000000004,-0.4196296296296297],[0.08229166666666667,-0.45314814814814813],[0.057187499999999974,-0.48462962962962963],[0.036354166666666646,-0.475],[0.05333333333333338,-0.4479629629629629],[0.07177083333333342,-0.427962962962963],[0.08666666666666671,-0.37759259259259254],[0.08895833333333343,-0.3609259259259259],[0.08760416666666657,-0.3622222222222223],[0.0834374999999999,-0.37666666666666665],[0.07468750000000005,-0.37759259259259254],[0.09520833333333342,-0.3448148148148148],[0.12416666666666672,-0.2964814814814815],[0.14333333333333323,-0.2846296296296296],[0.18125,-0.30462962962962964],[0.20281250000000003,-0.3138888888888889],[0.20281250000000003,-0.3138888888888889],[0.24635416666666668,-0.3177777777777778],[0.2764583333333334,-0.3153703703703704],[0.34135416666666674,-0.3022222222222222],[0.40625,-0.2890740740740741],[0.3914583333333333,-0.27462962962962967],[0.3766666666666666,-0.2601851851851852],[0.3454166666666666,-0.30999999999999994],[0.3486458333333334,-0.3538888888888889],[0.3263541666666666,-0.33296296296296296],[0.3207291666666668,-0.31425925925925924],[0.26062500000000005,-0.34222222222222226],[0.21395833333333342,-0.37648148148148153],[0.18937499999999996,-0.372037037037037],[0.16479166666666673,-0.3675925925925926],[0.19375,-0.37296296296296294],[0.21541666666666662,-0.37222222222222223],[0.24510416666666662,-0.3227777777777778],[0.2319791666666667,-0.27740740740740744],[0.23718750000000005,-0.2651851851851852],[0.2526041666666667,-0.2992592592592593],[0.2904166666666666,-0.28703703703703703],[0.31229166666666663,-0.24537037037037038],[0.28583333333333344,-0.23629629629629634],[0.27395833333333336,-0.24203703703703702],[0.2671875,-0.23129629629629625],[0.2595833333333334,-0.21203703703703702],[0.24791666666666667,-0.22018518518518515],[0.25010416666666657,-0.23481481481481484],[0.24375,-0.23166666666666672],[0.2271874999999999,-0.18222222222222217],[0.22010416666666663,-0.14296296296296293],[0.2289583333333333,-0.1331481481481481],[0.234375,-0.14833333333333337],[0.22520833333333337,-0.14870370370370373],[0.21916666666666676,-0.12759259259259256],[0.22125000000000009,-0.12111111111111107],[0.228125,-0.1096296296296296],[0.22760416666666666,-0.11203703703703703],[0.23145833333333338,-0.11814814814814817],[0.2522916666666667,-0.13851851851851854],[0.26666666666666666,-0.16814814814814816],[0.27999999999999997,-0.19000000000000003],[0.3025000000000001,-0.17370370370370372],[0.30437500000000006,-0.1361111111111111],[0.30614583333333345,-0.13055555555555556],[0.3146874999999999,-0.1427777777777778],[0.32708333333333334,-0.1316666666666667],[0.34489583333333323,-0.11018518518518519],[0.35125000000000006,-0.08296296296296299],[0.340625,-0.04148148148148144],[0.3325000000000001,0.0011111111111111532],[0.32541666666666674,0.03592592592592588],[0.31572916666666656,0.07111111111111107],[0.32666666666666655,0.08499999999999996],[0.3333333333333333,0.06314814814814819],[0.33322916666666674,0.05907407407407403],[0.3485416666666666,0.06074074074074066],[0.36354166666666665,0.07703703703703708],[0.3867708333333333,0.10314814814814824],[0.4099999999999999,0.12925925925925918],[0.4099999999999999,0.12925925925925918],[0.3953125,0.12629629629629638],[0.3806250000000001,0.12333333333333338],[0.3692708333333333,0.1],[0.35791666666666655,0.07666666666666662],[0.35479166666666656,0.1124074074074075],[0.35166666666666657,0.14814814814814814],[0.3186458333333334,0.13796296296296295],[0.2851041666666667,0.14296296296296304],[0.26239583333333344,0.10574074074074079],[0.234375,0.08629629629629634],[0.23729166666666662,0.07018518518518514],[0.2478125000000001,0.06925925925925921],[0.2478125000000001,0.06925925925925921],[0.25281250000000005,0.09129629629629621],[0.265625,0.09592592592592585],[0.2627083333333334,0.07259259259259268]]","[[0.23802083333333332,-0.33259259259259266,0],[0.2693749999999999,-0.327962962962963,0.020600000000563057],[0.24406249999999996,-0.362962962962963,0.0352999999998147],[0.19604166666666673,-0.3990740740740741,0.050100000000561806],[0.1540625000000001,-0.459074074074074,0.06710000000055771],[0.10208333333333333,-0.48333333333333334,0.0835000000000008],[0.07739583333333329,-0.49851851851851847,0.10010000000055896],[0.0626041666666667,-0.5142592592592592,0.11650000000000205],[0.024062500000000025,-0.5401851851851852,0.13770000000018712],[0.024062500000000025,-0.5401851851851852,0.14990000000037185],[-0.02364583333333338,-0.5668518518518519,0.1664999999999992],[-0.051250000000000046,-0.6096296296296296,0.1832000000001841],[-0.08104166666666662,-0.653888888888889,0.20210000000056283],[-0.08104166666666662,-0.653888888888889,0.21940000000037685],[-0.05406249999999998,-0.6444444444444445,0.23820000000018382],[-0.03687499999999998,-0.620925925925926,0.2532000000001844],[-0.024062500000000025,-0.5805555555555556,0.2689000000003716],[-0.020833333333333332,-0.5655555555555555,0.2834000000003769],[-0.01270833333333338,-0.5403703703703704,0.30000000000000426],[-0.0015625,-0.5459259259259259,0.319799999999816],[0.0005208333333333333,-0.5537037037037037,0.33340000000037406],[0.027499999999999976,-0.5375925925925926,0.35010000000055896],[0.009895833333333333,-0.49796296296296294,0.36679999999981305],[-0.005520833333333286,-0.45685185185185184,0.38720000000018473],[0.008124999999999953,-0.4377777777777777,0.40179999999981675],[0.010000000000000024,-0.4316666666666667,0.4167000000001906],[0.04083333333333338,-0.40481481481481485,0.4335000000000022],[0.09072916666666657,-0.36740740740740735,0.45329999999981396],[0.08645833333333333,-0.3520370370370371,0.466900000000372],[0.07364583333333338,-0.31074074074074076,0.4852000000001837],[0.11104166666666657,-0.27314814814814814,0.50210000000056],[0.1390625,-0.2609259259259259,0.5166000000005582],[0.14833333333333343,-0.2603703703703704,0.5336000000005612],[0.13177083333333334,-0.28277777777777774,0.5536000000005572],[0.10864583333333329,-0.2905555555555555,0.5689000000003759],[0.09468750000000009,-0.3127777777777777,0.5840000000000032],[0.05010416666666669,-0.34870370370370374,0.5999000000003747],[0.050520833333333334,-0.34314814814814815,0.6199000000003707],[0.05135416666666662,-0.3442592592592592,0.6332999999998137],[0.08020833333333334,-0.34740740740740744,0.6499999999999986],[0.08020833333333334,-0.34740740740740744,0.6666000000005567],[0.06166666666666672,-0.38,0.6882999999998134],[0.06166666666666672,-0.38,0.7000000000000028],[0.005104166666666643,-0.425,0.7167000000001877],[0.005104166666666643,-0.425,0.7332999999998151],[-0.012812499999999952,-0.45740740740740743,0.7552999999998136],[-0.012812499999999952,-0.45740740740740743,0.7666000000005582],[0.005729166666666666,-0.48277777777777775,0.7837999999998146],[0.005729166666666666,-0.48277777777777775,0.8047999999998154],[0.034375,-0.465,0.8167000000001892],[0.034375,-0.465,0.8332999999998165],[0.058124999999999954,-0.44611111111111107,0.8500000000000014],[0.08468749999999996,-0.4140740740740741,0.868600000000562],[0.07937500000000004,-0.4196296296296297,0.883499999999998],[0.08229166666666667,-0.45314814814814813,0.90020000000019],[0.057187499999999974,-0.48462962962962963,0.919900000000375],[0.036354166666666646,-0.475,0.9337000000001865],[0.05333333333333338,-0.4479629629629629,0.9500000000000028],[0.07177083333333342,-0.427962962962963,0.9665000000000035],[0.08666666666666671,-0.37759259259259254,0.9832000000001884],[0.08895833333333343,-0.3609259259259259,0.9997999999998157],[0.08760416666666657,-0.3622222222222223,1.0165000000000006],[0.0834374999999999,-0.37666666666666665,1.0332000000001855],[0.07468750000000005,-0.37759259259259254,1.0499000000003704],[0.09520833333333342,-0.3448148148148148,1.0664999999999978],[0.12416666666666672,-0.2964814814814815,1.0836000000005583],[0.14333333333333323,-0.2846296296296296,1.0999000000003747],[0.18125,-0.30462962962962964,1.116500000000002],[0.20281250000000003,-0.3138888888888889,1.1367999999998162],[0.20281250000000003,-0.3138888888888889,1.1499999999999986],[0.24635416666666668,-0.3177777777777778,1.1664999999999992],[0.2764583333333334,-0.3153703703703704,1.1836000000005598],[0.34135416666666674,-0.3022222222222222,1.1997999999998115],[0.40625,-0.2890740740740741,1.2165000000000035],[0.3914583333333333,-0.27462962962962967,1.2332000000001884],[0.3766666666666666,-0.2601851851851852,1.2499000000003733],[0.3454166666666666,-0.30999999999999994,1.266400000000374],[0.3486458333333334,-0.3538888888888889,1.2832000000001855],[0.3263541666666666,-0.33296296296296296,1.2997999999998129],[0.3207291666666668,-0.31425925925925924,1.3167000000001892],[0.26062500000000005,-0.34222222222222226,1.333100000000563],[0.21395833333333342,-0.37648148148148153,1.3497999999998171],[0.18937499999999996,-0.372037037037037,1.3666000000005596],[0.16479166666666673,-0.3675925925925926,1.383200000000187],[0.19375,-0.37296296296296294,1.3999000000003718],[0.21541666666666662,-0.37222222222222223,1.4166000000005567],[0.24510416666666662,-0.3227777777777778,1.4331000000005574],[0.2319791666666667,-0.27740740740740744,1.449900000000376],[0.23718750000000005,-0.2651851851851852,1.4665000000000035],[0.2526041666666667,-0.2992592592592593,1.4832000000001884],[0.2904166666666666,-0.28703703703703703,1.4997999999998157],[0.31229166666666663,-0.24537037037037038,1.516700000000185],[0.28583333333333344,-0.23629629629629634,1.5332000000001855],[0.27395833333333336,-0.24203703703703702,1.5497999999998129],[0.2671875,-0.23129629629629625,1.5664999999999978],[0.2595833333333334,-0.21203703703703702,1.5832999999998165],[0.24791666666666667,-0.22018518518518515,1.5999000000003747],[0.25010416666666657,-0.23481481481481484,1.6166000000005596],[0.24375,-0.23166666666666672,1.6331000000005602],[0.2271874999999999,-0.18222222222222217,1.6497999999998143],[0.22010416666666663,-0.14296296296296293,1.6666000000005567],[0.2289583333333333,-0.1331481481481481,1.683200000000184],[0.234375,-0.14833333333333337,1.6997999999998115],[0.22520833333333337,-0.14870370370370373,1.716600000000561],[0.21916666666666676,-0.12759259259259256,1.7332000000001884],[0.22125000000000009,-0.12111111111111107,1.7497999999998157],[0.228125,-0.1096296296296296,1.7665000000000006],[0.22760416666666666,-0.11203703703703703,1.7835000000000036],[0.23145833333333338,-0.11814814814814817,1.7997999999998129],[0.2522916666666667,-0.13851851851851854,1.8164999999999978],[0.26666666666666666,-0.16814814814814816,1.833100000000563],[0.27999999999999997,-0.19000000000000003,1.8499000000003747],[0.3025000000000001,-0.17370370370370372,1.866500000000002],[0.30437500000000006,-0.1361111111111111,1.8834000000003712],[0.30614583333333345,-0.13055555555555556,1.8997999999998143],[0.3146874999999999,-0.1427777777777778,1.9164999999999992],[0.32708333333333334,-0.1316666666666667,1.933200000000184],[0.34489583333333323,-0.11018518518518519,1.9497999999998115],[0.35125000000000006,-0.08296296296296299,1.9665000000000035],[0.340625,-0.04148148148148144,1.983299999999815],[0.3325000000000001,0.0011111111111111532,1.9997999999998157],[0.32541666666666674,0.03592592592592588,2.016600000000558],[0.31572916666666656,0.07111111111111107,2.0332000000001855],[0.32666666666666655,0.08499999999999996,2.0499000000003704],[0.3333333333333333,0.06314814814814819,2.066499999999998],[0.33322916666666674,0.05907407407407403,2.08320000000019],[0.3485416666666666,0.06074074074074066,2.099799999999817],[0.36354166666666665,0.07703703703703708,2.1164000000003753],[0.3867708333333333,0.10314814814814824,2.137500000000003],[0.4099999999999999,0.12925925925925918,2.1537000000001854],[0.4099999999999999,0.12925925925925918,2.166499999999999],[0.3953125,0.12629629629629638,2.183299999999818],[0.3806250000000001,0.12333333333333338,2.1997999999998115],[0.3692708333333333,0.1,2.216600000000561],[0.35791666666666655,0.07666666666666662,2.2331000000005616],[0.35479166666666656,0.1124074074074075,2.2501000000005575],[0.35166666666666657,0.14814814814814814,2.266400000000374],[0.3186458333333334,0.13796296296296295,2.2832000000001855],[0.2851041666666667,0.14296296296296304,2.299799999999813],[0.26239583333333344,0.10574074074074079,2.316499999999998],[0.234375,0.08629629629629634,2.33320000000019],[0.23729166666666662,0.07018518518518514,2.349799999999817],[0.2478125000000001,0.06925925925925921,2.3666000000005596],[0.2478125000000001,0.06925925925925921,2.383499999999998],[0.25281250000000005,0.09129629629629621,2.400100000000556],[0.265625,0.09592592592592585,2.4167999999998173],[0.2627083333333334,0.07259259259259268,2.433200000000184]]","[0,0.020600000000563057,0.0352999999998147,0.050100000000561806,0.06710000000055771,0.0835000000000008,0.10010000000055896,0.11650000000000205,0.13770000000018712,0.14990000000037185,0.1664999999999992,0.1832000000001841,0.20210000000056283,0.21940000000037685,0.23820000000018382,0.2532000000001844,0.2689000000003716,0.2834000000003769,0.30000000000000426,0.319799999999816,0.33340000000037406,0.35010000000055896,0.36679999999981305,0.38720000000018473,0.40179999999981675,0.4167000000001906,0.4335000000000022,0.45329999999981396,0.466900000000372,0.4852000000001837,0.50210000000056,0.5166000000005582,0.5336000000005612,0.5536000000005572,0.5689000000003759,0.5840000000000032,0.5999000000003747,0.6199000000003707,0.6332999999998137,0.6499999999999986,0.6666000000005567,0.6882999999998134,0.7000000000000028,0.7167000000001877,0.7332999999998151,0.7552999999998136,0.7666000000005582,0.7837999999998146,0.8047999999998154,0.8167000000001892,0.8332999999998165,0.8500000000000014,0.868600000000562,0.883499999999998,0.90020000000019,0.919900000000375,0.9337000000001865,0.9500000000000028,0.9665000000000035,0.9832000000001884,0.9997999999998157,1.0165000000000006,1.0332000000001855,1.0499000000003704,1.0664999999999978,1.0836000000005583,1.0999000000003747,1.116500000000002,1.1367999999998162,1.1499999999999986,1.1664999999999992,1.1836000000005598,1.1997999999998115,1.2165000000000035,1.2332000000001884,1.2499000000003733,1.266400000000374,1.2832000000001855,1.2997999999998129,1.3167000000001892,1.333100000000563,1.3497999999998171,1.3666000000005596,1.383200000000187,1.3999000000003718,1.4166000000005567,1.4331000000005574,1.449900000000376,1.4665000000000035,1.4832000000001884,1.4997999999998157,1.516700000000185,1.5332000000001855,1.5497999999998129,1.5664999999999978,1.5832999999998165,1.5999000000003747,1.6166000000005596,1.6331000000005602,1.6497999999998143,1.6666000000005567,1.683200000000184,1.6997999999998115,1.716600000000561,1.7332000000001884,1.7497999999998157,1.7665000000000006,1.7835000000000036,1.7997999999998129,1.8164999999999978,1.833100000000563,1.8499000000003747,1.866500000000002,1.8834000000003712,1.8997999999998143,1.9164999999999992,1.933200000000184,1.9497999999998115,1.9665000000000035,1.983299999999815,1.9997999999998157,2.016600000000558,2.0332000000001855,2.0499000000003704,2.066499999999998,2.08320000000019,2.099799999999817,2.1164000000003753,2.137500000000003,2.1537000000001854,2.166499999999999,2.183299999999818,2.1997999999998115,2.216600000000561,2.2331000000005616,2.2501000000005575,2.266400000000374,2.2832000000001855,2.299799999999813,2.316499999999998,2.33320000000019,2.349799999999817,2.3666000000005596,2.383499999999998,2.400100000000556,2.4167999999998173,2.433200000000184]","[1733117590574,1733117590593,1733117590608,1733117590623,1733117590640,1733117590656,1733117590673,1733117590689,1733117590710,1733117590723,1733117590739,1733117590756,1733117590775,1733117590792,1733117590811,1733117590826,1733117590842,1733117590856,1733117590873,1733117590892,1733117590906,1733117590923,1733117590939,1733117590960,1733117590974,1733117590989,1733117591006,1733117591026,1733117591039,1733117591058,1733117591075,1733117591089,1733117591106,1733117591127,1733117591142,1733117591157,1733117591173,1733117591193,1733117591207,1733117591223,1733117591240,1733117591262,1733117591273,1733117591290,1733117591307,1733117591329,1733117591340,1733117591357,1733117591378,1733117591390,1733117591407,1733117591423,1733117591442,1733117591457,1733117591473,1733117591493,1733117591507,1733117591523,1733117591540,1733117591556,1733117591573,1733117591590,1733117591606,1733117591623,1733117591640,1733117591657,1733117591673,1733117591690,1733117591710,1733117591723,1733117591740,1733117591757,1733117591773,1733117591790,1733117591806,1733117591823,1733117591840,1733117591856,1733117591873,1733117591890,1733117591906,1733117591923,1733117591940,1733117591956,1733117591973,1733117591990,1733117592006,1733117592023,1733117592040,1733117592056,1733117592073,1733117592090,1733117592106,1733117592123,1733117592140,1733117592157,1733117592173,1733117592190,1733117592206,1733117592223,1733117592240,1733117592256,1733117592273,1733117592290,1733117592306,1733117592323,1733117592340,1733117592357,1733117592373,1733117592390,1733117592406,1733117592423,1733117592440,1733117592457,1733117592473,1733117592490,1733117592506,1733117592523,1733117592540,1733117592557,1733117592573,1733117592590,1733117592606,1733117592623,1733117592640,1733117592656,1733117592673,1733117592690,1733117592711,1733117592727,1733117592740,1733117592757,1733117592773,1733117592790,1733117592806,1733117592823,1733117592840,1733117592856,1733117592873,1733117592890,1733117592906,1733117592923,1733117592940,1733117592957,1733117592973,1733117592990,1733117593006]","[[1188.5,360.4],[1218.6,362.9],[1194.3,344],[1148.2,324.5],[1107.9,292.1],[1058,279],[1034.3,270.8],[1020.1,262.3],[983.1,248.3],[983.1,248.3],[937.3,233.9],[910.8,210.8],[882.2,186.9],[882.2,186.9],[908.1,192],[924.6,204.7],[936.9,226.5],[940,234.6],[947.8,248.2],[958.5,245.2],[960.5,241],[986.4,249.7],[969.5,271.1],[954.7,293.3],[967.8,303.6],[969.6,306.9],[999.2,321.4],[1047.1,341.6],[1043,349.9],[1030.7,372.2],[1066.6,392.5],[1093.5,399.1],[1102.4,399.4],[1086.5,387.3],[1064.3,383.1],[1050.9,371.1],[1008.1,351.7],[1008.5,354.7],[1009.3,354.1],[1037,352.4],[1037,352.4],[1019.2,334.8],[1019.2,334.8],[964.9,310.5],[964.9,310.5],[947.7,293],[947.7,293],[965.5,279.3],[965.5,279.3],[993,288.9],[993,288.9],[1015.8,299.1],[1041.3,316.4],[1036.2,313.4],[1039,295.3],[1014.9,278.3],[994.9,283.5],[1011.2,298.1],[1028.9,308.9],[1043.2,336.1],[1045.4,345.1],[1044.1,344.4],[1040.1,336.6],[1031.7,336.1],[1051.4,353.8],[1079.2,379.9],[1097.6,386.3],[1134,375.5],[1154.7,370.5],[1154.7,370.5],[1196.5,368.4],[1225.4,369.7],[1287.7,376.8],[1350,383.9],[1335.8,391.7],[1321.6,399.5],[1291.6,372.6],[1294.7,348.9],[1273.3,360.2],[1267.9,370.3],[1210.2,355.2],[1165.4,336.7],[1141.8,339.1],[1118.2,341.5],[1146,338.6],[1166.8,339],[1195.3,365.7],[1182.7,390.2],[1187.7,396.8],[1202.5,378.4],[1238.8,385],[1259.8,407.5],[1234.4,412.4],[1223,409.3],[1216.5,415.1],[1209.2,425.5],[1198,421.1],[1200.1,413.2],[1194,414.9],[1178.1,441.6],[1171.3,462.8],[1179.8,468.1],[1185,459.9],[1176.2,459.7],[1170.4,471.1],[1172.4,474.6],[1179,480.8],[1178.5,479.5],[1182.2,476.2],[1202.2,465.2],[1216,449.2],[1228.8,437.4],[1250.4,446.2],[1252.2,466.5],[1253.9,469.5],[1262.1,462.9],[1274,468.9],[1291.1,480.5],[1297.2,495.2],[1287,517.6],[1279.2,540.6],[1272.4,559.4],[1263.1,578.4],[1273.6,585.9],[1280,574.1],[1279.9,571.9],[1294.6,572.8],[1309,581.6],[1331.3,595.7],[1353.6,609.8],[1353.6,609.8],[1339.5,608.2],[1325.4,606.6],[1314.5,594],[1303.6,581.4],[1300.6,600.7],[1297.6,620],[1265.9,614.5],[1233.7,617.2],[1211.9,597.1],[1185,586.6],[1187.8,577.9],[1197.9,577.4],[1197.9,577.4],[1202.7,589.3],[1215,591.8],[1212.2,579.2]]","[0,0.3527331528]","[0.3527331528,0.3527331528]","[-0.3527331528,0]","[-0.3527331528,-0.3527331528]","[0,0]","[0.3527331528,0]","[0,-0.3527331528]","[0.3527331528,-0.3527331528]",0,2,2,2,1,3,Tablet,5,5,15,9
