inst1_resp.keys,inst1_resp.rt,calibrationMouse.x,calibrationMouse.y,calibrationMouse.leftButton,calibrationMouse.midButton,calibrationMouse.rightButton,calibrationClick.x,calibrationClick.y,calibrationClick.leftButton,calibrationClick.midButton,calibrationClick.rightButton,trialsc.thisRepN,trialsc.thisTrialN,trialsc.thisN,trialsc.thisIndex,trialsc.ran,calibration_x,calibration_y,participant,session,date,expName,psychopyVersion,OS,frameRate,calibrationClick.clicked_name,ScreenRes_pixels,mouse_2.x,mouse_2.y,mouse_2.leftButton,mouse_2.midButton,mouse_2.rightButton,mouse_2.time,mouse_2.clicked_name,Camera_pixels,mouse.x,mouse.y,mouse.leftButton,mouse.midButton,mouse.rightButton,mouse.time,mouse.clicked_name,Choice,Trial,TrialDuration,MOUSE_GAZE,ET_GAZE,ET_GAZE_x_T,time,unixTime,ET_GAZE_NF,Loc_Option1_label,Loc_Option2_label,Loc_Cost_label,Loc_Qual_label,Loc_Option1_cost,Loc_Option2_cost,Loc_Option1_quality,Loc_Option2_quality,trials.thisRepN,trials.thisTrialN,trials.thisN,trials.thisIndex,trials.ran,Block,Device,cost1,qual1,cost2,qual2
space,1.3674,-0.259375,0.388888889,1,0,0,-0.33125,-0.692592593,1,0,0,0,0,0,4,1,-0.33,-0.67,03,001,2024-12-02_12h32.48.972,Attention_exp_legacy,2023.1.0,Win32,59.88023952,,,,,,,,,,,,,,,,,,,,,,,,,,,,,,,,,,,,,,,,,,,,,
,,,,,,,-0.339583333,0.67037037,1,0,0,0,1,1,8,1,-0.33,0.67,03,001,2024-12-02_12h32.48.972,Attention_exp_legacy,2023.1.0,Win32,59.88023952,calibration_square,,,,,,,,,,,,,,,,,,,,,,,,,,,,,,,,,,,,,,,,,,,,
,,,,,,,0.0125,0,1,0,0,0,2,2,11,1,0,0,03,001,2024-12-02_12h32.48.972,Attention_exp_legacy,2023.1.0,Win32,59.88023952,,,,,,,,,,,,,,,,,,,,,,,,,,,,,,,,,,,,,,,,,,,,,
,,,,,,,-0.339583333,0.335185185,1,0,0,0,3,3,7,1,-0.33,0.33,03,001,2024-12-02_12h32.48.972,Attention_exp_legacy,2023.1.0,Win32,59.88023952,calibration_square,,,,,,,,,,,,,,,,,,,,,,,,,,,,,,,,,,,,,,,,,,,,
,,,,,,,0.327083333,0.342592593,1,0,0,0,4,4,17,1,0.33,0.33,03,001,2024-12-02_12h32.48.972,Attention_exp_legacy,2023.1.0,Win32,59.88023952,,,,,,,,,,,,,,,,,,,,,,,,,,,,,,,,,,,,,,,,,,,,,
,,,,,,,0.667708333,-0.662962963,1,0,0,0,5,5,20,1,0.67,-0.67,03,001,2024-12-02_12h32.48.972,Attention_exp_legacy,2023.1.0,Win32,59.88023952,calibration_square,,,,,,,,,,,,,,,,,,,,,,,,,,,,,,,,,,,,,,,,,,,,
,,,,,,,0.329166667,0.642592593,1,0,0,0,6,6,18,1,0.33,0.67,03,001,2024-12-02_12h32.48.972,Attention_exp_legacy,2023.1.0,Win32,59.88023952,,,,,,,,,,,,,,,,,,,,,,,,,,,,,,,,,,,,,,,,,,,,,
,,,,,,,0.320833333,-0.32037037,1,0,0,0,7,7,15,1,0.33,-0.33,03,001,2024-12-02_12h32.48.972,Attention_exp_legacy,2023.1.0,Win32,59.88023952,calibration_square,,,,,,,,,,,,,,,,,,,,,,,,,,,,,,,,,,,,,,,,,,,,
,,,,,,,-0.33125,-0.322222222,1,0,0,0,8,8,5,1,-0.33,-0.33,03,001,2024-12-02_12h32.48.972,Attention_exp_legacy,2023.1.0,Win32,59.88023952,calibration_square,,,,,,,,,,,,,,,,,,,,,,,,,,,,,,,,,,,,,,,,,,,,
,,,,,,,-0.677083333,-0.316666667,1,0,0,0,9,9,1,1,-0.67,-0.33,03,001,2024-12-02_12h32.48.972,Attention_exp_legacy,2023.1.0,Win32,59.88023952,,,,,,,,,,,,,,,,,,,,,,,,,,,,,,,,,,,,,,,,,,,,,
,,,,,,,0.00625,-0.338888889,1,0,0,0,10,10,10,1,0,-0.33,03,001,2024-12-02_12h32.48.972,Attention_exp_legacy,2023.1.0,Win32,59.88023952,calibration_square,,,,,,,,,,,,,,,,,,,,,,,,,,,,,,,,,,,,,,,,,,,,
,,,,,,,-0.646875,0.337037037,1,0,0,0,11,11,3,1,-0.67,0.33,03,001,2024-12-02_12h32.48.972,Attention_exp_legacy,2023.1.0,Win32,59.88023952,,,,,,,,,,,,,,,,,,,,,,,,,,,,,,,,,,,,,,,,,,,,,
,,,,,,,-0.669791667,-0.672222222,1,0,0,0,12,12,0,1,-0.67,-0.67,03,001,2024-12-02_12h32.48.972,Attention_exp_legacy,2023.1.0,Win32,59.88023952,calibration_square,,,,,,,,,,,,,,,,,,,,,,,,,,,,,,,,,,,,,,,,,,,,
,,,,,,,0.333333333,-0.662962963,1,0,0,0,13,13,14,1,0.33,-0.67,03,001,2024-12-02_12h32.48.972,Attention_exp_legacy,2023.1.0,Win32,59.88023952,calibration_square,,,,,,,,,,,,,,,,,,,,,,,,,,,,,,,,,,,,,,,,,,,,
,,,,,,,-0.001041667,0.681481481,1,0,0,0,14,14,13,1,0,0.67,03,001,2024-12-02_12h32.48.972,Attention_exp_legacy,2023.1.0,Win32,59.88023952,,,,,,,,,,,,,,,,,,,,,,,,,,,,,,,,,,,,,,,,,,,,,
,,,,,,,0.003125,0.32962963,1,0,0,0,15,15,12,1,0,0.33,03,001,2024-12-02_12h32.48.972,Attention_exp_legacy,2023.1.0,Win32,59.88023952,calibration_square,,,,,,,,,,,,,,,,,,,,,,,,,,,,,,,,,,,,,,,,,,,,
,,,,,,,0.654166667,0.690740741,1,0,0,0,16,16,19,1,0.67,0.67,03,001,2024-12-02_12h32.48.972,Attention_exp_legacy,2023.1.0,Win32,59.88023952,,,,,,,,,,,,,,,,,,,,,,,,,,,,,,,,,,,,,,,,,,,,,
,,,,,,,-0.33125,0.011111111,1,0,0,0,17,17,6,1,-0.33,0,03,001,2024-12-02_12h32.48.972,Attention_exp_legacy,2023.1.0,Win32,59.88023952,,,,,,,,,,,,,,,,,,,,,,,,,,,,,,,,,,,,,,,,,,,,,
,,,,,,,-0.66875,-0.001851852,1,0,0,0,18,18,2,1,-0.67,0,03,001,2024-12-02_12h32.48.972,Attention_exp_legacy,2023.1.0,Win32,59.88023952,calibration_square,,,,,,,,,,,,,,,,,,,,,,,,,,,,,,,,,,,,,,,,,,,,
,,,,,,,0.342708333,-0.009259259,1,0,0,0,19,19,16,1,0.33,0,03,001,2024-12-02_12h32.48.972,Attention_exp_legacy,2023.1.0,Win32,59.88023952,,,,,,,,,,,,,,,,,,,,,,,,,,,,,,,,,,,,,,,,,,,,,
,,,,,,,-0.010416667,-0.653703704,1,0,0,0,20,20,9,1,0,-0.67,03,001,2024-12-02_12h32.48.972,Attention_exp_legacy,2023.1.0,Win32,59.88023952,,,,,,,,,,,,,,,,,,,,,,,,,,,,,,,,,,,,,,,,,,,,,
,,,,,,,,,,,,,,,,,,,03,001,2024-12-02_12h32.48.972,Attention_exp_legacy,2023.1.0,Win32,59.88023952,,"[1920,1080]",[0.007291666666666667],[-0.4962962962962963],[1],[0],[0],[0.747599999999629],"[""StartButton""]","[640,480]",[0.4125],[0.4388888888888889],[1],[0],[0],[2.1366000000000938],"[""Option2_label""]",Option2_label,1,3.1615,"[[0.10520833333333333,-0.2740740740740741],[0.10520833333333333,-0.2740740740740741],[0.10520833333333333,-0.2740740740740741],[0.10520833333333333,-0.2740740740740741],[0.10520833333333333,-0.2740740740740741],[0.10520833333333333,-0.2740740740740741],[0.10520833333333333,-0.2740740740740741],[0.10520833333333333,-0.2740740740740741],[0.10520833333333333,-0.2740740740740741],[0.10520833333333333,-0.2740740740740741],[0.10520833333333333,-0.2740740740740741],[0.10520833333333333,-0.2740740740740741],[0.10520833333333333,-0.2740740740740741],[0.10520833333333333,-0.2740740740740741],[0.10520833333333333,-0.2740740740740741],[0.10520833333333333,-0.2740740740740741],[0.10520833333333333,-0.2740740740740741],[0.10520833333333333,-0.2740740740740741],[0.10520833333333333,-0.2740740740740741],[0.10520833333333333,-0.2740740740740741],[0.10520833333333333,-0.2740740740740741],[0.10520833333333333,-0.2740740740740741],[0.10520833333333333,-0.2740740740740741],[0.10520833333333333,-0.2740740740740741],[0.10520833333333333,-0.2740740740740741],[0.10520833333333333,-0.2740740740740741],[0.10520833333333333,-0.2740740740740741],[0.10520833333333333,-0.2740740740740741],[0.10520833333333333,-0.2740740740740741],[0.10520833333333333,-0.2740740740740741],[0.10520833333333333,-0.2740740740740741],[0.10520833333333333,-0.2740740740740741],[0.10520833333333333,-0.2740740740740741],[0.10520833333333333,-0.2740740740740741],[0.10520833333333333,-0.2740740740740741],[0.10520833333333333,-0.2740740740740741],[0.10520833333333333,-0.2740740740740741],[0.10520833333333333,-0.2740740740740741],[0.10520833333333333,-0.2740740740740741],[0.10520833333333333,-0.2740740740740741],[0.10520833333333333,-0.2740740740740741],[0.10520833333333333,-0.2740740740740741],[0.10520833333333333,-0.2740740740740741],[0.10520833333333333,-0.2740740740740741],[0.10520833333333333,-0.2740740740740741],[0.10520833333333333,-0.2740740740740741],[0.10520833333333333,-0.2740740740740741],[0.10520833333333333,-0.2740740740740741],[0.10520833333333333,-0.2740740740740741],[0.10520833333333333,-0.2740740740740741],[0.10520833333333333,-0.2740740740740741],[0.10520833333333333,-0.2740740740740741],[0.10520833333333333,-0.2740740740740741],[0.10520833333333333,-0.2740740740740741],[0.10520833333333333,-0.2740740740740741],[0.10520833333333333,-0.2740740740740741],[0.10520833333333333,-0.2740740740740741],[0.10520833333333333,-0.2740740740740741],[0.10520833333333333,-0.2740740740740741],[0.10520833333333333,-0.2740740740740741],[0.10520833333333333,-0.2740740740740741],[0.10520833333333333,-0.2740740740740741],[0.10520833333333333,-0.2740740740740741],[0.10520833333333333,-0.2740740740740741],[0.10520833333333333,-0.2740740740740741],[0.10520833333333333,-0.2740740740740741],[0.10520833333333333,-0.2740740740740741],[0.10520833333333333,-0.2740740740740741],[0.10520833333333333,-0.2740740740740741],[0.10520833333333333,-0.2740740740740741],[0.10520833333333333,-0.2740740740740741],[0.10520833333333333,-0.2740740740740741],[0.10520833333333333,-0.2740740740740741],[0.10520833333333333,-0.2740740740740741],[0.10520833333333333,-0.2740740740740741],[0.10520833333333333,-0.2722222222222222],[0.10520833333333333,-0.27037037037037037],[0.10625,-0.26851851851851855],[0.10729166666666666,-0.26481481481481484],[0.10729166666666666,-0.26481481481481484],[0.10729166666666666,-0.26481481481481484],[0.10729166666666666,-0.26481481481481484],[0.10729166666666666,-0.26481481481481484],[0.10729166666666666,-0.26481481481481484],[0.10729166666666666,-0.26481481481481484],[0.10729166666666666,-0.26481481481481484],[0.10729166666666666,-0.26481481481481484],[0.10729166666666666,-0.26481481481481484],[0.10729166666666666,-0.26481481481481484],[0.10729166666666666,-0.26481481481481484],[0.10729166666666666,-0.26481481481481484],[0.10729166666666666,-0.26481481481481484],[0.10729166666666666,-0.26481481481481484],[0.10729166666666666,-0.26481481481481484],[0.10729166666666666,-0.26481481481481484],[0.10729166666666666,-0.26481481481481484],[0.10729166666666666,-0.26481481481481484],[0.10729166666666666,-0.26481481481481484],[0.10729166666666666,-0.26481481481481484],[0.10729166666666666,-0.26481481481481484],[0.10729166666666666,-0.26481481481481484],[0.10729166666666666,-0.26481481481481484],[0.11145833333333334,-0.25925925925925924],[0.11770833333333333,-0.24814814814814815],[0.13020833333333334,-0.22777777777777777],[0.14166666666666666,-0.20925925925925926],[0.159375,-0.18333333333333332],[0.18333333333333332,-0.12962962962962962],[0.2125,-0.07407407407407407],[0.23333333333333334,-0.037037037037037035],[0.253125,-0.009259259259259259],[0.27291666666666664,0.020370370370370372],[0.29270833333333335,0.046296296296296294],[0.3104166666666667,0.07407407407407407],[0.3333333333333333,0.12777777777777777],[0.3458333333333333,0.16666666666666666],[0.3541666666666667,0.20555555555555555],[0.3625,0.2351851851851852],[0.37083333333333335,0.26296296296296295],[0.37604166666666666,0.28703703703703703],[0.3802083333333333,0.30925925925925923],[0.3854166666666667,0.3277777777777778],[0.390625,0.35185185185185186],[0.39791666666666664,0.37777777777777777],[0.403125,0.3962962962962963],[0.40520833333333334,0.412962962962963],[0.4083333333333333,0.42592592592592593],[0.4114583333333333,0.43333333333333335],[0.4125,0.4388888888888889],[0.41354166666666664,0.4425925925925926],[0.41354166666666664,0.4425925925925926],[0.41354166666666664,0.4425925925925926],[0.41354166666666664,0.4425925925925926],[0.41354166666666664,0.4425925925925926],[0.41354166666666664,0.4425925925925926],[0.41354166666666664,0.4425925925925926],[0.41354166666666664,0.4425925925925926],[0.41354166666666664,0.4425925925925926],[0.41354166666666664,0.4425925925925926],[0.41354166666666664,0.4425925925925926],[0.41354166666666664,0.4425925925925926],[0.41354166666666664,0.4425925925925926],[0.41354166666666664,0.4425925925925926],[0.41354166666666664,0.4425925925925926],[0.41354166666666664,0.4425925925925926],[0.41354166666666664,0.4425925925925926],[0.41354166666666664,0.4425925925925926],[0.41354166666666664,0.4425925925925926],[0.41354166666666664,0.4425925925925926],[0.41354166666666664,0.4425925925925926],[0.41354166666666664,0.4425925925925926],[0.41354166666666664,0.4425925925925926],[0.41354166666666664,0.4425925925925926],[0.41354166666666664,0.4425925925925926],[0.41354166666666664,0.4425925925925926],[0.41354166666666664,0.4425925925925926],[0.41354166666666664,0.4425925925925926],[0.41354166666666664,0.4425925925925926],[0.41354166666666664,0.4425925925925926],[0.41354166666666664,0.4425925925925926],[0.41354166666666664,0.4425925925925926],[0.41354166666666664,0.4425925925925926],[0.41354166666666664,0.4425925925925926],[0.41354166666666664,0.4425925925925926],[0.41354166666666664,0.4425925925925926],[0.41354166666666664,0.4425925925925926],[0.41354166666666664,0.4425925925925926],[0.41354166666666664,0.4425925925925926],[0.41354166666666664,0.4425925925925926],[0.41354166666666664,0.4425925925925926],[0.41354166666666664,0.4425925925925926],[0.41354166666666664,0.4425925925925926],[0.41354166666666664,0.4425925925925926],[0.41354166666666664,0.4425925925925926],[0.41354166666666664,0.4425925925925926],[0.41354166666666664,0.4425925925925926],[0.41354166666666664,0.4425925925925926],[0.41354166666666664,0.4425925925925926],[0.41354166666666664,0.4425925925925926],[0.41354166666666664,0.4425925925925926],[0.41354166666666664,0.4425925925925926],[0.41354166666666664,0.4425925925925926],[0.41354166666666664,0.4425925925925926],[0.41354166666666664,0.4425925925925926],[0.41354166666666664,0.4425925925925926],[0.41354166666666664,0.4425925925925926],[0.41354166666666664,0.4425925925925926],[0.41354166666666664,0.4425925925925926],[0.41354166666666664,0.4425925925925926],[0.41354166666666664,0.4425925925925926]]","[[0.14479166666666668,-0.2198148148148148],[0.14479166666666668,-0.2198148148148148],[0.12802083333333342,-0.2074074074074074],[0.10104166666666667,-0.20611111111111113],[0.06031249999999998,-0.21129629629629634],[0.036354166666666646,-0.21370370370370367],[0,-0.21296296296296297],[-0.033749999999999974,-0.20203703703703707],[-0.007083333333333286,-0.21666666666666667],[-0.021875,-0.20685185185185184],[-0.01593749999999995,-0.1911111111111111],[-0.06479166666666672,-0.17462962962962966],[-0.06479166666666672,-0.17462962962962966],[-0.06072916666666662,-0.20777777777777776],[-0.06041666666666667,-0.20685185185185184],[-0.05166666666666669,-0.18870370370370365],[-0.06166666666666672,-0.18574074074074076],[-0.07541666666666665,-0.19462962962962968],[-0.08343750000000003,-0.19277777777777783],[-0.12135416666666667,-0.1633333333333333],[-0.16114583333333338,-0.1844444444444445],[-0.19302083333333328,-0.2022222222222222],[-0.20385416666666673,-0.23166666666666672],[-0.22406250000000003,-0.24722222222222223],[-0.17552083333333332,-0.24314814814814817],[-0.12895833333333329,-0.21388888888888888],[-0.06885416666666669,-0.19425925925925921],[-0.024479166666666666,-0.18592592592592588],[0.01416666666666669,-0.18833333333333332],[0.05427083333333336,-0.1764814814814815],[0.09666666666666662,-0.16129629629629633],[0.13927083333333337,-0.13185185185185183],[0.20187499999999994,-0.10999999999999996],[0.26447916666666677,-0.08814814814814818],[0.24635416666666668,-0.08425925925925926],[0.225,-0.10796296296296298],[0.22802083333333342,-0.13277777777777774],[0.22802083333333342,-0.13277777777777774],[0.22302083333333325,-0.11462962962962958],[0.2321875000000001,-0.08740740740740739],[0.23072916666666668,-0.11962962962962967],[0.24072916666666658,-0.1346296296296296],[0.17760416666666667,-0.14000000000000004],[0.09114583333333333,-0.12740740740740744],[-0.0078125,-0.05796296296296299],[-0.07000000000000005,-0.046481481481481526],[-0.14916666666666673,-0.056296296296296254],[-0.14916666666666673,-0.056296296296296254],[-0.25270833333333337,-0.06500000000000004],[-0.25270833333333337,-0.06500000000000004],[-0.3352083333333333,-0.09703703703703699],[-0.3352083333333333,-0.09703703703703699],[-0.4327083333333333,-0.10166666666666663],[-0.4327083333333333,-0.10166666666666663],[-0.5535416666666666,-0.08981481481481482],[-0.5535416666666666,-0.08981481481481482],[-0.6789583333333333,-0.08129629629629626],[-0.6789583333333333,-0.08129629629629626],[-0.7079166666666666,-0.08370370370370368],[-0.7389583333333333,-0.08925925925925923],[-0.7634375,-0.1479629629629629],[-0.7855208333333333,-0.16148148148148145],[-0.8030208333333333,-0.14518518518518514],[-0.8205208333333334,-0.12888888888888894],[-0.8283333333333334,-0.07333333333333338],[-0.8353125,-0.05425925925925928],[-0.775,-0.008703703703703788],[-0.7391666666666666,0.0514814814814814],[-0.6877083333333334,0.14870370370370362],[-0.6389583333333333,0.2646296296296296],[-0.5985416666666666,0.3490740740740741],[-0.5597916666666667,0.44537037037037036],[-0.5597916666666667,0.44537037037037036],[-0.5092708333333333,0.5511111111111111],[-0.5092708333333333,0.5511111111111111],[-0.3784374999999999,0.7298148148148148],[-0.2954166666666667,0.74],[-0.19416666666666665,0.7614814814814815],[-0.12093750000000002,0.797037037037037],[-0.03989583333333328,0.7870370370370371],[-0.007291666666666667,0.7503703703703705],[0.007187499999999976,0.705925925925926],[0.021041666666666715,0.7022222222222223],[0.036562500000000026,0.6866666666666665],[0.01906249999999995,0.6548148148148148],[-0.07875000000000003,0.55],[-0.12604166666666666,0.5825925925925927],[-0.19750000000000004,0.5837037037037038],[-0.2652083333333334,0.5835185185185185],[-0.328125,0.6170370370370372],[-0.3728125,0.6044444444444445],[-0.41437499999999994,0.6038888888888889],[-0.42124999999999996,0.5957407407407408],[-0.43718750000000006,0.5868518518518518],[-0.42999999999999994,0.5829629629629629],[-0.4184375000000001,0.5661111111111112],[-0.4395833333333333,0.562037037037037],[-0.4395833333333333,0.562037037037037],[-0.4575000000000001,0.5535185185185185],[-0.48010416666666667,0.5479629629629629],[-0.4767708333333333,0.5514814814814814],[-0.4653125000000001,0.5387037037037037],[-0.43937499999999996,0.5224074074074074],[-0.4023958333333333,0.4911111111111112],[-0.3419791666666666,0.462037037037037],[-0.28489583333333335,0.4351851851851852],[-0.23322916666666665,0.3987037037037036],[-0.1570833333333333,0.3464814814814815],[-0.1570833333333333,0.3464814814814815],[-0.08197916666666671,0.33648148148148155],[-0.011249999999999953,0.25203703703703706],[0.04541666666666669,0.1557407407407408],[0.08770833333333337,0.10037037037037046],[0.14500000000000005,0.07370370370370362],[0.19031250000000005,0.06629629629629621],[0.22312500000000005,0.05851851851851856],[0.2491666666666667,0.04425925925925922],[0.27625000000000005,0.05259259259259255],[0.3290625000000001,0.046296296296296294],[0.33604166666666657,0.029814814814814856],[0.34052083333333344,0.06296296296296296],[0.3788541666666667,0.10222222222222231],[0.4192708333333333,0.09703703703703699],[0.4428124999999999,0.0992592592592593],[0.4474999999999999,0.09185185185185189],[0.43125,0.08703703703703704],[0.42177083333333343,0.08870370370370366],[0.4210416666666667,0.03314814814814811],[0.3640625,-0.03037037037037033],[0.35666666666666674,-0.10129629629629627],[0.38041666666666674,-0.1603703703703704],[0.3703125,-0.22555555555555556],[0.36124999999999996,-0.1955555555555556],[0.35875000000000007,-0.202962962962963],[0.36083333333333345,-0.24962962962962965],[0.3819791666666667,-0.3],[0.3885416666666667,-0.3675925925925926],[0.3863541666666668,-0.377962962962963],[0.4382291666666667,-0.32037037037037036],[0.47145833333333326,-0.27444444444444444],[0.48770833333333335,-0.23296296296296298],[0.4790625000000001,-0.22462962962962965],[0.4635416666666667,-0.25166666666666665],[0.4470833333333334,-0.2807407407407408],[0.42135416666666664,-0.28296296296296297],[0.4275000000000001,-0.2794444444444444],[0.4482291666666666,-0.25870370370370366],[0.46593749999999995,-0.23962962962962958],[0.4586458333333333,-0.2794444444444444],[0.47114583333333326,-0.3074074074074074],[0.4705208333333334,-0.3314814814814815],[0.4947916666666667,-0.3224074074074075],[0.5078125,-0.3109259259259259],[0.5208333333333334,-0.2994444444444444],[0.5401041666666667,-0.2796296296296296],[0.5275000000000001,-0.2655555555555555],[0.5252083333333334,-0.23203703703703707],[0.5259375000000001,-0.19685185185185186],[0.5179166666666667,-0.1955555555555556],[0.5087500000000001,-0.19444444444444445],[0.5099999999999999,-0.18629629629629635],[0.51125,-0.17814814814814814],[0.51125,-0.17814814814814814],[0.5141666666666665,-0.20037037037037034],[0.5032291666666666,-0.21962962962962967],[0.5164583333333332,-0.21277777777777773],[0.4827083333333334,-0.20999999999999996],[0.43687500000000007,-0.2331481481481481],[0.43687500000000007,-0.2331481481481481],[0.33916666666666656,-0.24203703703703702],[0.23958333333333334,-0.2553703703703703],[0.1397916666666667,-0.29518518518518516],[0.02958333333333331,-0.34203703703703703],[-0.08333333333333333,-0.3557407407407408],[-0.08333333333333333,-0.3557407407407408],[-0.18562500000000004,-0.3587037037037037],[-0.2783333333333334,-0.3527777777777778],[-0.3967708333333333,-0.3688888888888889],[-0.4845833333333333,-0.40259259259259256],[-0.4845833333333333,-0.40259259259259256],[-0.5683333333333334,-0.42666666666666664],[-0.5683333333333334,-0.42666666666666664],[-0.5930208333333333,-0.4485185185185185],[-0.5930208333333333,-0.4485185185185185],[-0.6119791666666666,-0.4722222222222222],[-0.6119791666666666,-0.4722222222222222],[-0.6081249999999999,-0.4527777777777778],[-0.6136458333333333,-0.44240740740740736],[-0.6136458333333333,-0.44240740740740736],[-0.6475000000000001,-0.42481481481481476]]","[[0.14479166666666668,-0.2198148148148148,0.00020000000019138042],[0.14479166666666668,-0.2198148148148148,0.04010000000009484],[0.12802083333333342,-0.2074074074074074,0.044899999999906015],[0.10104166666666667,-0.20611111111111113,0.06150000000000233],[0.06031249999999998,-0.21129629629629634,0.07820000000018723],[0.036354166666666646,-0.21370370370370367,0.09480000000028355],[0,-0.21296296296296297,0.11160000000009518],[-0.033749999999999974,-0.20203703703703707,0.1282000000001915],[-0.007083333333333286,-0.21666666666666667,0.1452000000001874],[-0.021875,-0.20685185185185184,0.16150000000000375],[-0.01593749999999995,-0.1911111111111111,0.17820000000018865],[-0.06479166666666672,-0.17462962962962966,0.1948999999999117],[-0.06479166666666672,-0.17462962962962966,0.21170000000018518],[-0.06072916666666662,-0.20777777777777776,0.2282000000001858],[-0.06041666666666667,-0.20685185185185184,0.24489999999990886],[-0.05166666666666669,-0.18870370370370365,0.2615000000000052],[-0.06166666666666672,-0.18574074074074076,0.2781000000000944],[-0.07541666666666665,-0.19462962962962968,0.294899999999906],[-0.08343750000000003,-0.19277777777777783,0.31189999999990903],[-0.12135416666666667,-0.1633333333333333,0.32820000000018723],[-0.16114583333333338,-0.1844444444444445,0.34480000000028355],[-0.19302083333333328,-0.2022222222222222,0.3614999999999995],[-0.20385416666666673,-0.23166666666666672,0.3782000000001915],[-0.22406250000000003,-0.24722222222222223,0.39489999999990744],[-0.17552083333333332,-0.24314814814814817,0.4153000000002791],[-0.12895833333333329,-0.21388888888888888,0.42849999999999966],[-0.06885416666666669,-0.19425925925925921,0.4448999999999117],[-0.024479166666666666,-0.18592592592592588,0.4615000000000009],[0.01416666666666669,-0.18833333333333332,0.4782000000001858],[0.05427083333333336,-0.1764814814814815,0.49489999999990886],[0.09666666666666662,-0.16129629629629633,0.5116000000000938],[0.13927083333333337,-0.13185185185185183,0.5282000000001901],[0.20187499999999994,-0.10999999999999996,0.5448000000002793],[0.26447916666666677,-0.08814814814814818,0.5613999999999066],[0.24635416666666668,-0.08425925925925926,0.5781000000000915],[0.225,-0.10796296296296298,0.5948999999999103],[0.22802083333333342,-0.13277777777777774,0.6120000000000019],[0.22802083333333342,-0.13277777777777774,0.6282000000001915],[0.22302083333333325,-0.11462962962962958,0.6448999999999074],[0.2321875000000001,-0.08740740740740739,0.6616000000000923],[0.23072916666666668,-0.11962962962962967,0.6782000000001887],[0.24072916666666658,-0.1346296296296296,0.6948999999999117],[0.17760416666666667,-0.14000000000000004,0.7126000000000943],[0.09114583333333333,-0.12740740740740744,0.7287000000001882],[-0.0078125,-0.05796296296296299,0.7448000000002821],[-0.07000000000000005,-0.046481481481481526,0.7615000000000052],[-0.14916666666666673,-0.056296296296296254,0.7782000000001901],[-0.14916666666666673,-0.056296296296296254,0.794899999999906],[-0.25270833333333337,-0.06500000000000004,0.8118000000002823],[-0.25270833333333337,-0.06500000000000004,0.8282000000001872],[-0.3352083333333333,-0.09703703703703699,0.8448000000002835],[-0.3352083333333333,-0.09703703703703699,0.8616000000000952],[-0.4327083333333333,-0.10166666666666663,0.8782000000001915],[-0.4327083333333333,-0.10166666666666663,0.8948000000002807],[-0.5535416666666666,-0.08981481481481482,0.911700000000188],[-0.5535416666666666,-0.08981481481481482,0.9282000000001887],[-0.6789583333333333,-0.08129629629629626,0.9448999999999117],[-0.6789583333333333,-0.08129629629629626,0.9615000000000009],[-0.7079166666666666,-0.08370370370370368,0.9782000000001858],[-0.7389583333333333,-0.08925925925925923,0.9948999999999089],[-0.7634375,-0.1479629629629629,1.0125000000000028],[-0.7855208333333333,-0.16148148148148145,1.02820000000019],[-0.8030208333333333,-0.14518518518518514,1.0448000000002793],[-0.8205208333333334,-0.12888888888888894,1.0615000000000023],[-0.8283333333333334,-0.07333333333333338,1.078300000000283],[-0.8353125,-0.05425925925925928,1.0948000000002835],[-0.775,-0.008703703703703788,1.1122000000001862],[-0.7391666666666666,0.0514814814814814,1.1281000000000958],[-0.6877083333333334,0.14870370370370362,1.1448999999999074],[-0.6389583333333333,0.2646296296296296,1.1615000000000038],[-0.5985416666666666,0.3490740740740741,1.1782000000001887],[-0.5597916666666667,0.44537037037037036,1.199300000000278],[-0.5597916666666667,0.44537037037037036,1.2195000000000036],[-0.5092708333333333,0.5511111111111111,1.2351000000000951],[-0.5092708333333333,0.5511111111111111,1.2448000000002821],[-0.3784374999999999,0.7298148148148148,1.2637000000001848],[-0.2954166666666667,0.74,1.2783000000002787],[-0.19416666666666665,0.7614814814814815,1.2951000000000974],[-0.12093750000000002,0.797037037037037,1.3145000000000024],[-0.03989583333333328,0.7870370370370371,1.3281000000000915],[-0.007291666666666667,0.7503703703703705,1.3448000000002835],[0.007187499999999976,0.705925925925926,1.361399999999911],[0.021041666666666715,0.7022222222222223,1.3781000000000958],[0.036562500000000026,0.6866666666666665,1.3948000000002807],[0.01906249999999995,0.6548148148148148,1.4116000000000923],[-0.07875000000000003,0.55,1.428100000000093],[-0.12604166666666666,0.5825925925925927,1.4448000000002779],[-0.19750000000000004,0.5837037037037038,1.461500000000001],[-0.2652083333333334,0.5835185185185185,1.4781000000000972],[-0.328125,0.6170370370370372,1.4948999999999089],[-0.3728125,0.6044444444444445,1.5116000000000938],[-0.41437499999999994,0.6038888888888889,1.5281000000000944],[-0.42124999999999996,0.5957407407407408,1.544899999999906],[-0.43718750000000006,0.5868518518518518,1.5615000000000023],[-0.42999999999999994,0.5829629629629629,1.5781000000000915],[-0.4184375000000001,0.5661111111111112,1.5948000000002835],[-0.4395833333333333,0.562037037037037,1.6117000000001909],[-0.4395833333333333,0.562037037037037,1.6282000000001915],[-0.4575000000000001,0.5535185185185185,1.6448000000002807],[-0.48010416666666667,0.5479629629629629,1.6616000000000923],[-0.4767708333333333,0.5514814814814814,1.678100000000093],[-0.4653125000000001,0.5387037037037037,1.6948000000002779],[-0.43937499999999996,0.5224074074074074,1.7146000000000967],[-0.4023958333333333,0.4911111111111112,1.7283000000002815],[-0.3419791666666666,0.462037037037037,1.7451000000000931],[-0.28489583333333335,0.4351851851851852,1.7617000000001894],[-0.23322916666666665,0.3987037037037036,1.7803999999999078],[-0.1570833333333333,0.3464814814814815,1.7950000000000017],[-0.1570833333333333,0.3464814814814815,1.8118000000002823],[-0.08197916666666671,0.33648148148148155,1.831300000000283],[-0.011249999999999953,0.25203703703703706,1.8453999999999056],[0.04541666666666669,0.1557407407407408,1.8616000000000952],[0.08770833333333337,0.10037037037037046,1.8808999999999116],[0.14500000000000005,0.07370370370370362,1.8950000000000031],[0.19031250000000005,0.06629629629629621,1.9121000000000947],[0.22312500000000005,0.05851851851851856,1.9306000000000978],[0.2491666666666667,0.04425925925925922,1.946000000000005],[0.27625000000000005,0.05259259259259255,1.9617000000001852],[0.3290625000000001,0.046296296296296294,1.980899999999906],[0.33604166666666657,0.029814814814814856,1.9950000000000045],[0.34052083333333344,0.06296296296296296,2.012100000000096],[0.3788541666666667,0.10222222222222231,2.0283000000002787],[0.4192708333333333,0.09703703703703699,2.048000000000002],[0.4428124999999999,0.0992592592592593,2.061600000000098],[0.4474999999999999,0.09185185185185189,2.078300000000283],[0.43125,0.08703703703703704,2.094999999999999],[0.42177083333333343,0.08870370370370366,2.1146000000000953],[0.4210416666666667,0.03314814814814811,2.12830000000028],[0.3640625,-0.03037037037037033,2.1452000000001874],[0.35666666666666674,-0.10129629629629627,2.1616000000000923],[0.38041666666666674,-0.1603703703703704,2.178100000000093],[0.3703125,-0.22555555555555556,2.194800000000278],[0.36124999999999996,-0.1955555555555556,2.211800000000281],[0.35875000000000007,-0.202962962962963,2.231200000000186],[0.36083333333333345,-0.24962962962962965,2.244800000000282],[0.3819791666666667,-0.3,2.261500000000005],[0.3885416666666667,-0.3675925925925926,2.2781000000000944],[0.3863541666666668,-0.377962962962963,2.294899999999906],[0.4382291666666667,-0.32037037037037036,2.311600000000098],[0.47145833333333326,-0.27444444444444444,2.3281000000000915],[0.48770833333333335,-0.23296296296296298,2.3448999999999103],[0.4790625000000001,-0.22462962962962965,2.3614999999999995],[0.4635416666666667,-0.25166666666666665,2.378100000000096],[0.4470833333333334,-0.2807407407407408,2.3948999999999074],[0.42135416666666664,-0.28296296296296297,2.4118999999999104],[0.4275000000000001,-0.2794444444444444,2.4282000000001887],[0.4482291666666666,-0.25870370370370366,2.444800000000278],[0.46593749999999995,-0.23962962962962958,2.4613999999999123],[0.4586458333333333,-0.2794444444444444,2.4781000000000972],[0.47114583333333326,-0.3074074074074074,2.494800000000282],[0.4705208333333334,-0.3314814814814815,2.511500000000005],[0.4947916666666667,-0.3224074074074075,2.5279999999999987],[0.5078125,-0.3109259259259259,2.5448000000002793],[0.5208333333333334,-0.2994444444444444,2.5615000000000023],[0.5401041666666667,-0.2796296296296296,2.5821000000000964],[0.5275000000000001,-0.2655555555555555,2.5953999999999056],[0.5252083333333334,-0.23203703703703707,2.611700000000191],[0.5259375000000001,-0.19685185185185186,2.6282000000001915],[0.5179166666666667,-0.1955555555555556,2.6448000000002807],[0.5087500000000001,-0.19444444444444445,2.6615000000000038],[0.5099999999999999,-0.18629629629629635,2.6782000000001887],[0.51125,-0.17814814814814814,2.6948999999999117],[0.51125,-0.17814814814814814,2.7116000000000966],[0.5141666666666665,-0.20037037037037034,2.7281000000000972],[0.5032291666666666,-0.21962962962962967,2.744800000000282],[0.5164583333333332,-0.21277777777777773,2.7613999999999095],[0.4827083333333334,-0.20999999999999996,2.77820000000019],[0.43687500000000007,-0.2331481481481481,2.7948000000002793],[0.43687500000000007,-0.2331481481481481,2.8120000000000047],[0.33916666666666656,-0.24203703703703702,2.8282000000001872],[0.23958333333333334,-0.2553703703703703,2.8485000000000014],[0.1397916666666667,-0.29518518518518516,2.862600000000093],[0.02958333333333331,-0.34203703703703703,2.878399999999907],[-0.08333333333333333,-0.3557407407407408,2.8948000000002807],[-0.08333333333333333,-0.3557407407407408,2.911700000000188],[-0.18562500000000004,-0.3587037037037037,2.928100000000093],[-0.2783333333333334,-0.3527777777777778,2.9456000000000984],[-0.3967708333333333,-0.3688888888888889,2.9626000000000943],[-0.4845833333333333,-0.40259259259259256,2.9781000000000972],[-0.4845833333333333,-0.40259259259259256,2.994800000000282],[-0.5683333333333334,-0.42666666666666664,3.0116000000000938],[-0.5683333333333334,-0.42666666666666664,3.02820000000019],[-0.5930208333333333,-0.4485185185185185,3.044899999999906],[-0.5930208333333333,-0.4485185185185185,3.0615000000000023],[-0.6119791666666666,-0.4722222222222222,3.078300000000283],[-0.6119791666666666,-0.4722222222222222,3.0948000000002835],[-0.6081249999999999,-0.4527777777777778,3.1118000000002795],[-0.6136458333333333,-0.44240740740740736,3.1346000000000984],[-0.6136458333333333,-0.44240740740740736,3.1448999999999074],[-0.6475000000000001,-0.42481481481481476,3.1615000000000038]]","[0.00020000000019138042,0.04010000000009484,0.044899999999906015,0.06150000000000233,0.07820000000018723,0.09480000000028355,0.11160000000009518,0.1282000000001915,0.1452000000001874,0.16150000000000375,0.17820000000018865,0.1948999999999117,0.21170000000018518,0.2282000000001858,0.24489999999990886,0.2615000000000052,0.2781000000000944,0.294899999999906,0.31189999999990903,0.32820000000018723,0.34480000000028355,0.3614999999999995,0.3782000000001915,0.39489999999990744,0.4153000000002791,0.42849999999999966,0.4448999999999117,0.4615000000000009,0.4782000000001858,0.49489999999990886,0.5116000000000938,0.5282000000001901,0.5448000000002793,0.5613999999999066,0.5781000000000915,0.5948999999999103,0.6120000000000019,0.6282000000001915,0.6448999999999074,0.6616000000000923,0.6782000000001887,0.6948999999999117,0.7126000000000943,0.7287000000001882,0.7448000000002821,0.7615000000000052,0.7782000000001901,0.794899999999906,0.8118000000002823,0.8282000000001872,0.8448000000002835,0.8616000000000952,0.8782000000001915,0.8948000000002807,0.911700000000188,0.9282000000001887,0.9448999999999117,0.9615000000000009,0.9782000000001858,0.9948999999999089,1.0125000000000028,1.02820000000019,1.0448000000002793,1.0615000000000023,1.078300000000283,1.0948000000002835,1.1122000000001862,1.1281000000000958,1.1448999999999074,1.1615000000000038,1.1782000000001887,1.199300000000278,1.2195000000000036,1.2351000000000951,1.2448000000002821,1.2637000000001848,1.2783000000002787,1.2951000000000974,1.3145000000000024,1.3281000000000915,1.3448000000002835,1.361399999999911,1.3781000000000958,1.3948000000002807,1.4116000000000923,1.428100000000093,1.4448000000002779,1.461500000000001,1.4781000000000972,1.4948999999999089,1.5116000000000938,1.5281000000000944,1.544899999999906,1.5615000000000023,1.5781000000000915,1.5948000000002835,1.6117000000001909,1.6282000000001915,1.6448000000002807,1.6616000000000923,1.678100000000093,1.6948000000002779,1.7146000000000967,1.7283000000002815,1.7451000000000931,1.7617000000001894,1.7803999999999078,1.7950000000000017,1.8118000000002823,1.831300000000283,1.8453999999999056,1.8616000000000952,1.8808999999999116,1.8950000000000031,1.9121000000000947,1.9306000000000978,1.946000000000005,1.9617000000001852,1.980899999999906,1.9950000000000045,2.012100000000096,2.0283000000002787,2.048000000000002,2.061600000000098,2.078300000000283,2.094999999999999,2.1146000000000953,2.12830000000028,2.1452000000001874,2.1616000000000923,2.178100000000093,2.194800000000278,2.211800000000281,2.231200000000186,2.244800000000282,2.261500000000005,2.2781000000000944,2.294899999999906,2.311600000000098,2.3281000000000915,2.3448999999999103,2.3614999999999995,2.378100000000096,2.3948999999999074,2.4118999999999104,2.4282000000001887,2.444800000000278,2.4613999999999123,2.4781000000000972,2.494800000000282,2.511500000000005,2.5279999999999987,2.5448000000002793,2.5615000000000023,2.5821000000000964,2.5953999999999056,2.611700000000191,2.6282000000001915,2.6448000000002807,2.6615000000000038,2.6782000000001887,2.6948999999999117,2.7116000000000966,2.7281000000000972,2.744800000000282,2.7613999999999095,2.77820000000019,2.7948000000002793,2.8120000000000047,2.8282000000001872,2.8485000000000014,2.862600000000093,2.878399999999907,2.8948000000002807,2.911700000000188,2.928100000000093,2.9456000000000984,2.9626000000000943,2.9781000000000972,2.994800000000282,3.0116000000000938,3.02820000000019,3.044899999999906,3.0615000000000023,3.078300000000283,3.0948000000002835,3.1118000000002795,3.1346000000000984,3.1448999999999074,3.1615000000000038]","[1733114009986,1733114010017,1733114010022,1733114010039,1733114010055,1733114010072,1733114010089,1733114010105,1733114010122,1733114010139,1733114010155,1733114010172,1733114010189,1733114010205,1733114010222,1733114010239,1733114010255,1733114010272,1733114010289,1733114010305,1733114010322,1733114010339,1733114010355,1733114010372,1733114010392,1733114010406,1733114010422,1733114010439,1733114010455,1733114010472,1733114010489,1733114010505,1733114010522,1733114010539,1733114010555,1733114010572,1733114010589,1733114010605,1733114010622,1733114010639,1733114010655,1733114010672,1733114010690,1733114010706,1733114010722,1733114010739,1733114010755,1733114010772,1733114010789,1733114010805,1733114010822,1733114010839,1733114010855,1733114010872,1733114010889,1733114010905,1733114010922,1733114010939,1733114010955,1733114010972,1733114010990,1733114011005,1733114011022,1733114011039,1733114011055,1733114011072,1733114011089,1733114011105,1733114011122,1733114011139,1733114011155,1733114011176,1733114011197,1733114011212,1733114011222,1733114011241,1733114011255,1733114011272,1733114011292,1733114011305,1733114011322,1733114011339,1733114011355,1733114011372,1733114011389,1733114011405,1733114011422,1733114011439,1733114011455,1733114011472,1733114011489,1733114011505,1733114011522,1733114011539,1733114011555,1733114011572,1733114011589,1733114011605,1733114011622,1733114011639,1733114011655,1733114011672,1733114011692,1733114011705,1733114011722,1733114011739,1733114011757,1733114011772,1733114011789,1733114011808,1733114011822,1733114011839,1733114011858,1733114011872,1733114011889,1733114011908,1733114011923,1733114011939,1733114011958,1733114011972,1733114011989,1733114012005,1733114012025,1733114012039,1733114012055,1733114012072,1733114012092,1733114012105,1733114012122,1733114012139,1733114012155,1733114012172,1733114012189,1733114012208,1733114012222,1733114012239,1733114012255,1733114012272,1733114012289,1733114012305,1733114012322,1733114012339,1733114012355,1733114012372,1733114012389,1733114012405,1733114012422,1733114012439,1733114012455,1733114012472,1733114012489,1733114012505,1733114012522,1733114012539,1733114012559,1733114012573,1733114012589,1733114012605,1733114012622,1733114012639,1733114012655,1733114012672,1733114012689,1733114012705,1733114012722,1733114012739,1733114012755,1733114012772,1733114012789,1733114012805,1733114012826,1733114012840,1733114012856,1733114012872,1733114012889,1733114012905,1733114012923,1733114012940,1733114012955,1733114012972,1733114012989,1733114013005,1733114013022,1733114013039,1733114013055,1733114013072,1733114013089,1733114013112,1733114013122,1733114013139]","[[1099,421.3],[1099,421.3],[1082.9,428],[1057,428.7],[1017.9,425.9],[994.9,424.6],[960,425],[927.6,430.9],[953.2,423],[939,428.3],[944.7,436.8],[897.8,445.7],[897.8,445.7],[901.7,427.8],[902,428.3],[910.4,438.1],[900.8,439.7],[887.6,434.9],[879.9,435.9],[843.5,451.8],[805.3,440.4],[774.7,430.8],[764.3,414.9],[744.9,406.5],[791.5,408.7],[836.2,424.5],[893.9,435.1],[936.5,439.6],[973.6,438.3],[1012.1,444.7],[1052.8,452.9],[1093.7,468.8],[1153.8,480.6],[1213.9,492.4],[1196.5,494.5],[1176,481.7],[1178.9,468.3],[1178.9,468.3],[1174.1,478.1],[1182.9,492.8],[1181.5,475.4],[1191.1,467.3],[1130.5,464.4],[1047.5,471.2],[952.5,508.7],[892.8,514.9],[816.8,509.6],[816.8,509.6],[717.4,504.9],[717.4,504.9],[638.2,487.6],[638.2,487.6],[544.6,485.1],[544.6,485.1],[428.6,491.5],[428.6,491.5],[308.2,496.1],[308.2,496.1],[280.4,494.8],[250.6,491.8],[227.1,460.1],[205.9,452.8],[189.1,461.6],[172.3,470.4],[164.8,500.4],[158.1,510.7],[216,535.3],[250.4,567.8],[299.8,620.3],[346.6,682.9],[385.4,728.5],[422.6,780.5],[422.6,780.5],[471.1,837.6],[471.1,837.6],[596.7,934.1],[676.4,939.6],[773.6,951.2],[843.9,970.4],[921.7,965],[953,945.2],[966.9,921.2],[980.2,919.2],[995.1,910.8],[978.3,893.6],[884.4,837],[839,854.6],[770.4,855.2],[705.4,855.1],[645,873.2],[602.1,866.4],[562.2,866.1],[555.6,861.7],[540.3,856.9],[547.2,854.8],[558.3,845.7],[538,843.5],[538,843.5],[520.8,838.9],[499.1,835.9],[502.3,837.8],[513.3,830.9],[538.2,822.1],[573.7,805.2],[631.7,789.5],[686.5,775],[736.1,755.3],[809.2,727.1],[809.2,727.1],[881.3,721.7],[949.2,676.1],[1003.6,624.1],[1044.2,594.2],[1099.2,579.8],[1142.7,575.8],[1174.2,571.6],[1199.2,563.9],[1225.2,568.4],[1275.9,565],[1282.6,556.1],[1286.9,574],[1323.7,595.2],[1362.5,592.4],[1385.1,593.6],[1389.6,589.6],[1374,587],[1364.9,587.9],[1364.2,557.9],[1309.5,523.6],[1302.4,485.3],[1325.2,453.4],[1315.5,418.2],[1306.8,434.4],[1304.4,430.4],[1306.4,405.2],[1326.7,378],[1333,341.5],[1330.9,335.9],[1380.7,367],[1412.6,391.8],[1428.2,414.2],[1419.9,418.7],[1405,404.1],[1389.2,388.4],[1364.5,387.2],[1370.4,389.1],[1390.3,400.3],[1407.3,410.6],[1400.3,389.1],[1412.3,374],[1411.7,361],[1435,365.9],[1447.5,372.1],[1460,378.3],[1478.5,389],[1466.4,396.6],[1464.2,414.7],[1464.9,433.7],[1457.2,434.4],[1448.4,435],[1449.6,439.4],[1450.8,443.8],[1450.8,443.8],[1453.6,431.8],[1443.1,421.4],[1455.8,425.1],[1423.4,426.6],[1379.4,414.1],[1379.4,414.1],[1285.6,409.3],[1190,402.1],[1094.2,380.6],[988.4,355.3],[880,347.9],[880,347.9],[781.8,346.3],[692.8,349.5],[579.1,340.8],[494.8,322.6],[494.8,322.6],[414.4,309.6],[414.4,309.6],[390.7,297.8],[390.7,297.8],[372.5,285],[372.5,285],[376.2,295.5],[370.9,301.1],[370.9,301.1],[338.4,310.6]]","[0,0.5333]","[0.5333,0.5333]","[-0.5333,-0.5333]","[-0.5333,0]","[0,-0.5333]","[0.5333,-0.5333]","[0,0]","[0.5333,0]",0,0,0,0,1,4,Monitor,11,5,13,9
,,,,,,,,,,,,,,,,,,,03,001,2024-12-02_12h32.48.972,Attention_exp_legacy,2023.1.0,Win32,59.88023952,,,,,,,,,,,[0.41354166666666664],[0.4425925925925926],[1],[0],[0],[0.6153999999999016],"[""Option2_label""]",Option2_label,2,1.6332,"[[0.41354166666666664,0.4425925925925926],[0.41354166666666664,0.4425925925925926],[0.41354166666666664,0.4425925925925926],[0.41354166666666664,0.4425925925925926],[0.41354166666666664,0.4425925925925926],[0.41354166666666664,0.4425925925925926],[0.41354166666666664,0.4425925925925926],[0.41354166666666664,0.4425925925925926],[0.41354166666666664,0.4425925925925926],[0.41354166666666664,0.4425925925925926],[0.41354166666666664,0.4425925925925926],[0.41354166666666664,0.4425925925925926],[0.41354166666666664,0.4425925925925926],[0.41354166666666664,0.4425925925925926],[0.41354166666666664,0.4425925925925926],[0.41354166666666664,0.4425925925925926],[0.41354166666666664,0.4425925925925926],[0.41354166666666664,0.4425925925925926],[0.41354166666666664,0.4425925925925926],[0.41354166666666664,0.4425925925925926],[0.41354166666666664,0.4425925925925926],[0.41354166666666664,0.4425925925925926],[0.41354166666666664,0.4425925925925926],[0.41354166666666664,0.4425925925925926],[0.41354166666666664,0.4425925925925926],[0.41354166666666664,0.4425925925925926],[0.41354166666666664,0.4425925925925926],[0.41354166666666664,0.4425925925925926],[0.41354166666666664,0.4425925925925926],[0.41354166666666664,0.4425925925925926],[0.41354166666666664,0.4425925925925926],[0.41354166666666664,0.4425925925925926],[0.41354166666666664,0.4425925925925926],[0.41354166666666664,0.4425925925925926],[0.41354166666666664,0.4425925925925926],[0.41354166666666664,0.4425925925925926],[0.41354166666666664,0.4425925925925926],[0.41354166666666664,0.4425925925925926],[0.41354166666666664,0.4425925925925926],[0.41354166666666664,0.4425925925925926],[0.41354166666666664,0.4425925925925926],[0.41354166666666664,0.4425925925925926],[0.41354166666666664,0.4425925925925926],[0.41354166666666664,0.4425925925925926],[0.41354166666666664,0.4425925925925926],[0.41354166666666664,0.4425925925925926],[0.41354166666666664,0.4425925925925926],[0.41354166666666664,0.4425925925925926],[0.41354166666666664,0.4425925925925926],[0.41354166666666664,0.4425925925925926],[0.41354166666666664,0.4425925925925926],[0.41354166666666664,0.4425925925925926],[0.41354166666666664,0.4425925925925926],[0.41354166666666664,0.4425925925925926],[0.41354166666666664,0.4425925925925926],[0.41354166666666664,0.4425925925925926],[0.41354166666666664,0.4425925925925926],[0.41354166666666664,0.4425925925925926],[0.41354166666666664,0.4425925925925926],[0.41354166666666664,0.4425925925925926],[0.41354166666666664,0.4425925925925926],[0.41354166666666664,0.4425925925925926],[0.41354166666666664,0.4425925925925926],[0.41354166666666664,0.4425925925925926],[0.41354166666666664,0.4425925925925926],[0.41354166666666664,0.4425925925925926],[0.41354166666666664,0.4425925925925926],[0.41354166666666664,0.4425925925925926],[0.41354166666666664,0.4425925925925926],[0.41354166666666664,0.4425925925925926],[0.41354166666666664,0.4425925925925926],[0.41354166666666664,0.4425925925925926],[0.41354166666666664,0.4425925925925926],[0.41354166666666664,0.4425925925925926],[0.41354166666666664,0.4425925925925926],[0.41354166666666664,0.4425925925925926],[0.41354166666666664,0.4425925925925926],[0.41354166666666664,0.4425925925925926],[0.41354166666666664,0.4425925925925926],[0.41354166666666664,0.4425925925925926],[0.41354166666666664,0.4425925925925926],[0.41354166666666664,0.4425925925925926],[0.41354166666666664,0.4425925925925926],[0.41354166666666664,0.4425925925925926],[0.41354166666666664,0.4425925925925926],[0.41354166666666664,0.4425925925925926],[0.41354166666666664,0.4425925925925926],[0.41354166666666664,0.4425925925925926],[0.41354166666666664,0.4425925925925926],[0.41354166666666664,0.4425925925925926],[0.41354166666666664,0.4425925925925926],[0.41354166666666664,0.4425925925925926],[0.41354166666666664,0.4425925925925926],[0.41354166666666664,0.4425925925925926],[0.41354166666666664,0.4425925925925926],[0.41354166666666664,0.4425925925925926],[0.41354166666666664,0.4425925925925926],[0.41354166666666664,0.4425925925925926],[0.41354166666666664,0.4425925925925926]]","[[-0.5051041666666667,0.09888888888888885],[-0.4869791666666667,0.11222222222222226],[-0.46802083333333333,0.1175925925925926],[-0.465625,0.15148148148148138],[-0.4671875,0.1648148148148148],[-0.4951041666666667,0.17981481481481484],[-0.5109375,0.18777777777777774],[-0.5264583333333334,0.21351851851851844],[-0.5239583333333333,0.21333333333333343],[-0.5214583333333334,0.2131481481481482],[-0.5539583333333333,0.2140740740740741],[-0.5791666666666667,0.23037037037037034],[-0.5992708333333333,0.24777777777777768],[-0.598125,0.21907407407407398],[-0.6053125,0.21648148148148144],[-0.6307291666666667,0.20870370370370378],[-0.6552083333333333,0.19870370370370363],[-0.6583333333333333,0.16814814814814807],[-0.6672916666666667,0.152962962962963],[-0.6814583333333334,0.14425925925925923],[-0.6714583333333334,0.14166666666666666],[-0.6891666666666667,0.12092592592592584],[-0.7155208333333333,0.10259259259259255],[-0.7484375,0.09648148148148153],[-0.6808333333333334,0.06703703703703712],[-0.6018749999999999,0.04018518518518527],[-0.6018749999999999,0.04018518518518527],[-0.5036458333333333,0.02833333333333325],[-0.43208333333333326,-0.003888888888888931],[-0.35833333333333334,-0.0477777777777777],[-0.28635416666666663,-0.08574074074074076],[-0.18624999999999994,-0.11500000000000005],[-0.07406250000000002,-0.1294444444444444],[0.033645833333333285,-0.152962962962963],[0.1622916666666666,-0.17555555555555558],[0.18937499999999996,-0.18333333333333332],[0.2265625,-0.17481481481481478],[0.23145833333333338,-0.172037037037037],[0.24364583333333342,-0.15481481481481485],[0.2665625000000001,-0.13907407407407413],[0.2964583333333332,-0.13574074074074077],[0.303125,-0.1507407407407407],[0.3181250000000001,-0.17777777777777778],[0.3460416666666667,-0.1816666666666667],[0.3506249999999999,-0.21129629629629634],[0.3685416666666666,-0.23796296296296296],[0.37687499999999996,-0.2868518518518518],[0.3913541666666667,-0.3237037037037037],[0.38520833333333326,-0.34870370370370374],[0.3681250000000001,-0.36370370370370364],[0.3681250000000001,-0.36370370370370364],[0.35739583333333325,-0.3831481481481481],[0.37354166666666655,-0.38851851851851854],[0.37354166666666655,-0.38851851851851854],[0.3896874999999999,-0.39388888888888884],[0.3896874999999999,-0.39388888888888884],[0.3810416666666666,-0.3957407407407407],[0.37479166666666663,-0.3727777777777778],[0.35572916666666665,-0.3527777777777778],[0.34427083333333336,-0.32703703703703707],[0.32041666666666657,-0.3198148148148148],[0.32041666666666657,-0.3198148148148148],[0.31489583333333326,-0.31574074074074077],[0.31489583333333326,-0.31574074074074077],[0.3145833333333333,-0.252962962962963],[0.3145833333333333,-0.252962962962963],[0.33624999999999994,-0.09166666666666666],[0.33624999999999994,-0.09166666666666666],[0.34958333333333325,0.12407407407407407],[0.34958333333333325,0.12407407407407407],[0.3629166666666668,0.3398148148148148],[0.3629166666666668,0.3398148148148148],[0.36354166666666665,0.5487037037037036],[0.34791666666666665,0.6977777777777777],[0.2934375000000001,0.837037037037037],[0.24364583333333342,0.9770370370370368],[0.19479166666666667,1.055185185185185],[0.14593749999999991,1.1333333333333333],[0.07677083333333339,1.142222222222222],[-0.020729166666666642,1.057037037037037],[-0.020729166666666642,1.057037037037037],[-0.1310416666666666,0.8835185185185186],[-0.2647916666666667,0.7175925925925926],[-0.3667708333333334,0.5453703703703704],[-0.4546875,0.3990740740740741],[-0.4909375,0.2655555555555555],[-0.5329166666666667,0.14388888888888898],[-0.56875,0.09074074074074075],[-0.6045833333333334,0.03759259259259251],[-0.6379166666666667,-0.007592592592592635],[-0.67125,-0.05277777777777778],[-0.7030208333333333,-0.09537037037037037],[-0.7036458333333333,-0.1235185185185185],[-0.7042708333333334,-0.15166666666666662],[-0.7038541666666667,-0.17592592592592593],[-0.7034374999999999,-0.20018518518518522],[-0.7086458333333333,-0.2448148148148148],[-0.7146875,-0.28962962962962957],[-0.7146875,-0.28962962962962957]]","[[-0.5051041666666667,0.09888888888888885,0.00010000000008858478],[-0.4869791666666667,0.11222222222222226,0.016400000000366788],[-0.46802083333333333,0.1175925925925926,0.0344999999999942],[-0.465625,0.15148148148148138,0.04970000000018615],[-0.4671875,0.1648148148148148,0.06710000000008876],[-0.4951041666666667,0.17981481481481484,0.08299999999999841],[-0.5109375,0.18777777777777774,0.099800000000279],[-0.5264583333333334,0.21351851851851844,0.11640000000036821],[-0.5239583333333333,0.21333333333333343,0.13310000000009126],[-0.5214583333333334,0.2131481481481482,0.14970000000018047],[-0.5539583333333333,0.2140740740740741,0.16640000000037247],[-0.5791666666666667,0.23037037037037034,0.18299999999999983],[-0.5992708333333333,0.24777777777777768,0.19960000000008904],[-0.598125,0.21907407407407398,0.21630000000027394],[-0.6053125,0.21648148148148144,0.23320000000018126],[-0.6307291666666667,0.20870370370370378,0.24980000000027758],[-0.6552083333333333,0.19870370370370363,0.2665000000000006],[-0.6583333333333333,0.16814814814814807,0.28310000000008984],[-0.6672916666666667,0.152962962962963,0.29980000000027474],[-0.6814583333333334,0.14425925925925923,0.31640000000037105],[-0.6714583333333334,0.14166666666666666,0.3332000000001827],[-0.6891666666666667,0.12092592592592584,0.3497000000001833],[-0.7155208333333333,0.10259259259259255,0.3664000000003682],[-0.7484375,0.09648148148148153,0.38299999999999557],[-0.6808333333333334,0.06703703703703712,0.39970000000018047],[-0.6018749999999999,0.04018518518518527,0.4163000000002768],[-0.6018749999999999,0.04018518518518527,0.4332000000001841],[-0.5036458333333333,0.02833333333333325,0.4498000000002804],[-0.43208333333333326,-0.003888888888888931,0.46630000000027394],[-0.35833333333333334,-0.0477777777777777,0.482999999999997],[-0.28635416666666663,-0.08574074074074076,0.5001000000000886],[-0.18624999999999994,-0.11500000000000005,0.5165000000000006],[-0.07406250000000002,-0.1294444444444444,0.5339000000003722],[0.033645833333333285,-0.152962962962963,0.5496000000000905],[0.1622916666666666,-0.17555555555555558,0.5663000000002754],[0.18937499999999996,-0.18333333333333332,0.5829999999999984],[0.2265625,-0.17481481481481478,0.5997000000001833],[0.23145833333333338,-0.172037037037037,0.6164000000003682],[0.24364583333333342,-0.15481481481481485,0.633200000000187],[0.2665625000000001,-0.13907407407407413,0.6497000000001805],[0.2964583333333332,-0.13574074074074077,0.6664000000003725],[0.303125,-0.1507407407407407,0.6831000000000884],[0.3181250000000001,-0.17777777777777778,0.6998000000002804],[0.3460416666666667,-0.1816666666666667,0.7164000000003696],[0.3506249999999999,-0.21129629629629634,0.7337000000001836],[0.3685416666666666,-0.23796296296296296,0.7502000000001843],[0.37687499999999996,-0.2868518518518518,0.7664000000003668],[0.3913541666666667,-0.3237037037037037,0.7830000000000013],[0.38520833333333326,-0.34870370370370374,0.7997000000001862],[0.3681250000000001,-0.36370370370370364,0.8163000000002754],[0.3681250000000001,-0.36370370370370364,0.8331000000000941],[0.35739583333333325,-0.3831481481481481,0.8497000000001833],[0.37354166666666655,-0.38851851851851854,0.8669000000003706],[0.37354166666666655,-0.38851851851851854,0.8900000000000006],[0.3896874999999999,-0.39388888888888884,0.9076000000000874],[0.3896874999999999,-0.39388888888888884,0.9163000000002768],[0.3810416666666666,-0.3957407407407407,0.9331000000000884],[0.37479166666666663,-0.3727777777777778,0.9497000000001847],[0.35572916666666665,-0.3527777777777778,0.9664000000003696],[0.34427083333333336,-0.32703703703703707,0.982999999999997],[0.32041666666666657,-0.3198148148148148,0.9997000000001819],[0.32041666666666657,-0.3198148148148148,1.0164000000003668],[0.31489583333333326,-0.31574074074074077,1.0331000000000898],[0.31489583333333326,-0.31574074074074077,1.0497000000001862],[0.3145833333333333,-0.252962962962963,1.066400000000371],[0.3145833333333333,-0.252962962962963,1.0829999999999984],[0.33624999999999994,-0.09166666666666666,1.0997000000001833],[0.33624999999999994,-0.09166666666666666,1.1164000000003682],[0.34958333333333325,0.12407407407407407,1.1333000000002755],[0.34958333333333325,0.12407407407407407,1.1498000000002762],[0.3629166666666668,0.3398148148148148,1.1664999999999992],[0.3629166666666668,0.3398148148148148,1.1831000000000884],[0.36354166666666665,0.5487037037037036,1.1998000000002804],[0.34791666666666665,0.6977777777777777,1.2164000000003696],[0.2934375000000001,0.837037037037037,1.236300000000277],[0.24364583333333342,0.9770370370370368,1.2498000000002776],[0.19479166666666667,1.055185185185185,1.2664000000003668],[0.14593749999999991,1.1333333333333333,1.2830000000000013],[0.07677083333333339,1.142222222222222,1.2997000000001862],[-0.020729166666666642,1.057037037037037,1.3163000000002754],[-0.020729166666666642,1.057037037037037,1.3332000000001827],[-0.1310416666666666,0.8835185185185186,1.349800000000279],[-0.2647916666666667,0.7175925925925926,1.3664000000003682],[-0.3667708333333334,0.5453703703703704,1.3829999999999956],[-0.4546875,0.3990740740740741,1.3998000000002762],[-0.4909375,0.2655555555555555,1.4163000000002768],[-0.5329166666666667,0.14388888888888898,1.4359000000003732],[-0.56875,0.09074074074074075,1.4498000000002804],[-0.6045833333333334,0.03759259259259251,1.466300000000274],[-0.6379166666666667,-0.007592592592592635,1.482999999999997],[-0.67125,-0.05277777777777778,1.4997000000001819],[-0.7030208333333333,-0.09537037037037037,1.5199000000003693],[-0.7036458333333333,-0.1235185185185185,1.537300000000279],[-0.7042708333333334,-0.15166666666666662,1.5506000000000881],[-0.7038541666666667,-0.17592592592592593,1.566400000000371],[-0.7034374999999999,-0.20018518518518522,1.5832000000001827],[-0.7086458333333333,-0.2448148148148148,1.5997000000001833],[-0.7146875,-0.28962962962962957,1.6164000000003682],[-0.7146875,-0.28962962962962957,1.633200000000187]]","[0.00010000000008858478,0.016400000000366788,0.0344999999999942,0.04970000000018615,0.06710000000008876,0.08299999999999841,0.099800000000279,0.11640000000036821,0.13310000000009126,0.14970000000018047,0.16640000000037247,0.18299999999999983,0.19960000000008904,0.21630000000027394,0.23320000000018126,0.24980000000027758,0.2665000000000006,0.28310000000008984,0.29980000000027474,0.31640000000037105,0.3332000000001827,0.3497000000001833,0.3664000000003682,0.38299999999999557,0.39970000000018047,0.4163000000002768,0.4332000000001841,0.4498000000002804,0.46630000000027394,0.482999999999997,0.5001000000000886,0.5165000000000006,0.5339000000003722,0.5496000000000905,0.5663000000002754,0.5829999999999984,0.5997000000001833,0.6164000000003682,0.633200000000187,0.6497000000001805,0.6664000000003725,0.6831000000000884,0.6998000000002804,0.7164000000003696,0.7337000000001836,0.7502000000001843,0.7664000000003668,0.7830000000000013,0.7997000000001862,0.8163000000002754,0.8331000000000941,0.8497000000001833,0.8669000000003706,0.8900000000000006,0.9076000000000874,0.9163000000002768,0.9331000000000884,0.9497000000001847,0.9664000000003696,0.982999999999997,0.9997000000001819,1.0164000000003668,1.0331000000000898,1.0497000000001862,1.066400000000371,1.0829999999999984,1.0997000000001833,1.1164000000003682,1.1333000000002755,1.1498000000002762,1.1664999999999992,1.1831000000000884,1.1998000000002804,1.2164000000003696,1.236300000000277,1.2498000000002776,1.2664000000003668,1.2830000000000013,1.2997000000001862,1.3163000000002754,1.3332000000001827,1.349800000000279,1.3664000000003682,1.3829999999999956,1.3998000000002762,1.4163000000002768,1.4359000000003732,1.4498000000002804,1.466300000000274,1.482999999999997,1.4997000000001819,1.5199000000003693,1.537300000000279,1.5506000000000881,1.566400000000371,1.5832000000001827,1.5997000000001833,1.6164000000003682,1.633200000000187]","[1733114014157,1733114014172,1733114014190,1733114014205,1733114014223,1733114014239,1733114014255,1733114014272,1733114014289,1733114014305,1733114014322,1733114014339,1733114014355,1733114014372,1733114014389,1733114014405,1733114014422,1733114014439,1733114014455,1733114014472,1733114014489,1733114014505,1733114014522,1733114014539,1733114014555,1733114014572,1733114014589,1733114014605,1733114014622,1733114014639,1733114014656,1733114014672,1733114014689,1733114014705,1733114014722,1733114014739,1733114014755,1733114014772,1733114014789,1733114014805,1733114014822,1733114014839,1733114014855,1733114014872,1733114014889,1733114014906,1733114014922,1733114014939,1733114014955,1733114014972,1733114014989,1733114015005,1733114015022,1733114015046,1733114015063,1733114015072,1733114015089,1733114015105,1733114015122,1733114015139,1733114015155,1733114015172,1733114015189,1733114015205,1733114015222,1733114015239,1733114015255,1733114015272,1733114015289,1733114015305,1733114015322,1733114015339,1733114015355,1733114015372,1733114015392,1733114015405,1733114015422,1733114015439,1733114015455,1733114015472,1733114015489,1733114015505,1733114015522,1733114015539,1733114015555,1733114015572,1733114015592,1733114015605,1733114015622,1733114015639,1733114015655,1733114015676,1733114015693,1733114015706,1733114015722,1733114015739,1733114015755,1733114015772,1733114015789]","[[475.1,593.4],[492.5,600.6],[510.7,603.5],[513,621.8],[511.5,629],[484.7,637.1],[469.5,641.4],[454.6,655.3],[457,655.2],[459.4,655.1],[428.2,655.6],[404,664.4],[384.7,673.8],[385.8,658.3],[378.9,656.9],[354.5,652.7],[331,647.3],[328,630.8],[319.4,622.6],[305.8,617.9],[315.4,616.5],[298.4,605.3],[273.1,595.4],[241.5,592.1],[306.4,576.2],[382.2,561.7],[382.2,561.7],[476.5,555.3],[545.2,537.9],[616,514.2],[685.1,493.7],[781.2,477.9],[888.9,470.1],[992.3,457.4],[1115.8,445.2],[1141.8,441],[1177.5,445.6],[1182.2,447.1],[1193.9,456.4],[1215.9,464.9],[1244.6,466.7],[1251,458.6],[1265.4,444],[1292.2,441.9],[1296.6,425.9],[1313.8,411.5],[1321.8,385.1],[1335.7,365.2],[1329.8,351.7],[1313.4,343.6],[1313.4,343.6],[1303.1,333.1],[1318.6,330.2],[1318.6,330.2],[1334.1,327.3],[1334.1,327.3],[1325.8,326.3],[1319.8,338.7],[1301.5,349.5],[1290.5,363.4],[1267.6,367.3],[1267.6,367.3],[1262.3,369.5],[1262.3,369.5],[1262,403.4],[1262,403.4],[1282.8,490.5],[1282.8,490.5],[1295.6,607],[1295.6,607],[1308.4,723.5],[1308.4,723.5],[1309,836.3],[1294,916.8],[1241.7,992],[1193.9,1067.6],[1147,1109.8],[1100.1,1152],[1033.7,1156.8],[940.1,1110.8],[940.1,1110.8],[834.2,1017.1],[705.8,927.5],[607.9,834.5],[523.5,755.5],[488.7,683.4],[448.4,617.7],[414,589],[379.6,560.3],[347.6,535.9],[315.6,511.5],[285.1,488.5],[284.5,473.3],[283.9,458.1],[284.3,445],[284.7,431.9],[279.7,407.8],[273.9,383.6],[273.9,383.6]]","[0,0.5333]","[0.5333,0.5333]","[-0.5333,-0.5333]","[-0.5333,0]","[0,-0.5333]","[0.5333,-0.5333]","[0,0]","[0.5333,0]",0,1,1,1,1,4,Monitor,5,1,13,7
,,,,,,,,,,,,,,,,,,,03,001,2024-12-02_12h32.48.972,Attention_exp_legacy,2023.1.0,Win32,59.88023952,,,,,,,,,,,[0.41354166666666664],[0.4425925925925926],[1],[0],[0],[0.9311000000000931],"[""Option2_label""]",Option2_label,3,1.9338,"[[0.41354166666666664,0.4425925925925926],[0.41354166666666664,0.4425925925925926],[0.41354166666666664,0.4425925925925926],[0.41354166666666664,0.4425925925925926],[0.41354166666666664,0.4425925925925926],[0.41354166666666664,0.4425925925925926],[0.41354166666666664,0.4425925925925926],[0.41354166666666664,0.4425925925925926],[0.41354166666666664,0.4425925925925926],[0.41354166666666664,0.4425925925925926],[0.41354166666666664,0.4425925925925926],[0.41354166666666664,0.4425925925925926],[0.41354166666666664,0.4425925925925926],[0.41354166666666664,0.4425925925925926],[0.41354166666666664,0.4425925925925926],[0.41354166666666664,0.4425925925925926],[0.41354166666666664,0.4425925925925926],[0.41354166666666664,0.4425925925925926],[0.41354166666666664,0.4425925925925926],[0.41354166666666664,0.4425925925925926],[0.41354166666666664,0.4425925925925926],[0.41354166666666664,0.4425925925925926],[0.41354166666666664,0.4425925925925926],[0.41354166666666664,0.4425925925925926],[0.41354166666666664,0.4425925925925926],[0.41354166666666664,0.4425925925925926],[0.41354166666666664,0.4425925925925926],[0.41354166666666664,0.4425925925925926],[0.41354166666666664,0.4425925925925926],[0.41354166666666664,0.4425925925925926],[0.41354166666666664,0.4425925925925926],[0.41354166666666664,0.4425925925925926],[0.41354166666666664,0.4425925925925926],[0.41354166666666664,0.4425925925925926],[0.41354166666666664,0.4425925925925926],[0.41354166666666664,0.4425925925925926],[0.41354166666666664,0.4425925925925926],[0.41354166666666664,0.4425925925925926],[0.41354166666666664,0.4425925925925926],[0.41354166666666664,0.4425925925925926],[0.41354166666666664,0.4425925925925926],[0.41354166666666664,0.4425925925925926],[0.41354166666666664,0.4425925925925926],[0.41354166666666664,0.4425925925925926],[0.41354166666666664,0.4425925925925926],[0.41354166666666664,0.4425925925925926],[0.41354166666666664,0.4425925925925926],[0.41354166666666664,0.4425925925925926],[0.41354166666666664,0.4425925925925926],[0.41354166666666664,0.4425925925925926],[0.41354166666666664,0.4425925925925926],[0.41354166666666664,0.4425925925925926],[0.41354166666666664,0.4425925925925926],[0.41354166666666664,0.4425925925925926],[0.41354166666666664,0.4425925925925926],[0.41354166666666664,0.4425925925925926],[0.41354166666666664,0.4425925925925926],[0.41354166666666664,0.4425925925925926],[0.41354166666666664,0.4425925925925926],[0.41354166666666664,0.4425925925925926],[0.41354166666666664,0.4425925925925926],[0.41354166666666664,0.4425925925925926],[0.41354166666666664,0.4425925925925926],[0.41354166666666664,0.4425925925925926],[0.41354166666666664,0.4425925925925926],[0.41354166666666664,0.4425925925925926],[0.41354166666666664,0.4425925925925926],[0.41354166666666664,0.4425925925925926],[0.41354166666666664,0.4425925925925926],[0.41354166666666664,0.4425925925925926],[0.41354166666666664,0.4425925925925926],[0.41354166666666664,0.4425925925925926],[0.41354166666666664,0.4425925925925926],[0.41354166666666664,0.4425925925925926],[0.41354166666666664,0.4425925925925926],[0.41354166666666664,0.4425925925925926],[0.41354166666666664,0.4425925925925926],[0.41354166666666664,0.4425925925925926],[0.41354166666666664,0.4425925925925926],[0.41354166666666664,0.4425925925925926],[0.41354166666666664,0.4425925925925926],[0.41354166666666664,0.4425925925925926],[0.41354166666666664,0.4425925925925926],[0.41354166666666664,0.4425925925925926],[0.41354166666666664,0.4425925925925926],[0.41354166666666664,0.4425925925925926],[0.41354166666666664,0.4425925925925926],[0.41354166666666664,0.4425925925925926],[0.41354166666666664,0.4425925925925926],[0.41354166666666664,0.4425925925925926],[0.41354166666666664,0.4425925925925926],[0.41354166666666664,0.4425925925925926],[0.41354166666666664,0.4425925925925926],[0.41354166666666664,0.4425925925925926],[0.41354166666666664,0.4425925925925926],[0.41354166666666664,0.4425925925925926],[0.41354166666666664,0.4425925925925926],[0.41354166666666664,0.4425925925925926],[0.41354166666666664,0.4425925925925926],[0.41354166666666664,0.4425925925925926],[0.41354166666666664,0.4425925925925926],[0.41354166666666664,0.4425925925925926],[0.41354166666666664,0.4425925925925926],[0.41354166666666664,0.4425925925925926],[0.41354166666666664,0.4425925925925926],[0.41354166666666664,0.4425925925925926],[0.41354166666666664,0.4425925925925926],[0.41354166666666664,0.4425925925925926],[0.41354166666666664,0.4425925925925926],[0.41354166666666664,0.4425925925925926],[0.41354166666666664,0.4425925925925926],[0.41354166666666664,0.4425925925925926],[0.41354166666666664,0.4425925925925926],[0.41354166666666664,0.4425925925925926],[0.41354166666666664,0.4425925925925926],[0.41354166666666664,0.4425925925925926],[0.41354166666666664,0.4425925925925926]]","[[0.15291666666666662,-0.06500000000000004],[0.1352083333333333,-0.08981481481481482],[0.1599999999999999,-0.06981481481481479],[0.1865624999999999,-0.06796296296296295],[0.18635416666666677,-0.07092592592592595],[0.1796875,-0.07759259259259255],[0.1727083333333333,-0.08648148148148146],[0.16572916666666657,-0.09537037037037037],[0.1568749999999999,-0.10333333333333336],[0.14802083333333324,-0.11129629629629634],[0.12781250000000005,-0.06111111111111111],[0.1349999999999999,-0.049074074074074076],[0.1349999999999999,-0.049074074074074076],[0.12552083333333333,-0.05462962962962963],[0.11260416666666657,-0.06018518518518518],[0.09968750000000005,-0.06574074074074074],[0.07510416666666657,-0.0485185185185186],[0.06312500000000003,-0.032777777777777864],[0.014999999999999977,-0.0301851851851851],[-0.03250000000000005,-0.052037037037037076],[-0.11072916666666661,-0.019444444444444445],[-0.17531249999999995,-0.07537037037037035],[-0.2553125,-0.0948148148148148],[-0.3382291666666667,-0.12314814814814815],[-0.3382291666666667,-0.12314814814814815],[-0.4018749999999999,-0.12018518518518514],[-0.4813541666666667,-0.13296296296296298],[-0.5442708333333334,-0.1346296296296296],[-0.60875,-0.16166666666666668],[-0.6470833333333333,-0.15333333333333335],[-0.6470833333333333,-0.15333333333333335],[-0.6854166666666667,-0.14500000000000002],[-0.6886458333333334,-0.18370370370370367],[-0.6965625000000001,-0.16370370370370366],[-0.6948958333333334,-0.1581481481481481],[-0.6948958333333334,-0.1581481481481481],[-0.6932291666666667,-0.15259259259259256],[-0.6932291666666667,-0.15259259259259256],[-0.7326041666666666,-0.16351851851851854],[-0.7326041666666666,-0.16351851851851854],[-0.7234375,-0.127962962962963],[-0.7234375,-0.127962962962963],[-0.7344791666666667,-0.11500000000000005],[-0.7344791666666667,-0.11500000000000005],[-0.7041666666666667,-0.07296296296296292],[-0.7041666666666667,-0.07296296296296292],[-0.6637500000000001,-0.06759259259259259],[-0.6095833333333334,-0.09907407407407408],[-0.5664583333333333,-0.12185185185185188],[-0.5148958333333333,-0.16833333333333328],[-0.47197916666666667,-0.17388888888888884],[-0.3765625,-0.16944444444444445],[-0.27927083333333336,-0.13648148148148145],[-0.17937500000000003,-0.1287037037037037],[-0.08822916666666672,-0.1412962962962963],[-0.01729166666666669,-0.13370370370370369],[0.04010416666666667,-0.11500000000000005],[0.0921875,-0.056666666666666705],[0.1423958333333334,-0.019444444444444445],[0.18416666666666662,0.04148148148148144],[0.24989583333333343,0.032777777777777864],[0.26531250000000006,0.051111111111111156],[0.29749999999999993,0.04296296296296305],[0.2943749999999999,0.029259259259259176],[0.29322916666666665,0.05018518518518523],[0.2724999999999999,0.04722222222222222],[0.27291666666666664,0.05814814814814811],[0.2648958333333333,0.06629629629629621],[0.26291666666666674,0.04611111111111107],[0.2609375,0.025925925925925925],[0.24354166666666663,0.04148148148148144],[0.22395833333333334,0.019999999999999917],[0.2193749999999999,0.028888888888888933],[0.2101041666666667,0.02111111111111107],[0.21843750000000003,0.0025925925925925505],[0.21708333333333343,0.009814814814814731],[0.20802083333333338,0.006481481481481481],[0.16916666666666677,0.014259259259259343],[0.1328125,0.05537037037037033],[0.09645833333333324,0.09648148148148153],[0.05697916666666671,0.13759259259259252],[0.017499999999999953,0.1787037037037037],[0.0007291666666667141,0.17388888888888884],[-0.011354166666666643,0.18574074074074065],[-0.05375000000000003,0.21870370370370373],[-0.07947916666666661,0.19611111111111107],[-0.10062500000000002,0.202962962962963],[-0.09197916666666663,0.19870370370370363],[-0.11177083333333329,0.1648148148148148],[-0.13156249999999994,0.130925925925926],[-0.1608333333333333,0.09740740740740746],[-0.18822916666666673,0.06296296296296296],[-0.234375,0.056666666666666705],[-0.2835416666666667,0.03259259259259263],[-0.3116666666666667,0.03740740740740749],[-0.3467708333333333,0.072037037037037],[-0.37218749999999995,0.05814814814814811],[-0.4109375,0.06703703703703712],[-0.42124999999999996,0.10555555555555556],[-0.428125,0.14629629629629629],[-0.4165625,0.18555555555555564],[-0.41166666666666674,0.22962962962962963],[-0.4209375,0.2624074074074075],[-0.4271875,0.31296296296296294],[-0.4233333333333333,0.319074074074074],[-0.41947916666666674,0.32518518518518524],[-0.4319791666666667,0.3446296296296297],[-0.4311458333333333,0.3412962962962962],[-0.41906249999999995,0.3435185185185185],[-0.41906249999999995,0.3435185185185185],[-0.41041666666666665,0.3435185185185185],[-0.4055208333333333,0.33537037037037043],[-0.36822916666666666,0.32092592592592584],[-0.34479166666666666,0.3198148148148149],[-0.31312500000000004,0.3135185185185184],[-0.28229166666666666,0.30166666666666664],[-0.22687499999999997,0.29074074074074074]]","[[0.15291666666666662,-0.06500000000000004,0.00010000000008858478],[0.1352083333333333,-0.08981481481481482,0.01560000000009154],[0.1599999999999999,-0.06981481481481479,0.03130000000027877],[0.1865624999999999,-0.06796296296296295,0.04789999999990613],[0.18635416666666677,-0.07092592592592595,0.06460000000009103],[0.1796875,-0.07759259259259255,0.08220000000018501],[0.1727083333333333,-0.08648148148148146,0.10110000000008768],[0.16572916666666657,-0.09537037037037037,0.11480000000027957],[0.1568749999999999,-0.10333333333333336,0.1312000000001845],[0.14802083333333324,-0.11129629629629634,0.14789999999990755],[0.12781250000000005,-0.06111111111111111,0.16460000000009245],[0.1349999999999999,-0.049074074074074076,0.18130000000027735],[0.1349999999999999,-0.049074074074074076,0.1980000000000004],[0.12552083333333333,-0.05462962962962963,0.2146000000000896],[0.11260416666666657,-0.06018518518518518,0.2313000000002745],[0.09968750000000005,-0.06574074074074074,0.24789999999990187],[0.07510416666666657,-0.0485185185185186,0.2644999999999982],[0.06312500000000003,-0.032777777777777864,0.2838000000002765],[0.014999999999999977,-0.0301851851851851,0.30049999999999955],[-0.03250000000000005,-0.052037037037037076,0.31460000000009103],[-0.11072916666666661,-0.019444444444444445,0.33120000000018024],[-0.17531249999999995,-0.07537037037037035,0.3478999999999033],[-0.2553125,-0.0948148148148148,0.3644999999999996],[-0.3382291666666667,-0.12314814814814815,0.3812000000001845],[-0.3382291666666667,-0.12314814814814815,0.3982000000001804],[-0.4018749999999999,-0.12018518518518514,0.41449999999999676],[-0.4813541666666667,-0.13296296296296298,0.43120000000018166],[-0.5442708333333334,-0.1346296296296296,0.4478999999999047],[-0.60875,-0.16166666666666668,0.467800000000274],[-0.6470833333333333,-0.15333333333333335,0.4812000000001859],[-0.6470833333333333,-0.15333333333333335,0.49810000000009325],[-0.6854166666666667,-0.14500000000000002,0.5144999999999982],[-0.6886458333333334,-0.18370370370370367,0.5313000000002788],[-0.6965625000000001,-0.16370370370370366,0.5478999999999061],[-0.6948958333333334,-0.1581481481481481,0.564600000000091],[-0.6948958333333334,-0.1581481481481481,0.5813000000002759],[-0.6932291666666667,-0.15259259259259256,0.597999999999999],[-0.6932291666666667,-0.15259259259259256,0.6144999999999996],[-0.7326041666666666,-0.16351851851851854,0.6313999999999069],[-0.7326041666666666,-0.16351851851851854,0.6478999999999075],[-0.7234375,-0.127962962962963,0.6646000000000925],[-0.7234375,-0.127962962962963,0.6812000000001817],[-0.7344791666666667,-0.11500000000000005,0.6983000000002733],[-0.7344791666666667,-0.11500000000000005,0.7144999999999939],[-0.7041666666666667,-0.07296296296296292,0.7313000000002745],[-0.7041666666666667,-0.07296296296296292,0.7478999999999019],[-0.6637500000000001,-0.06759259259259259,0.7646000000000868],[-0.6095833333333334,-0.09907407407407408,0.7812000000001831],[-0.5664583333333333,-0.12185185185185188,0.7996000000000905],[-0.5148958333333333,-0.16833333333333328,0.8155000000000001],[-0.47197916666666667,-0.17388888888888884,0.8312000000001802],[-0.3765625,-0.16944444444444445,0.8478999999999033],[-0.27927083333333336,-0.13648148148148145,0.8646000000000882],[-0.17937500000000003,-0.1287037037037037,0.8813000000002731],[-0.08822916666666672,-0.1412962962962963,0.8978999999999075],[-0.01729166666666669,-0.13370370370370369,0.9144999999999968],[0.04010416666666667,-0.11500000000000005,0.931700000000184],[0.0921875,-0.056666666666666705,0.9478999999999047],[0.1423958333333334,-0.019444444444444445,0.9644999999999939],[0.18416666666666662,0.04148148148148144,0.9813000000002745],[0.24989583333333343,0.032777777777777864,0.9981000000000932],[0.26531250000000006,0.051111111111111156,1.0157000000001801],[0.29749999999999993,0.04296296296296305,1.0313000000002788],[0.2943749999999999,0.029259259259259176,1.0478999999999061],[0.29322916666666665,0.05018518518518523,1.064600000000091],[0.2724999999999999,0.04722222222222222,1.0812000000001802],[0.27291666666666664,0.05814814814814811,1.098899999999901],[0.2648958333333333,0.06629629629629621,1.1144999999999996],[0.26291666666666674,0.04611111111111107,1.1312000000001845],[0.2609375,0.025925925925925925,1.1478000000002737],[0.24354166666666663,0.04148148148148144,1.1644999999999968],[0.22395833333333334,0.019999999999999917,1.1812000000001817],[0.2193749999999999,0.028888888888888933,1.198100000000089],[0.2101041666666667,0.02111111111111107,1.2146000000000896],[0.21843750000000003,0.0025925925925925505,1.2313999999999012],[0.21708333333333343,0.009814814814814731,1.2509999999999977],[0.20802083333333338,0.006481481481481481,1.2648999999999049],[0.16916666666666677,0.014259259259259343,1.2813000000002788],[0.1328125,0.05537037037037033,1.2979999999999947],[0.09645833333333324,0.09648148148148153,1.3144999999999953],[0.05697916666666671,0.13759259259259252,1.3312000000001802],[0.017499999999999953,0.1787037037037037,1.3478000000002766],[0.0007291666666667141,0.17388888888888884,1.3646000000000882],[-0.011354166666666643,0.18574074074074065,1.3812000000001845],[-0.05375000000000003,0.21870370370370373,1.4008999999999006],[-0.07947916666666661,0.19611111111111107,1.4148999999999035],[-0.10062500000000002,0.202962962962963,1.4312000000001817],[-0.09197916666666663,0.19870370370370363,1.447800000000278],[-0.11177083333333329,0.1648148148148148,1.4646000000000896],[-0.13156249999999994,0.130925925925926,1.4813000000002745],[-0.1608333333333333,0.09740740740740746,1.5015],[-0.18822916666666673,0.06296296296296296,1.5154999999999959],[-0.234375,0.056666666666666705,1.531200000000183],[-0.2835416666666667,0.03259259259259263,1.5478000000002794],[-0.3116666666666667,0.03740740740740749,1.5644999999999953],[-0.3467708333333333,0.072037037037037,1.5812000000001802],[-0.37218749999999995,0.05814814814814811,1.5983999999999057],[-0.4109375,0.06703703703703712,1.6146000000000882],[-0.42124999999999996,0.10555555555555556,1.631999999999998],[-0.428125,0.14629629629629629,1.6479999999999961],[-0.4165625,0.18555555555555564,1.6653999999999058],[-0.41166666666666674,0.22962962962962963,1.6812000000001817],[-0.4209375,0.2624074074074075,1.6980000000000004],[-0.4271875,0.31296296296296294,1.714499999999994],[-0.4233333333333333,0.319074074074074,1.731200000000186],[-0.41947916666666674,0.32518518518518524,1.7478000000002751],[-0.4319791666666667,0.3446296296296297,1.7647000000001825],[-0.4311458333333333,0.3412962962962962,1.7811000000000874],[-0.41906249999999995,0.3435185185185185,1.798499999999997],[-0.41906249999999995,0.3435185185185185,1.814600000000091],[-0.41041666666666665,0.3435185185185185,1.8313999999999027],[-0.4055208333333333,0.33537037037037043,1.8478999999999033],[-0.36822916666666666,0.32092592592592584,1.8646000000000882],[-0.34479166666666666,0.3198148148148149,1.881300000000273],[-0.31312500000000004,0.3135185185185184,1.901399999999903],[-0.28229166666666666,0.30166666666666664,1.9177000000001811],[-0.22687499999999997,0.29074074074074074,1.933800000000275]]","[0.00010000000008858478,0.01560000000009154,0.03130000000027877,0.04789999999990613,0.06460000000009103,0.08220000000018501,0.10110000000008768,0.11480000000027957,0.1312000000001845,0.14789999999990755,0.16460000000009245,0.18130000000027735,0.1980000000000004,0.2146000000000896,0.2313000000002745,0.24789999999990187,0.2644999999999982,0.2838000000002765,0.30049999999999955,0.31460000000009103,0.33120000000018024,0.3478999999999033,0.3644999999999996,0.3812000000001845,0.3982000000001804,0.41449999999999676,0.43120000000018166,0.4478999999999047,0.467800000000274,0.4812000000001859,0.49810000000009325,0.5144999999999982,0.5313000000002788,0.5478999999999061,0.564600000000091,0.5813000000002759,0.597999999999999,0.6144999999999996,0.6313999999999069,0.6478999999999075,0.6646000000000925,0.6812000000001817,0.6983000000002733,0.7144999999999939,0.7313000000002745,0.7478999999999019,0.7646000000000868,0.7812000000001831,0.7996000000000905,0.8155000000000001,0.8312000000001802,0.8478999999999033,0.8646000000000882,0.8813000000002731,0.8978999999999075,0.9144999999999968,0.931700000000184,0.9478999999999047,0.9644999999999939,0.9813000000002745,0.9981000000000932,1.0157000000001801,1.0313000000002788,1.0478999999999061,1.064600000000091,1.0812000000001802,1.098899999999901,1.1144999999999996,1.1312000000001845,1.1478000000002737,1.1644999999999968,1.1812000000001817,1.198100000000089,1.2146000000000896,1.2313999999999012,1.2509999999999977,1.2648999999999049,1.2813000000002788,1.2979999999999947,1.3144999999999953,1.3312000000001802,1.3478000000002766,1.3646000000000882,1.3812000000001845,1.4008999999999006,1.4148999999999035,1.4312000000001817,1.447800000000278,1.4646000000000896,1.4813000000002745,1.5015,1.5154999999999959,1.531200000000183,1.5478000000002794,1.5644999999999953,1.5812000000001802,1.5983999999999057,1.6146000000000882,1.631999999999998,1.6479999999999961,1.6653999999999058,1.6812000000001817,1.6980000000000004,1.714499999999994,1.731200000000186,1.7478000000002751,1.7647000000001825,1.7811000000000874,1.798499999999997,1.814600000000091,1.8313999999999027,1.8478999999999033,1.8646000000000882,1.881300000000273,1.901399999999903,1.9177000000001811,1.933800000000275]","[1733114016791,1733114016806,1733114016822,1733114016839,1733114016855,1733114016873,1733114016892,1733114016905,1733114016922,1733114016938,1733114016955,1733114016972,1733114016989,1733114017005,1733114017022,1733114017039,1733114017055,1733114017074,1733114017091,1733114017105,1733114017122,1733114017139,1733114017155,1733114017172,1733114017189,1733114017205,1733114017222,1733114017239,1733114017258,1733114017272,1733114017289,1733114017305,1733114017322,1733114017339,1733114017355,1733114017372,1733114017389,1733114017405,1733114017422,1733114017439,1733114017455,1733114017472,1733114017489,1733114017505,1733114017522,1733114017539,1733114017555,1733114017572,1733114017590,1733114017606,1733114017622,1733114017639,1733114017655,1733114017672,1733114017689,1733114017705,1733114017722,1733114017739,1733114017755,1733114017772,1733114017789,1733114017806,1733114017822,1733114017839,1733114017855,1733114017872,1733114017890,1733114017905,1733114017922,1733114017939,1733114017955,1733114017972,1733114017989,1733114018005,1733114018022,1733114018042,1733114018056,1733114018072,1733114018089,1733114018105,1733114018122,1733114018139,1733114018155,1733114018172,1733114018191,1733114018206,1733114018222,1733114018239,1733114018255,1733114018272,1733114018292,1733114018306,1733114018322,1733114018339,1733114018355,1733114018372,1733114018389,1733114018405,1733114018423,1733114018439,1733114018456,1733114018472,1733114018489,1733114018505,1733114018522,1733114018538,1733114018555,1733114018572,1733114018589,1733114018605,1733114018622,1733114018639,1733114018655,1733114018672,1733114018692,1733114018708,1733114018724]","[[1106.8,504.9],[1089.8,491.5],[1113.6,502.3],[1139.1,503.3],[1138.9,501.7],[1132.5,498.1],[1125.8,493.3],[1119.1,488.5],[1110.6,484.2],[1102.1,479.9],[1082.7,507],[1089.6,513.5],[1089.6,513.5],[1080.5,510.5],[1068.1,507.5],[1055.7,504.5],[1032.1,513.8],[1020.6,522.3],[974.4,523.7],[928.8,511.9],[853.7,529.5],[791.7,499.3],[714.9,488.8],[635.3,473.5],[635.3,473.5],[574.2,475.1],[497.9,468.2],[437.5,467.3],[375.6,452.7],[338.8,457.2],[338.8,457.2],[302,461.7],[298.9,440.8],[291.3,451.6],[292.9,454.6],[292.9,454.6],[294.5,457.6],[294.5,457.6],[256.7,451.7],[256.7,451.7],[265.5,470.9],[265.5,470.9],[254.9,477.9],[254.9,477.9],[284,500.6],[284,500.6],[322.8,503.5],[374.8,486.5],[416.2,474.2],[465.7,449.1],[506.9,446.1],[598.5,448.5],[691.9,466.3],[787.8,470.5],[875.3,463.7],[943.4,467.8],[998.5,477.9],[1048.5,509.4],[1096.7,529.5],[1136.8,562.4],[1199.9,557.7],[1214.7,567.6],[1245.6,563.2],[1242.6,555.8],[1241.5,567.1],[1221.6,565.5],[1222,571.4],[1214.3,575.8],[1212.4,564.9],[1210.5,554],[1193.8,562.4],[1175,550.8],[1170.6,555.6],[1161.7,551.4],[1169.7,541.4],[1168.4,545.3],[1159.7,543.5],[1122.4,547.7],[1087.5,569.9],[1052.6,592.1],[1014.7,614.3],[976.8,636.5],[960.7,633.9],[949.1,640.3],[908.4,658.1],[883.7,645.9],[863.4,649.6],[871.7,647.3],[852.7,629],[833.7,610.7],[805.6,592.6],[779.3,574],[735,570.6],[687.8,557.6],[660.8,560.2],[627.1,578.9],[602.7,571.4],[565.5,576.2],[555.6,597],[549,619],[560.1,640.2],[564.8,664],[555.9,681.7],[549.9,709],[553.6,712.3],[557.3,715.6],[545.3,726.1],[546.1,724.3],[557.7,725.5],[557.7,725.5],[566,725.5],[570.7,721.1],[606.5,713.3],[629,712.7],[659.4,709.3],[689,702.9],[742.2,697]]","[0,0.5333]","[0.5333,0.5333]","[-0.5333,-0.5333]","[-0.5333,0]","[0,-0.5333]","[0.5333,-0.5333]","[0,0]","[0.5333,0]",0,2,2,2,1,4,Monitor,13,1,15,3
