inst1_resp.keys,inst1_resp.rt,calibrationMouse.x,calibrationMouse.y,calibrationMouse.leftButton,calibrationMouse.midButton,calibrationMouse.rightButton,calibrationClick.x,calibrationClick.y,calibrationClick.leftButton,calibrationClick.midButton,calibrationClick.rightButton,calibrationClick.clicked_name,trialsc.thisRepN,trialsc.thisTrialN,trialsc.thisN,trialsc.thisIndex,trialsc.ran,calibration_x,calibration_y,participant,session,date,expName,psychopyVersion,OS,frameRate,ScreenRes_pixels,Camera_pixels,mouse_2.x,mouse_2.y,mouse_2.leftButton,mouse_2.midButton,mouse_2.rightButton,mouse_2.time,mouse_2.clicked_name,mouse.x,mouse.y,mouse.leftButton,mouse.midButton,mouse.rightButton,mouse.time,mouse.clicked_name,Choice,Trial,TrialDuration,MOUSE_GAZE,ET_GAZE,ET_GAZE_x_T,time,unixTime,ET_GAZE_NF,Loc_Option1_label,Loc_Option2_label,Loc_Cost_label,Loc_Qual_label,Loc_Option1_cost,Loc_Option2_cost,Loc_Option1_quality,Loc_Option2_quality,trials.thisRepN,trials.thisTrialN,trials.thisN,trials.thisIndex,trials.ran,Block,Device,cost1,qual1,cost2,qual2
space,0.4804,0,-0.37962963,1,0,0,-0.666666667,0.322222222,1,0,0,calibration_square,0,0,0,3,1,-0.67,0.33,16,001,2024-12-03_11h07.32.504,Attention_exp_legacy,2023.1.0,Win32,60.24096386,,,,,,,,,,,,,,,,,,,,,,,,,,,,,,,,,,,,,,,,,,,,
,,,,,,,-0.6625,-0.007407407,1,0,0,calibration_square,0,1,1,2,1,-0.67,0,16,001,2024-12-03_11h07.32.504,Attention_exp_legacy,2023.1.0,Win32,60.24096386,,,,,,,,,,,,,,,,,,,,,,,,,,,,,,,,,,,,,,,,,,,,
,,,,,,,0.329166667,-0.32962963,1,0,0,calibration_square,0,2,2,15,1,0.33,-0.33,16,001,2024-12-03_11h07.32.504,Attention_exp_legacy,2023.1.0,Win32,60.24096386,,,,,,,,,,,,,,,,,,,,,,,,,,,,,,,,,,,,,,,,,,,,
,,,,,,,-0.323958333,-0.67962963,1,0,0,calibration_square,0,3,3,4,1,-0.33,-0.67,16,001,2024-12-03_11h07.32.504,Attention_exp_legacy,2023.1.0,Win32,60.24096386,,,,,,,,,,,,,,,,,,,,,,,,,,,,,,,,,,,,,,,,,,,,
,,,,,,,0.329166667,-0.662962963,1,0,0,calibration_square,0,4,4,14,1,0.33,-0.67,16,001,2024-12-03_11h07.32.504,Attention_exp_legacy,2023.1.0,Win32,60.24096386,,,,,,,,,,,,,,,,,,,,,,,,,,,,,,,,,,,,,,,,,,,,
,,,,,,,-0.676041667,-0.331481481,1,0,0,calibration_square,0,5,5,1,1,-0.67,-0.33,16,001,2024-12-03_11h07.32.504,Attention_exp_legacy,2023.1.0,Win32,60.24096386,,,,,,,,,,,,,,,,,,,,,,,,,,,,,,,,,,,,,,,,,,,,
,,,,,,,-0.660416667,-0.646296296,1,0,0,,0,6,6,0,1,-0.67,-0.67,16,001,2024-12-03_11h07.32.504,Attention_exp_legacy,2023.1.0,Win32,60.24096386,,,,,,,,,,,,,,,,,,,,,,,,,,,,,,,,,,,,,,,,,,,,
,,,,,,,-0.323958333,-0.338888889,1,0,0,calibration_square,0,7,7,5,1,-0.33,-0.33,16,001,2024-12-03_11h07.32.504,Attention_exp_legacy,2023.1.0,Win32,60.24096386,,,,,,,,,,,,,,,,,,,,,,,,,,,,,,,,,,,,,,,,,,,,
,,,,,,,0.676041667,0.690740741,1,0,0,,0,8,8,19,1,0.67,0.67,16,001,2024-12-03_11h07.32.504,Attention_exp_legacy,2023.1.0,Win32,60.24096386,,,,,,,,,,,,,,,,,,,,,,,,,,,,,,,,,,,,,,,,,,,,
,,,,,,,-0.330208333,0.331481481,1,0,0,calibration_square,0,9,9,7,1,-0.33,0.33,16,001,2024-12-03_11h07.32.504,Attention_exp_legacy,2023.1.0,Win32,60.24096386,,,,,,,,,,,,,,,,,,,,,,,,,,,,,,,,,,,,,,,,,,,,
,,,,,,,-0.002083333,0.316666667,1,0,0,,0,10,10,12,1,0,0.33,16,001,2024-12-03_11h07.32.504,Attention_exp_legacy,2023.1.0,Win32,60.24096386,,,,,,,,,,,,,,,,,,,,,,,,,,,,,,,,,,,,,,,,,,,,
,,,,,,,0.004166667,0.659259259,1,0,0,,0,11,11,13,1,0,0.67,16,001,2024-12-03_11h07.32.504,Attention_exp_legacy,2023.1.0,Win32,60.24096386,,,,,,,,,,,,,,,,,,,,,,,,,,,,,,,,,,,,,,,,,,,,
,,,,,,,-0.320833333,0.675925926,1,0,0,calibration_square,0,12,12,8,1,-0.33,0.67,16,001,2024-12-03_11h07.32.504,Attention_exp_legacy,2023.1.0,Win32,60.24096386,,,,,,,,,,,,,,,,,,,,,,,,,,,,,,,,,,,,,,,,,,,,
,,,,,,,0.665625,-0.657407407,1,0,0,,0,13,13,20,1,0.67,-0.67,16,001,2024-12-03_11h07.32.504,Attention_exp_legacy,2023.1.0,Win32,60.24096386,,,,,,,,,,,,,,,,,,,,,,,,,,,,,,,,,,,,,,,,,,,,
,,,,,,,0.333333333,0.677777778,1,0,0,calibration_square,0,14,14,18,1,0.33,0.67,16,001,2024-12-03_11h07.32.504,Attention_exp_legacy,2023.1.0,Win32,60.24096386,,,,,,,,,,,,,,,,,,,,,,,,,,,,,,,,,,,,,,,,,,,,
,,,,,,,0.327083333,0.35,1,0,0,,0,15,15,17,1,0.33,0.33,16,001,2024-12-03_11h07.32.504,Attention_exp_legacy,2023.1.0,Win32,60.24096386,,,,,,,,,,,,,,,,,,,,,,,,,,,,,,,,,,,,,,,,,,,,
,,,,,,,0.35,0.02037037,1,0,0,,0,16,16,16,1,0.33,0,16,001,2024-12-03_11h07.32.504,Attention_exp_legacy,2023.1.0,Win32,60.24096386,,,,,,,,,,,,,,,,,,,,,,,,,,,,,,,,,,,,,,,,,,,,
,,,,,,,0.003125,0.02037037,1,0,0,,0,17,17,11,1,0,0,16,001,2024-12-03_11h07.32.504,Attention_exp_legacy,2023.1.0,Win32,60.24096386,,,,,,,,,,,,,,,,,,,,,,,,,,,,,,,,,,,,,,,,,,,,
,,,,,,,-0.00625,-0.335185185,1,0,0,calibration_square,0,18,18,10,1,0,-0.33,16,001,2024-12-03_11h07.32.504,Attention_exp_legacy,2023.1.0,Win32,60.24096386,,,,,,,,,,,,,,,,,,,,,,,,,,,,,,,,,,,,,,,,,,,,
,,,,,,,-0.335416667,-0.018518519,1,0,0,,0,19,19,6,1,-0.33,0,16,001,2024-12-03_11h07.32.504,Attention_exp_legacy,2023.1.0,Win32,60.24096386,,,,,,,,,,,,,,,,,,,,,,,,,,,,,,,,,,,,,,,,,,,,
,,,,,,,-0.030208333,-0.642592593,1,0,0,,0,20,20,9,1,0,-0.67,16,001,2024-12-03_11h07.32.504,Attention_exp_legacy,2023.1.0,Win32,60.24096386,,,,,,,,,,,,,,,,,,,,,,,,,,,,,,,,,,,,,,,,,,,,
,,,,,,,,,,,,,,,,,,,,16,001,2024-12-03_11h07.32.504,Attention_exp_legacy,2023.1.0,Win32,60.24096386,"[1920,1080]","[640,480]",[-0.017708333333333333],[-0.48148148148148145],[1],[0],[0],[2.3716999999880812],"[""StartButton""]","[0.42291666666666666,0.42291666666666666,0.42604166666666665]","[-0.36666666666666664,-0.36666666666666664,0.3296296296296296]","[1,1,1]","[0,0,0]","[0,0,0]","[2.4209000000059575,2.8087999999970137,3.187400000005958]","[""Option2_label""]",Option2_label,1,4.1966,"[[0.008333333333333333,-0.3888888888888889],[0.008333333333333333,-0.3888888888888889],[0.008333333333333333,-0.3888888888888889],[0.008333333333333333,-0.3888888888888889],[0.008333333333333333,-0.3888888888888889],[0.008333333333333333,-0.3888888888888889],[0.008333333333333333,-0.3888888888888889],[0.008333333333333333,-0.3888888888888889],[0.008333333333333333,-0.3888888888888889],[0.008333333333333333,-0.3888888888888889],[0.008333333333333333,-0.3888888888888889],[0.008333333333333333,-0.3888888888888889],[0.008333333333333333,-0.3888888888888889],[0.008333333333333333,-0.3888888888888889],[0.008333333333333333,-0.3888888888888889],[0.008333333333333333,-0.3888888888888889],[0.008333333333333333,-0.3888888888888889],[0.008333333333333333,-0.3888888888888889],[0.008333333333333333,-0.3888888888888889],[0.008333333333333333,-0.3888888888888889],[0.008333333333333333,-0.3888888888888889],[0.008333333333333333,-0.3888888888888889],[0.008333333333333333,-0.3888888888888889],[0.008333333333333333,-0.3888888888888889],[0.008333333333333333,-0.3888888888888889],[0.008333333333333333,-0.3888888888888889],[0.008333333333333333,-0.3888888888888889],[0.008333333333333333,-0.3888888888888889],[0.008333333333333333,-0.3888888888888889],[0.008333333333333333,-0.3888888888888889],[0.008333333333333333,-0.3888888888888889],[0.008333333333333333,-0.3888888888888889],[0.008333333333333333,-0.3888888888888889],[0.008333333333333333,-0.3888888888888889],[0.008333333333333333,-0.3888888888888889],[0.008333333333333333,-0.3888888888888889],[0.008333333333333333,-0.3888888888888889],[0.008333333333333333,-0.3888888888888889],[0.008333333333333333,-0.3888888888888889],[0.008333333333333333,-0.3888888888888889],[0.008333333333333333,-0.3888888888888889],[0.008333333333333333,-0.3888888888888889],[0.008333333333333333,-0.3888888888888889],[0.008333333333333333,-0.3888888888888889],[0.008333333333333333,-0.3888888888888889],[0.008333333333333333,-0.3888888888888889],[0.008333333333333333,-0.3888888888888889],[0.008333333333333333,-0.3888888888888889],[0.008333333333333333,-0.3888888888888889],[0.008333333333333333,-0.3888888888888889],[0.008333333333333333,-0.3888888888888889],[0.008333333333333333,-0.3888888888888889],[0.008333333333333333,-0.3888888888888889],[0.008333333333333333,-0.3888888888888889],[0.008333333333333333,-0.3888888888888889],[0.008333333333333333,-0.3888888888888889],[0.008333333333333333,-0.3888888888888889],[0.008333333333333333,-0.3888888888888889],[0.008333333333333333,-0.3888888888888889],[0.008333333333333333,-0.3888888888888889],[0.008333333333333333,-0.3888888888888889],[0.008333333333333333,-0.3888888888888889],[0.008333333333333333,-0.3888888888888889],[0.008333333333333333,-0.3888888888888889],[0.008333333333333333,-0.3888888888888889],[0.008333333333333333,-0.3888888888888889],[0.008333333333333333,-0.3888888888888889],[0.008333333333333333,-0.3888888888888889],[0.008333333333333333,-0.3888888888888889],[0.008333333333333333,-0.3888888888888889],[0.008333333333333333,-0.3888888888888889],[0.008333333333333333,-0.3888888888888889],[0.008333333333333333,-0.3888888888888889],[0.008333333333333333,-0.3888888888888889],[0.008333333333333333,-0.3888888888888889],[0.008333333333333333,-0.3888888888888889],[0.008333333333333333,-0.3888888888888889],[0.008333333333333333,-0.3888888888888889],[0.008333333333333333,-0.3888888888888889],[0.008333333333333333,-0.3888888888888889],[0.008333333333333333,-0.3888888888888889],[0.008333333333333333,-0.3888888888888889],[0.008333333333333333,-0.3888888888888889],[0.008333333333333333,-0.3888888888888889],[0.008333333333333333,-0.3888888888888889],[0.008333333333333333,-0.3888888888888889],[0.008333333333333333,-0.3888888888888889],[0.008333333333333333,-0.3888888888888889],[0.008333333333333333,-0.3888888888888889],[0.008333333333333333,-0.3888888888888889],[0.008333333333333333,-0.3888888888888889],[0.008333333333333333,-0.3888888888888889],[0.008333333333333333,-0.3888888888888889],[0.008333333333333333,-0.3888888888888889],[0.008333333333333333,-0.3888888888888889],[0.008333333333333333,-0.3888888888888889],[0.008333333333333333,-0.3888888888888889],[0.008333333333333333,-0.3888888888888889],[0.008333333333333333,-0.3888888888888889],[0.008333333333333333,-0.3888888888888889],[0.008333333333333333,-0.3888888888888889],[0.008333333333333333,-0.3888888888888889],[0.008333333333333333,-0.3888888888888889],[0.008333333333333333,-0.3888888888888889],[0.008333333333333333,-0.3888888888888889],[0.008333333333333333,-0.3888888888888889],[0.008333333333333333,-0.3888888888888889],[0.008333333333333333,-0.3888888888888889],[0.008333333333333333,-0.3888888888888889],[0.008333333333333333,-0.3888888888888889],[0.008333333333333333,-0.3888888888888889],[0.008333333333333333,-0.3888888888888889],[0.008333333333333333,-0.3888888888888889],[0.008333333333333333,-0.3888888888888889],[0.008333333333333333,-0.3888888888888889],[0.008333333333333333,-0.3888888888888889],[0.008333333333333333,-0.3888888888888889],[0.008333333333333333,-0.3888888888888889],[0.008333333333333333,-0.3888888888888889],[0.008333333333333333,-0.3888888888888889],[0.008333333333333333,-0.3888888888888889],[0.008333333333333333,-0.3888888888888889],[0.008333333333333333,-0.3888888888888889],[0.008333333333333333,-0.3888888888888889],[0.008333333333333333,-0.3888888888888889],[0.008333333333333333,-0.3888888888888889],[0.008333333333333333,-0.3888888888888889],[0.008333333333333333,-0.3888888888888889],[0.008333333333333333,-0.3888888888888889],[0.008333333333333333,-0.3888888888888889],[0.008333333333333333,-0.3888888888888889],[0.014583333333333334,-0.3888888888888889],[0.041666666666666664,-0.37592592592592594],[0.08854166666666667,-0.3648148148148148],[0.15625,-0.3648148148148148],[0.23333333333333334,-0.3648148148148148],[0.3145833333333333,-0.3648148148148148],[0.375,-0.36666666666666664],[0.4010416666666667,-0.36666666666666664],[0.41354166666666664,-0.36666666666666664],[0.41770833333333335,-0.36666666666666664],[0.41875,-0.36666666666666664],[0.42083333333333334,-0.36666666666666664],[0.42291666666666666,-0.36666666666666664],[0.42291666666666666,-0.36666666666666664],[0.42291666666666666,-0.36666666666666664],[0.42291666666666666,-0.36666666666666664],[0.42291666666666666,-0.36666666666666664],[0.42291666666666666,-0.36666666666666664],[0.42291666666666666,-0.36666666666666664],[0.42291666666666666,-0.36666666666666664],[0.42291666666666666,-0.36666666666666664],[0.42291666666666666,-0.36666666666666664],[0.42291666666666666,-0.36666666666666664],[0.42291666666666666,-0.36666666666666664],[0.42291666666666666,-0.36666666666666664],[0.42291666666666666,-0.36666666666666664],[0.42291666666666666,-0.36666666666666664],[0.42291666666666666,-0.36666666666666664],[0.42291666666666666,-0.36666666666666664],[0.42291666666666666,-0.36666666666666664],[0.42291666666666666,-0.36666666666666664],[0.42291666666666666,-0.36666666666666664],[0.42291666666666666,-0.36666666666666664],[0.42291666666666666,-0.36666666666666664],[0.42291666666666666,-0.36666666666666664],[0.42291666666666666,-0.36666666666666664],[0.42291666666666666,-0.36666666666666664],[0.42291666666666666,-0.36666666666666664],[0.42291666666666666,-0.36666666666666664],[0.4239583333333333,-0.36666666666666664],[0.425,-0.34629629629629627],[0.4322916666666667,-0.2462962962962963],[0.43645833333333334,-0.19814814814814816],[0.44895833333333335,-0.024074074074074074],[0.44895833333333335,0.011111111111111112],[0.44895833333333335,0.10185185185185185],[0.44895833333333335,0.17222222222222222],[0.44895833333333335,0.2388888888888889],[0.44895833333333335,0.26481481481481484],[0.446875,0.2796296296296296],[0.44479166666666664,0.29074074074074074],[0.4427083333333333,0.29814814814814816],[0.4395833333333333,0.3074074074074074],[0.4354166666666667,0.31296296296296294],[0.43125,0.3148148148148148],[0.43020833333333336,0.3148148148148148],[0.428125,0.31851851851851853],[0.4270833333333333,0.32222222222222224],[0.4270833333333333,0.32592592592592595],[0.42604166666666665,0.3296296296296296],[0.42604166666666665,0.3296296296296296],[0.42604166666666665,0.3296296296296296],[0.42604166666666665,0.3296296296296296],[0.42604166666666665,0.3296296296296296],[0.42604166666666665,0.3296296296296296],[0.42604166666666665,0.3296296296296296],[0.42604166666666665,0.3296296296296296],[0.42604166666666665,0.3296296296296296],[0.42604166666666665,0.3296296296296296],[0.42604166666666665,0.3296296296296296],[0.42604166666666665,0.3296296296296296],[0.42604166666666665,0.3296296296296296],[0.42604166666666665,0.3296296296296296],[0.42604166666666665,0.3296296296296296],[0.42604166666666665,0.3296296296296296],[0.42604166666666665,0.3296296296296296],[0.42604166666666665,0.3296296296296296],[0.42604166666666665,0.3296296296296296],[0.42604166666666665,0.3296296296296296],[0.42604166666666665,0.3296296296296296],[0.42604166666666665,0.3296296296296296],[0.42604166666666665,0.3296296296296296],[0.42604166666666665,0.3296296296296296],[0.42604166666666665,0.3296296296296296],[0.42604166666666665,0.3296296296296296],[0.42604166666666665,0.3296296296296296],[0.42604166666666665,0.3296296296296296],[0.42604166666666665,0.3296296296296296],[0.42604166666666665,0.3296296296296296],[0.42604166666666665,0.3296296296296296],[0.42604166666666665,0.3296296296296296],[0.42604166666666665,0.3296296296296296],[0.42604166666666665,0.3296296296296296],[0.42604166666666665,0.3296296296296296],[0.42604166666666665,0.3296296296296296],[0.42604166666666665,0.3296296296296296],[0.42604166666666665,0.3296296296296296],[0.42604166666666665,0.3296296296296296],[0.42604166666666665,0.3296296296296296],[0.42604166666666665,0.3296296296296296],[0.42604166666666665,0.3296296296296296],[0.42604166666666665,0.3296296296296296],[0.42604166666666665,0.3296296296296296],[0.42604166666666665,0.3296296296296296],[0.42604166666666665,0.3296296296296296],[0.42604166666666665,0.3296296296296296],[0.42604166666666665,0.3296296296296296],[0.42604166666666665,0.3296296296296296],[0.42604166666666665,0.3296296296296296],[0.42604166666666665,0.3296296296296296],[0.42604166666666665,0.3296296296296296],[0.42604166666666665,0.3296296296296296],[0.42604166666666665,0.3296296296296296],[0.42604166666666665,0.3296296296296296],[0.42604166666666665,0.3296296296296296],[0.42604166666666665,0.3296296296296296],[0.42604166666666665,0.3296296296296296],[0.42604166666666665,0.3296296296296296],[0.42604166666666665,0.3296296296296296],[0.42604166666666665,0.3296296296296296],[0.42604166666666665,0.3296296296296296]]","[[0.09281249999999991,0.3790740740740742],[0.09281249999999991,0.3790740740740742],[0.10197916666666676,0.3742592592592593],[0.13510416666666672,0.368888888888889],[0.1482291666666666,0.36314814814814816],[0.14541666666666658,0.34518518518518515],[0.13833333333333328,0.35111111111111115],[0.1650000000000001,0.3514814814814814],[0.1892708333333334,0.3494444444444445],[0.2048958333333334,0.3485185185185186],[0.19145833333333329,0.36277777777777775],[0.20520833333333333,0.334074074074074],[0.2048958333333334,0.3020370370370371],[0.20479166666666657,0.2729629629629629],[0.19145833333333329,0.25018518518518523],[0.2287499999999999,0.22740740740740734],[0.2686458333333334,0.19129629629629621],[0.26927083333333335,0.1714814814814815],[0.28010416666666677,0.1448148148148149],[0.29958333333333326,0.11703703703703712],[0.3120833333333332,0.09277777777777782],[0.29187500000000005,0.11055555555555564],[0.30104166666666665,0.13907407407407413],[0.2904166666666666,0.16629629629629622],[0.3429166666666667,0.17037037037037037],[0.35218749999999993,0.19888888888888884],[0.3662499999999999,0.20666666666666672],[0.36875,0.2103703703703704],[0.3551041666666668,0.19981481481481478],[0.365625,0.20407407407407416],[0.38312499999999994,0.20481481481481487],[0.37489583333333343,0.18851851851851845],[0.36520833333333325,0.15222222222222231],[0.34385416666666657,0.11833333333333329],[0.2926041666666668,0.10166666666666663],[0.23552083333333323,0.1007407407407407],[0.1736458333333334,0.1205555555555556],[0.1365624999999999,0.12074074074074083],[0.10520833333333333,0.13481481481481472],[0.03270833333333331,0.14462962962962966],[-0.043333333333333356,0.1551851851851851],[-0.043333333333333356,0.1551851851851851],[-0.07385416666666664,0.17833333333333326],[-0.07385416666666664,0.17833333333333326],[-0.10437500000000005,0.2014814814814814],[-0.12312500000000005,0.20574074074074078],[-0.12312500000000005,0.20574074074074078],[-0.06937500000000002,0.22296296296296292],[-0.06937500000000002,0.22296296296296292],[-0.009062500000000048,0.22851851851851848],[-0.009062500000000048,0.22851851851851848],[0.04781249999999997,0.21962962962962967],[0.04781249999999997,0.21962962962962967],[0.10614583333333343,0.1985185185185186],[0.10614583333333343,0.1985185185185186],[0.16437499999999997,0.1787037037037037],[0.2642708333333334,0.15],[0.3306250000000001,0.11185185185185181],[0.39562499999999995,0.07111111111111107],[0.4757291666666667,0.02814814814814823],[0.5577083333333335,0.0005555555555554713],[0.5444791666666667,-0.01796296296296305],[0.5370833333333332,-0.044999999999999915],[0.5753125,-0.04333333333333329],[0.5790625000000001,-0.034999999999999955],[0.58125,0.009629629629629714],[0.5587500000000001,0.05259259259259255],[0.5733333333333335,0.10425925925925918],[0.5055208333333333,0.1338888888888888],[0.4226041666666667,0.16574074074074074],[0.3507291666666667,0.21388888888888888],[0.3015625,0.24000000000000005],[0.2335416666666667,0.24740740740740744],[0.12854166666666675,0.2361111111111111],[0.06614583333333333,0.28425925925925927],[0.01260416666666669,0.27925925925925915],[-0.04093749999999995,0.2742592592592593],[-0.0890625,0.2801851851851851],[-0.07218749999999995,0.30925925925925923],[-0.05135416666666662,0.32222222222222224],[-0.041562499999999974,0.318888888888889],[-0.033854166666666664,0.3212962962962963],[-0.007291666666666667,0.3424074074074074],[-0.00302083333333331,0.369074074074074],[-0.01604166666666664,0.35481481481481486],[-0.008958333333333356,0.32462962962962955],[-0.0018749999999999527,0.29444444444444445],[-0.021145833333333287,0.2537037037037037],[-0.04041666666666662,0.21296296296296297],[-0.06187499999999998,0.17629629629629637],[-0.08260416666666662,0.144074074074074],[-0.10197916666666665,0.10166666666666663],[-0.12989583333333338,0.10092592592592593],[-0.14072916666666668,0.09907407407407408],[-0.11260416666666669,0.08962962962962959],[-0.08062499999999997,0.10703703703703696],[-0.057604166666666616,0.10037037037037046],[-0.013645833333333357,0.0933333333333333],[0.05614583333333331,0.0948148148148149],[0.12416666666666672,0.10833333333333334],[0.19135416666666671,0.15481481481481485],[0.19135416666666671,0.15481481481481485],[0.2462500000000001,0.19185185185185188],[0.32541666666666674,0.18351851851851855],[0.39697916666666655,0.1507407407407407],[0.4306250000000001,0.14462962962962966],[0.4435416666666666,0.14351851851851852],[0.4435416666666666,0.14351851851851852],[0.4388541666666666,0.15981481481481474],[0.45187499999999997,0.17222222222222222],[0.4390625,0.17611111111111116],[0.4367708333333333,0.18333333333333332],[0.4345833333333334,0.15314814814814823],[0.44406249999999997,0.14018518518518527],[0.43781249999999994,0.130925925925926],[0.4391666666666666,0.14611111111111108],[0.45427083333333323,0.1448148148148149],[0.4703125,0.14981481481481476],[0.5017708333333334,0.18462962962962973],[0.5155208333333334,0.22333333333333338],[0.5390625,0.2518518518518518],[0.5402083333333333,0.2716666666666668],[0.5366666666666667,0.2946296296296297],[0.5344791666666666,0.31425925925925935],[0.5077083333333334,0.34888888888888886],[0.4722916666666668,0.37777777777777777],[0.42208333333333337,0.40407407407407414],[0.39093749999999994,0.4411111111111112],[0.3709374999999999,0.45500000000000007],[0.36479166666666674,0.4588888888888888],[0.34885416666666674,0.4729629629629629],[0.31520833333333326,0.44888888888888884],[0.29375,0.4933333333333333],[0.23885416666666662,0.4985185185185186],[0.2085416666666667,0.48870370370370364],[0.18354166666666671,0.48481481481481475],[0.18354166666666671,0.48481481481481475],[0.19395833333333337,0.4762962962962964],[0.1650000000000001,0.4624074074074075],[0.17218749999999997,0.43703703703703706],[0.13468749999999996,0.40907407407407403],[0.08104166666666662,0.4005555555555555],[0.05385416666666672,0.44592592592592584],[0.04677083333333331,0.38259259259259265],[0.07312500000000005,0.35851851851851857],[0.09656250000000005,0.35851851851851857],[0.13572916666666662,0.38722222222222225],[0.13718750000000005,0.38685185185185184],[0.1609375,0.37537037037037047],[0.14791666666666667,0.37777777777777777],[0.16572916666666657,0.39277777777777784],[0.19958333333333325,0.3827777777777779],[0.2365624999999999,0.3624074074074075],[0.259375,0.3618518518518518],[0.2821875000000001,0.36129629629629634],[0.31302083333333336,0.35611111111111104],[0.33145833333333335,0.322037037037037],[0.34052083333333344,0.33277777777777784],[0.3466666666666666,0.342962962962963],[0.396875,0.3381481481481482],[0.4470833333333334,0.3333333333333333],[0.44343750000000004,0.33907407407407414],[0.44343750000000004,0.33907407407407414],[0.45364583333333336,0.3368518518518518],[0.45364583333333336,0.3368518518518518],[0.4178124999999999,0.3218518518518518],[0.4178124999999999,0.3218518518518518],[0.3992708333333333,0.3140740740740741],[0.3877083333333334,0.27925925925925915],[0.3877083333333334,0.27925925925925915],[0.35479166666666656,0.22037037037037038],[0.35479166666666656,0.22037037037037038],[0.33354166666666674,0.15037037037037046],[0.33354166666666674,0.15037037037037046],[0.3185416666666666,0.07981481481481485],[0.3185416666666666,0.07981481481481485],[0.28791666666666677,-0.005185185185185101],[0.2705208333333334,-0.04425925925925922],[0.30708333333333326,-0.0883333333333333],[0.35104166666666664,-0.09574074074074072],[0.3914583333333333,-0.1235185185185185],[0.4375,-0.15259259259259256],[0.471875,-0.17444444444444443],[0.5194791666666667,-0.1618518518518518],[0.5194791666666667,-0.1618518518518518],[0.5509375000000001,-0.16944444444444445],[0.5819791666666667,-0.16148148148148145],[0.5879166666666668,-0.1425925925925926],[0.5732291666666666,-0.1359259259259259],[0.5342708333333335,-0.16629629629629633],[0.46218750000000003,-0.2455555555555556],[0.46218750000000003,-0.2455555555555556],[0.46635416666666674,-0.24296296296296294],[0.4644791666666668,-0.21425925925925923],[0.48406250000000006,-0.2338888888888889],[0.4873958333333334,-0.23555555555555555],[0.4959374999999999,-0.2381481481481482],[0.48947916666666674,-0.2588888888888889],[0.5169791666666667,-0.2577777777777778],[0.5261458333333332,-0.28185185185185185],[0.5620833333333333,-0.24833333333333338],[0.6291666666666667,-0.1661111111111111],[0.6260416666666667,-0.15851851851851856],[0.6153125,-0.17259259259259258],[0.5835416666666667,-0.15037037037037035],[0.5885416666666666,-0.15388888888888894],[0.6044791666666666,-0.13629629629629633],[0.6120833333333332,-0.0933333333333333],[0.6120833333333332,-0.0933333333333333],[0.5821875000000001,-0.06462962962962959],[0.5726041666666667,-0.028888888888888933],[0.5605208333333332,-0.013703703703703662],[0.5353125000000001,-0.06148148148148146],[0.5345833333333334,-0.08388888888888892],[0.5361458333333334,-0.04870370370370362],[0.5368750000000001,-0.0011111111111111532],[0.5166666666666667,0.02629629629629638],[0.4964583333333332,0.053703703703703705],[0.5163541666666667,0.09129629629629621],[0.4809375000000001,0.1603703703703704],[0.4509375000000001,0.21388888888888888],[0.45427083333333323,0.25462962962962965],[0.4514583333333334,0.32981481481481484],[0.4473958333333333,0.4414814814814814],[0.4317708333333333,0.48518518518518516],[0.4192708333333333,0.4770370370370371],[0.4244791666666667,0.5022222222222223],[0.40083333333333326,0.518888888888889],[0.3545833333333334,0.5031481481481482],[0.3458333333333333,0.4227777777777777],[0.33708333333333323,0.3424074074074074],[0.30583333333333323,0.2942592592592592],[0.27458333333333323,0.24611111111111106],[0.25187499999999996,0.16574074074074074],[0.22916666666666666,0.08537037037037042],[0.2033333333333334,0.05685185185185194],[0.1678124999999999,0.032407407407407406],[0.15104166666666666,0.000925925925925926],[0.1252083333333334,-0.025185185185185227],[0.11833333333333323,-0.021481481481481525],[0.1554166666666667,0.01962962962962967],[0.17822916666666658,0.027777777777777776],[0.19572916666666676,-0.004074074074074159],[0.2115624999999999,-0.02240740740740745],[0.2071875000000001,-0.023148148148148147],[0.21437499999999995,-0.06703703703703702],[0.22208333333333338,-0.1307407407407408],[0.2443749999999999,-0.14092592592592595],[0.2757291666666667,-0.15648148148148147],[0.3095833333333334,-0.1638888888888889],[0.2994791666666667,-0.20870370370370367],[0.290625,-0.20925925925925926]]","[[0.09281249999999991,0.3790740740740742,0.0001999999880837322],[0.09281249999999991,0.3790740740740742,0.03859999999404096],[0.10197916666666676,0.3742592592592593,0.044799999997025],[0.13510416666666672,0.368888888888889,0.06150000000000233],[0.1482291666666666,0.36314814814814816,0.0785999999940401],[0.14541666666666658,0.34518518518518515,0.09800000000000608],[0.13833333333333328,0.35111111111111115,0.1121999999880785],[0.1650000000000001,0.3514814814814814,0.12819999998808385],[0.1892708333333334,0.3494444444444445,0.14489999999106118],[0.2048958333333334,0.3485185185185186,0.16159999999404562],[0.19145833333333329,0.36277777777777775,0.17829999999702295],[0.20520833333333333,0.334074074074074,0.19489999999106544],[0.2048958333333334,0.3020370370370371,0.21159999999404278],[0.20479166666666657,0.2729629629629629,0.22819999998808527],[0.19145833333333329,0.25018518518518523,0.24500000000000455],[0.2287499999999999,0.22740740740740734,0.2616999999880818],[0.2686458333333334,0.19129629629629621,0.2785000000000011],[0.26927083333333335,0.1714814814814815,0.29659999999404363],[0.28010416666666677,0.1448148148148149,0.31150000000000233],[0.29958333333333326,0.11703703703703712,0.3281999999880796],[0.3120833333333332,0.09277777777777782,0.344899999991064],[0.29187500000000005,0.11055555555555564,0.3614999999999995],[0.30104166666666665,0.13907407407407413,0.37819999998808385],[0.2904166666666666,0.16629629629629622,0.3948999999910612],[0.3429166666666667,0.17037037037037037,0.4115999999940456],[0.35218749999999993,0.19888888888888884,0.42829999999702295],[0.3662499999999999,0.20666666666666672,0.44489999999106544],[0.36875,0.2103703703703704,0.4615999999940428],[0.3551041666666668,0.19981481481481478,0.4782999999970201],[0.365625,0.20407407407407416,0.4971999999880836],[0.38312499999999994,0.20481481481481487,0.5115000000000052],[0.37489583333333343,0.18851851851851845,0.5281999999880824],[0.36520833333333325,0.15222222222222231,0.5448999999910598],[0.34385416666666657,0.11833333333333329,0.5615000000000023],[0.2926041666666668,0.10166666666666663,0.5782999999970215],[0.23552083333333323,0.1007407407407407,0.5952999999970245],[0.1736458333333334,0.1205555555555556,0.6116999999880832],[0.1365624999999999,0.12074074074074083,0.6281999999880838],[0.10520833333333333,0.13481481481481472,0.6448999999910612],[0.03270833333333331,0.14462962962962966,0.6615000000000038],[-0.043333333333333356,0.1551851851851851,0.6806999999880787],[-0.043333333333333356,0.1551851851851851,0.6948999999910654],[-0.07385416666666664,0.17833333333333326,0.7116999999880846],[-0.07385416666666664,0.17833333333333326,0.7281999999880853],[-0.10437500000000005,0.2014814814814814,0.7448999999910626],[-0.12312500000000005,0.20574074074074078,0.7615999999940399],[-0.12312500000000005,0.20574074074074078,0.7783999999910591],[-0.06937500000000002,0.22296296296296292,0.7948999999910598],[-0.06937500000000002,0.22296296296296292,0.8115999999940442],[-0.009062500000000048,0.22851851851851848,0.8282999999970215],[-0.009062500000000048,0.22851851851851848,0.844899999991064],[0.04781249999999997,0.21962962962962967,0.8614999999999995],[0.04781249999999997,0.21962962962962967,0.8781999999880838],[0.10614583333333343,0.1985185185185186,0.8950000000000031],[0.10614583333333343,0.1985185185185186,0.9115999999940456],[0.16437499999999997,0.1787037037037037,0.928299999997023],[0.2642708333333334,0.15,0.9448999999910654],[0.3306250000000001,0.11185185185185181,0.9615999999940428],[0.39562499999999995,0.07111111111111107,0.9781999999880853],[0.4757291666666667,0.02814814814814823,0.9971999999880836],[0.5577083333333335,0.0005555555555554713,1.0141999999880795],[0.5444791666666667,-0.01796296296296305,1.0281999999880824],[0.5370833333333332,-0.044999999999999915,1.0448999999910598],[0.5753125,-0.04333333333333329,1.0615000000000023],[0.5790625000000001,-0.034999999999999955,1.0782999999970215],[0.58125,0.009629629629629714,1.0955000000000013],[0.5587500000000001,0.05259259259259255,1.1115999999940414],[0.5733333333333335,0.10425925925925918,1.1282999999970258],[0.5055208333333333,0.1338888888888888,1.1448999999910612],[0.4226041666666667,0.16574074074074074,1.1615000000000038],[0.3507291666666667,0.21388888888888888,1.178199999988081],[0.3015625,0.24000000000000005,1.196000000000005],[0.2335416666666667,0.24740740740740744,1.2117999999970195],[0.12854166666666675,0.2361111111111111,1.2281999999880853],[0.06614583333333333,0.28425925925925927,1.2460000000000022],[0.01260416666666669,0.27925925925925915,1.2616999999880818],[-0.04093749999999995,0.2742592592592593,1.2782999999970244],[-0.0890625,0.2801851851851851,1.2968999999910622],[-0.07218749999999995,0.30925925925925923,1.3115999999940442],[-0.05135416666666662,0.32222222222222224,1.3281999999880796],[-0.041562499999999974,0.318888888888889,1.344899999991064],[-0.033854166666666664,0.3212962962962963,1.3614999999999995],[-0.007291666666666667,0.3424074074074074,1.3782999999970258],[-0.00302083333333331,0.369074074074074,1.395099999994045],[-0.01604166666666664,0.35481481481481486,1.4115999999940456],[-0.008958333333333356,0.32462962962962955,1.428199999988081],[-0.0018749999999999527,0.29444444444444445,1.4448999999910654],[-0.021145833333333287,0.2537037037037037,1.4615999999940428],[-0.04041666666666662,0.21296296296296297,1.478399999991062],[-0.06187499999999998,0.17629629629629637,1.4982999999970232],[-0.08260416666666662,0.144074074074074,1.5115000000000052],[-0.10197916666666665,0.10166666666666663,1.5281999999880824],[-0.12989583333333338,0.10092592592592593,1.544799999997025],[-0.14072916666666668,0.09907407407407408,1.5615999999940442],[-0.11260416666666669,0.08962962962962959,1.5782999999970215],[-0.08062499999999997,0.10703703703703696,1.5960000000000036],[-0.057604166666666616,0.10037037037037046,1.6114999999999995],[-0.013645833333333357,0.0933333333333333,1.6282999999970258],[0.05614583333333331,0.0948148148148149,1.6450000000000031],[0.12416666666666672,0.10833333333333334,1.6615000000000038],[0.19135416666666671,0.15481481481481485,1.682899999991065],[0.19135416666666671,0.15481481481481485,1.6956999999880793],[0.2462500000000001,0.19185185185185188,1.7115999999940428],[0.32541666666666674,0.18351851851851855,1.7281999999880853],[0.39697916666666655,0.1507407407407407,1.7447999999970207],[0.4306250000000001,0.14462962962962966,1.7615000000000052],[0.4435416666666666,0.14351851851851852,1.7781999999880824],[0.4435416666666666,0.14351851851851852,1.7948999999910598],[0.4388541666666666,0.15981481481481474,1.8115000000000023],[0.45187499999999997,0.17222222222222222,1.8281999999880796],[0.4390625,0.17611111111111116,1.8450999999940407],[0.4367708333333333,0.18333333333333332,1.8616999999880832],[0.4345833333333334,0.15314814814814823,1.8781999999880838],[0.44406249999999997,0.14018518518518527,1.8966999999880798],[0.43781249999999994,0.130925925925926,1.9115000000000038],[0.4391666666666666,0.14611111111111108,1.928199999988081],[0.45427083333333323,0.1448148148148149,1.9448999999910654],[0.4703125,0.14981481481481476,1.961500000000001],[0.5017708333333334,0.18462962962962973,1.9781999999880853],[0.5155208333333334,0.22333333333333338,1.9961999999880788],[0.5390625,0.2518518518518518,2.01159999999404],[0.5402083333333333,0.2716666666666668,2.0281999999880824],[0.5366666666666667,0.2946296296296297,2.044799999997025],[0.5344791666666666,0.31425925925925935,2.0618999999910628],[0.5077083333333334,0.34888888888888886,2.0782999999970215],[0.4722916666666668,0.37777777777777777,2.097199999988085],[0.42208333333333337,0.40407407407407414,2.1120999999940437],[0.39093749999999994,0.4411111111111112,2.128199999988084],[0.3709374999999999,0.45500000000000007,2.144899999991061],[0.36479166666666674,0.4588888888888888,2.1615000000000038],[0.34885416666666674,0.4729629629629629,2.178299999997023],[0.31520833333333326,0.44888888888888884,2.1993999999910656],[0.29375,0.4933333333333333,2.214599999994043],[0.23885416666666662,0.4985185185185186,2.2295000000000016],[0.2085416666666667,0.48870370370370364,2.2450000000000045],[0.18354166666666671,0.48481481481481475,2.2636999999880842],[0.18354166666666671,0.48481481481481475,2.278500000000001],[0.19395833333333337,0.4762962962962964,2.2950999999940436],[0.1650000000000001,0.4624074074074075,2.3150999999940396],[0.17218749999999997,0.43703703703703706,2.329500000000003],[0.13468749999999996,0.40907407407407403,2.345000000000006],[0.08104166666666662,0.4005555555555555,2.361699999988083],[0.05385416666666672,0.44592592592592584,2.382699999988084],[0.04677083333333331,0.38259259259259265,2.397500000000001],[0.07312500000000005,0.35851851851851857,2.4116999999880804],[0.09656250000000005,0.35851851851851857,2.428299999997023],[0.13572916666666662,0.38722222222222225,2.4448999999910654],[0.13718750000000005,0.38685185185185184,2.4616999999880846],[0.1609375,0.37537037037037047,2.47829999999702],[0.14791666666666667,0.37777777777777777,2.497],[0.16572916666666657,0.39277777777777784,2.5120000000000005],[0.19958333333333325,0.3827777777777779,2.5281999999880824],[0.2365624999999999,0.3624074074074075,2.5448999999910598],[0.259375,0.3618518518518518,2.5621999999880813],[0.2821875000000001,0.36129629629629634,2.5781999999880796],[0.31302083333333336,0.35611111111111104,2.5950999999940407],[0.33145833333333335,0.322037037037037,2.6114999999999995],[0.34052083333333344,0.33277777777777784,2.628199999988084],[0.3466666666666666,0.342962962962963,2.644899999991061],[0.396875,0.3381481481481482,2.6615000000000038],[0.4470833333333334,0.3333333333333333,2.6823999999910626],[0.44343750000000004,0.33907407407407414,2.7010000000000005],[0.44343750000000004,0.33907407407407414,2.7115999999940428],[0.45364583333333336,0.3368518518518518,2.7281999999880853],[0.45364583333333336,0.3368518518518518,2.7447999999970207],[0.4178124999999999,0.3218518518518518,2.76159999999404],[0.4178124999999999,0.3218518518518518,2.7782999999970244],[0.3992708333333333,0.3140740740740741,2.7948999999910598],[0.3877083333333334,0.27925925925925915,2.8160999999940444],[0.3877083333333334,0.27925925925925915,2.8281999999880796],[0.35479166666666656,0.22037037037037038,2.845000000000006],[0.35479166666666656,0.22037037037037038,2.8615999999940414],[0.33354166666666674,0.15037037037037046,2.8860999999940447],[0.33354166666666674,0.15037037037037046,2.8955999999940403],[0.3185416666666666,0.07981481481481485,2.9187999999970202],[0.3185416666666666,0.07981481481481485,2.9287999999970253],[0.28791666666666677,-0.005185185185185101,2.946699999988084],[0.2705208333333334,-0.04425925925925922,2.9616999999880846],[0.30708333333333326,-0.0883333333333333,2.978500000000004],[0.35104166666666664,-0.09574074074074072,2.9980000000000047],[0.3914583333333333,-0.1235185185185185,3.012399999991061],[0.4375,-0.15259259259259256,3.0282999999970244],[0.471875,-0.17444444444444443,3.045599999994046],[0.5194791666666667,-0.1618518518518518,3.0637999999970233],[0.5194791666666667,-0.1618518518518518,3.0785000000000053],[0.5509375000000001,-0.16944444444444445,3.0950999999940407],[0.5819791666666667,-0.16148148148148145,3.11339999999106],[0.5879166666666668,-0.1425925925925926,3.1285000000000025],[0.5732291666666666,-0.1359259259259259,3.145000000000003],[0.5342708333333335,-0.16629629629629633,3.1616999999880804],[0.46218750000000003,-0.2455555555555556,3.182000000000002],[0.46218750000000003,-0.2455555555555556,3.1947999999970236],[0.46635416666666674,-0.24296296296296294,3.211500000000001],[0.4644791666666668,-0.21425925925925923,3.2281999999880853],[0.48406250000000006,-0.2338888888888889,3.2448999999910626],[0.4873958333333334,-0.23555555555555555,3.261500000000005],[0.4959374999999999,-0.2381481481481482,3.278599999994043],[0.48947916666666674,-0.2588888888888889,3.297099999994039],[0.5169791666666667,-0.2577777777777778,3.3115000000000023],[0.5261458333333332,-0.28185185185185185,3.3281999999880796],[0.5620833333333333,-0.24833333333333338,3.344899999991064],[0.6291666666666667,-0.1661111111111111,3.3628999999910647],[0.6260416666666667,-0.15851851851851856,3.378299999997026],[0.6153125,-0.17259259259259258,3.3961999999880845],[0.5835416666666667,-0.15037037037037035,3.4115000000000038],[0.5885416666666666,-0.15388888888888894,3.428199999988081],[0.6044791666666666,-0.13629629629629633,3.4448999999910654],[0.6120833333333332,-0.0933333333333333,3.461500000000001],[0.6120833333333332,-0.0933333333333333,3.4781999999880853],[0.5821875000000001,-0.06462962962962959,3.4950000000000045],[0.5726041666666667,-0.028888888888888933,3.5127999999970214],[0.5605208333333332,-0.013703703703703662,3.5281999999880824],[0.5353125000000001,-0.06148148148148146,3.5448999999910598],[0.5345833333333334,-0.08388888888888892,3.564899999991063],[0.5361458333333334,-0.04870370370370362,3.58159999999404],[0.5368750000000001,-0.0011111111111111532,3.597199999988085],[0.5166666666666667,0.02629629629629638,3.6114999999999995],[0.4964583333333332,0.053703703703703705,3.628099999994042],[0.5163541666666667,0.09129629629629621,3.6447999999970193],[0.4809375000000001,0.1603703703703704,3.6615000000000038],[0.4509375000000001,0.21388888888888888,3.6807999999970207],[0.45427083333333323,0.25462962962962965,3.698299999997026],[0.4514583333333334,0.32981481481481484,3.712099999994045],[0.4473958333333333,0.4414814814814814,3.7281999999880853],[0.4317708333333333,0.48518518518518516,3.7447999999970207],[0.4192708333333333,0.4770370370370371,3.761500000000005],[0.4244791666666667,0.5022222222222223,3.7781999999880824],[0.40083333333333326,0.518888888888889,3.796199999988083],[0.3545833333333334,0.5031481481481482,3.811599999994044],[0.3458333333333333,0.4227777777777777,3.8281999999880796],[0.33708333333333323,0.3424074074074074,3.844799999997022],[0.30583333333333323,0.2942592592592592,3.8614999999999995],[0.27458333333333323,0.24611111111111106,3.878199999988084],[0.25187499999999996,0.16574074074074074,3.8968999999910636],[0.22916666666666666,0.08537037037037042,3.9115999999940456],[0.2033333333333334,0.05685185185185194,3.928099999994039],[0.1678124999999999,0.032407407407407406,3.9448999999910654],[0.15104166666666666,0.000925925925925926,3.961399999991059],[0.1252083333333334,-0.025185185185185227,3.978399999991062],[0.11833333333333323,-0.021481481481481525,3.9948999999910626],[0.1554166666666667,0.01962962962962967,4.01159999999404],[0.17822916666666658,0.027777777777777776,4.028199999988082],[0.19572916666666676,-0.004074074074074159,4.044799999997025],[0.2115624999999999,-0.02240740740740745,4.061500000000002],[0.2071875000000001,-0.023148148148148147,4.078399999991063],[0.21437499999999995,-0.06703703703703702,4.098099999994041],[0.22208333333333338,-0.1307407407407408,4.1114999999999995],[0.2443749999999999,-0.14092592592592595,4.128199999988084],[0.2757291666666667,-0.15648148148148147,4.144799999997019],[0.3095833333333334,-0.1638888888888889,4.161500000000004],[0.2994791666666667,-0.20870370370370367,4.178299999997023],[0.290625,-0.20925925925925926,4.196599999994042]]","[0.0001999999880837322,0.03859999999404096,0.044799999997025,0.06150000000000233,0.0785999999940401,0.09800000000000608,0.1121999999880785,0.12819999998808385,0.14489999999106118,0.16159999999404562,0.17829999999702295,0.19489999999106544,0.21159999999404278,0.22819999998808527,0.24500000000000455,0.2616999999880818,0.2785000000000011,0.29659999999404363,0.31150000000000233,0.3281999999880796,0.344899999991064,0.3614999999999995,0.37819999998808385,0.3948999999910612,0.4115999999940456,0.42829999999702295,0.44489999999106544,0.4615999999940428,0.4782999999970201,0.4971999999880836,0.5115000000000052,0.5281999999880824,0.5448999999910598,0.5615000000000023,0.5782999999970215,0.5952999999970245,0.6116999999880832,0.6281999999880838,0.6448999999910612,0.6615000000000038,0.6806999999880787,0.6948999999910654,0.7116999999880846,0.7281999999880853,0.7448999999910626,0.7615999999940399,0.7783999999910591,0.7948999999910598,0.8115999999940442,0.8282999999970215,0.844899999991064,0.8614999999999995,0.8781999999880838,0.8950000000000031,0.9115999999940456,0.928299999997023,0.9448999999910654,0.9615999999940428,0.9781999999880853,0.9971999999880836,1.0141999999880795,1.0281999999880824,1.0448999999910598,1.0615000000000023,1.0782999999970215,1.0955000000000013,1.1115999999940414,1.1282999999970258,1.1448999999910612,1.1615000000000038,1.178199999988081,1.196000000000005,1.2117999999970195,1.2281999999880853,1.2460000000000022,1.2616999999880818,1.2782999999970244,1.2968999999910622,1.3115999999940442,1.3281999999880796,1.344899999991064,1.3614999999999995,1.3782999999970258,1.395099999994045,1.4115999999940456,1.428199999988081,1.4448999999910654,1.4615999999940428,1.478399999991062,1.4982999999970232,1.5115000000000052,1.5281999999880824,1.544799999997025,1.5615999999940442,1.5782999999970215,1.5960000000000036,1.6114999999999995,1.6282999999970258,1.6450000000000031,1.6615000000000038,1.682899999991065,1.6956999999880793,1.7115999999940428,1.7281999999880853,1.7447999999970207,1.7615000000000052,1.7781999999880824,1.7948999999910598,1.8115000000000023,1.8281999999880796,1.8450999999940407,1.8616999999880832,1.8781999999880838,1.8966999999880798,1.9115000000000038,1.928199999988081,1.9448999999910654,1.961500000000001,1.9781999999880853,1.9961999999880788,2.01159999999404,2.0281999999880824,2.044799999997025,2.0618999999910628,2.0782999999970215,2.097199999988085,2.1120999999940437,2.128199999988084,2.144899999991061,2.1615000000000038,2.178299999997023,2.1993999999910656,2.214599999994043,2.2295000000000016,2.2450000000000045,2.2636999999880842,2.278500000000001,2.2950999999940436,2.3150999999940396,2.329500000000003,2.345000000000006,2.361699999988083,2.382699999988084,2.397500000000001,2.4116999999880804,2.428299999997023,2.4448999999910654,2.4616999999880846,2.47829999999702,2.497,2.5120000000000005,2.5281999999880824,2.5448999999910598,2.5621999999880813,2.5781999999880796,2.5950999999940407,2.6114999999999995,2.628199999988084,2.644899999991061,2.6615000000000038,2.6823999999910626,2.7010000000000005,2.7115999999940428,2.7281999999880853,2.7447999999970207,2.76159999999404,2.7782999999970244,2.7948999999910598,2.8160999999940444,2.8281999999880796,2.845000000000006,2.8615999999940414,2.8860999999940447,2.8955999999940403,2.9187999999970202,2.9287999999970253,2.946699999988084,2.9616999999880846,2.978500000000004,2.9980000000000047,3.012399999991061,3.0282999999970244,3.045599999994046,3.0637999999970233,3.0785000000000053,3.0950999999940407,3.11339999999106,3.1285000000000025,3.145000000000003,3.1616999999880804,3.182000000000002,3.1947999999970236,3.211500000000001,3.2281999999880853,3.2448999999910626,3.261500000000005,3.278599999994043,3.297099999994039,3.3115000000000023,3.3281999999880796,3.344899999991064,3.3628999999910647,3.378299999997026,3.3961999999880845,3.4115000000000038,3.428199999988081,3.4448999999910654,3.461500000000001,3.4781999999880853,3.4950000000000045,3.5127999999970214,3.5281999999880824,3.5448999999910598,3.564899999991063,3.58159999999404,3.597199999988085,3.6114999999999995,3.628099999994042,3.6447999999970193,3.6615000000000038,3.6807999999970207,3.698299999997026,3.712099999994045,3.7281999999880853,3.7447999999970207,3.761500000000005,3.7781999999880824,3.796199999988083,3.811599999994044,3.8281999999880796,3.844799999997022,3.8614999999999995,3.878199999988084,3.8968999999910636,3.9115999999940456,3.928099999994039,3.9448999999910654,3.961399999991059,3.978399999991062,3.9948999999910626,4.01159999999404,4.028199999988082,4.044799999997025,4.061500000000002,4.078399999991063,4.098099999994041,4.1114999999999995,4.128199999988084,4.144799999997019,4.161500000000004,4.178299999997023,4.196599999994042]","[1733195293680,1733195293711,1733195293718,1733195293734,1733195293751,1733195293771,1733195293785,1733195293801,1733195293818,1733195293834,1733195293851,1733195293868,1733195293884,1733195293901,1733195293918,1733195293934,1733195293951,1733195293969,1733195293984,1733195294001,1733195294018,1733195294034,1733195294051,1733195294068,1733195294084,1733195294101,1733195294118,1733195294134,1733195294151,1733195294170,1733195294184,1733195294201,1733195294218,1733195294234,1733195294251,1733195294268,1733195294284,1733195294301,1733195294318,1733195294334,1733195294353,1733195294368,1733195294384,1733195294401,1733195294418,1733195294434,1733195294451,1733195294468,1733195294484,1733195294501,1733195294518,1733195294534,1733195294551,1733195294568,1733195294584,1733195294601,1733195294618,1733195294634,1733195294651,1733195294670,1733195294687,1733195294701,1733195294718,1733195294734,1733195294751,1733195294768,1733195294784,1733195294801,1733195294818,1733195294834,1733195294851,1733195294869,1733195294885,1733195294901,1733195294919,1733195294934,1733195294951,1733195294970,1733195294984,1733195295001,1733195295018,1733195295034,1733195295051,1733195295068,1733195295084,1733195295101,1733195295118,1733195295134,1733195295151,1733195295171,1733195295184,1733195295201,1733195295218,1733195295234,1733195295251,1733195295269,1733195295284,1733195295301,1733195295318,1733195295334,1733195295356,1733195295368,1733195295384,1733195295401,1733195295418,1733195295434,1733195295451,1733195295468,1733195295484,1733195295501,1733195295519,1733195295536,1733195295552,1733195295571,1733195295585,1733195295602,1733195295619,1733195295635,1733195295652,1733195295670,1733195295685,1733195295702,1733195295719,1733195295736,1733195295752,1733195295771,1733195295786,1733195295802,1733195295819,1733195295835,1733195295852,1733195295873,1733195295888,1733195295903,1733195295919,1733195295938,1733195295952,1733195295969,1733195295989,1733195296003,1733195296019,1733195296036,1733195296057,1733195296071,1733195296085,1733195296102,1733195296119,1733195296136,1733195296152,1733195296171,1733195296186,1733195296202,1733195296219,1733195296236,1733195296252,1733195296269,1733195296285,1733195296302,1733195296319,1733195296335,1733195296356,1733195296375,1733195296385,1733195296402,1733195296419,1733195296435,1733195296452,1733195296469,1733195296490,1733195296502,1733195296519,1733195296535,1733195296560,1733195296569,1733195296593,1733195296603,1733195296621,1733195296636,1733195296652,1733195296672,1733195296686,1733195296702,1733195296719,1733195296738,1733195296752,1733195296769,1733195296787,1733195296802,1733195296819,1733195296836,1733195296856,1733195296869,1733195296885,1733195296902,1733195296919,1733195296935,1733195296953,1733195296971,1733195296985,1733195297002,1733195297019,1733195297037,1733195297052,1733195297070,1733195297085,1733195297102,1733195297119,1733195297135,1733195297152,1733195297169,1733195297187,1733195297202,1733195297219,1733195297239,1733195297256,1733195297271,1733195297285,1733195297302,1733195297319,1733195297335,1733195297355,1733195297372,1733195297386,1733195297402,1733195297419,1733195297435,1733195297452,1733195297470,1733195297485,1733195297502,1733195297519,1733195297535,1733195297552,1733195297571,1733195297585,1733195297602,1733195297619,1733195297635,1733195297652,1733195297669,1733195297685,1733195297702,1733195297719,1733195297735,1733195297752,1733195297772,1733195297785,1733195297802,1733195297819,1733195297835,1733195297852,1733195297870]","[[1049.1,744.7],[1049.1,744.7],[1057.9,742.1],[1089.7,739.2],[1102.3,736.1],[1099.6,726.4],[1092.8,729.6],[1118.4,729.8],[1141.7,728.7],[1156.7,728.2],[1143.8,735.9],[1157,720.4],[1156.7,703.1],[1156.6,687.4],[1143.8,675.1],[1179.6,662.8],[1217.9,643.3],[1218.5,632.6],[1228.9,618.2],[1247.6,603.2],[1259.6,590.1],[1240.2,599.7],[1249,615.1],[1238.8,629.8],[1289.2,632],[1298.1,647.4],[1311.6,651.6],[1314,653.6],[1300.9,647.9],[1311,650.2],[1327.8,650.6],[1319.9,641.8],[1310.6,622.2],[1290.1,603.9],[1240.9,594.9],[1186.1,594.4],[1126.7,605.1],[1091.1,605.2],[1061,612.8],[991.4,618.1],[918.4,623.8],[918.4,623.8],[889.1,636.3],[889.1,636.3],[859.8,648.8],[841.8,651.1],[841.8,651.1],[893.4,660.4],[893.4,660.4],[951.3,663.4],[951.3,663.4],[1005.9,658.6],[1005.9,658.6],[1061.9,647.2],[1061.9,647.2],[1117.8,636.5],[1213.7,621],[1277.4,600.4],[1339.8,578.4],[1416.7,555.2],[1495.4,540.3],[1482.7,530.3],[1475.6,515.7],[1512.3,516.6],[1515.9,521.1],[1518,545.2],[1496.4,568.4],[1510.4,596.3],[1445.3,612.3],[1365.7,629.5],[1296.7,655.5],[1249.5,669.6],[1184.2,673.6],[1083.4,667.5],[1023.5,693.5],[972.1,690.8],[920.7,688.1],[874.5,691.3],[890.7,707],[910.7,714],[920.1,712.2],[927.5,713.5],[953,724.9],[957.1,739.3],[944.6,731.6],[951.4,715.3],[958.2,699],[939.7,677],[921.2,655],[900.6,635.2],[880.7,617.8],[862.1,594.9],[835.3,594.5],[824.9,593.5],[851.9,588.4],[882.6,597.8],[904.7,594.2],[946.9,590.4],[1013.9,591.2],[1079.2,598.5],[1143.7,623.6],[1143.7,623.6],[1196.4,643.6],[1272.4,639.1],[1341.1,621.4],[1373.4,618.1],[1385.8,617.5],[1385.8,617.5],[1381.3,626.3],[1393.8,633],[1381.5,635.1],[1379.3,639],[1377.2,622.7],[1386.3,615.7],[1380.3,610.7],[1381.6,618.9],[1396.1,618.2],[1411.5,620.9],[1441.7,639.7],[1454.9,660.6],[1477.5,676],[1478.6,686.7],[1475.2,699.1],[1473.1,709.7],[1447.4,728.4],[1413.4,744],[1365.2,758.2],[1335.3,778.2],[1316.1,785.7],[1310.2,787.8],[1294.9,795.4],[1262.6,782.4],[1242,806.4],[1189.3,809.2],[1160.2,803.9],[1136.2,801.8],[1136.2,801.8],[1146.2,797.2],[1118.4,789.7],[1125.3,776],[1089.3,760.9],[1037.8,756.3],[1011.7,780.8],[1004.9,746.6],[1030.2,733.6],[1052.7,733.6],[1090.3,749.1],[1091.7,748.9],[1114.5,742.7],[1102,744],[1119.1,752.1],[1151.6,746.7],[1187.1,735.7],[1209,735.4],[1230.9,735.1],[1260.5,732.3],[1278.2,713.9],[1286.9,719.7],[1292.8,725.2],[1341,722.6],[1389.2,720],[1385.7,723.1],[1385.7,723.1],[1395.5,721.9],[1395.5,721.9],[1361.1,713.8],[1361.1,713.8],[1343.3,709.6],[1332.2,690.8],[1332.2,690.8],[1300.6,659],[1300.6,659],[1280.2,621.2],[1280.2,621.2],[1265.8,583.1],[1265.8,583.1],[1236.4,537.2],[1219.7,516.1],[1254.8,492.3],[1297,488.3],[1335.8,473.3],[1380,457.6],[1413,445.8],[1458.7,452.6],[1458.7,452.6],[1488.9,448.5],[1518.7,452.8],[1524.4,463],[1510.3,466.6],[1472.9,450.2],[1403.7,407.4],[1403.7,407.4],[1407.7,408.8],[1405.9,424.3],[1424.7,413.7],[1427.9,412.8],[1436.1,411.4],[1429.9,400.2],[1456.3,400.8],[1465.1,387.8],[1499.6,405.9],[1564,450.3],[1561,454.4],[1550.7,446.8],[1520.2,458.8],[1525,456.9],[1540.3,466.4],[1547.6,489.6],[1547.6,489.6],[1518.9,505.1],[1509.7,524.4],[1498.1,532.6],[1473.9,506.8],[1473.2,494.7],[1474.7,513.7],[1475.4,539.4],[1456,554.2],[1436.6,569],[1455.7,589.3],[1421.7,626.6],[1392.9,655.5],[1396.1,677.5],[1393.4,718.1],[1389.5,778.4],[1374.5,802],[1362.5,797.6],[1367.5,811.2],[1344.8,820.2],[1300.4,811.7],[1292,768.3],[1283.6,724.9],[1253.6,698.9],[1223.6,672.9],[1201.8,629.5],[1180,586.1],[1155.2,570.7],[1121.1,557.5],[1105,540.5],[1080.2,526.4],[1073.6,528.4],[1109.2,550.6],[1131.1,555],[1147.9,537.8],[1163.1,527.9],[1158.9,527.5],[1165.8,503.8],[1173.2,469.4],[1194.6,463.9],[1224.7,455.5],[1257.2,451.5],[1247.5,427.3],[1239,427]]","[0,0.3527331528]","[0.3527331528,0.3527331528]","[-0.3527331528,-0.3527331528]","[-0.3527331528,0]","[0,-0.3527331528]","[0.3527331528,-0.3527331528]","[0,0]","[0.3527331528,0]",0,0,0,0,1,4,Tablet,11,5,13,9
,,,,,,,,,,,,,,,,,,,,16,001,2024-12-03_11h07.32.504,Attention_exp_legacy,2023.1.0,Win32,60.24096386,,,,,,,,,,[0.3625],[0.35185185185185186],[1],[0],[0],[2.59579999999702],"[""Option2_label""]",Option2_label,2,3.6137,"[[0.33229166666666665,0.11296296296296296],[0.3302083333333333,0.10925925925925926],[0.3302083333333333,0.10740740740740741],[0.3302083333333333,0.1037037037037037],[0.3302083333333333,0.1037037037037037],[0.32916666666666666,0.1],[0.32916666666666666,0.1],[0.328125,0.09814814814814815],[0.328125,0.09814814814814815],[0.328125,0.0962962962962963],[0.32708333333333334,0.09259259259259259],[0.32708333333333334,0.09259259259259259],[0.32708333333333334,0.09259259259259259],[0.32708333333333334,0.09259259259259259],[0.32708333333333334,0.09259259259259259],[0.32708333333333334,0.09259259259259259],[0.32708333333333334,0.09259259259259259],[0.32708333333333334,0.09259259259259259],[0.32708333333333334,0.09259259259259259],[0.32708333333333334,0.09259259259259259],[0.32708333333333334,0.09259259259259259],[0.32708333333333334,0.09259259259259259],[0.32708333333333334,0.09259259259259259],[0.32708333333333334,0.09259259259259259],[0.32708333333333334,0.09259259259259259],[0.32708333333333334,0.09259259259259259],[0.32708333333333334,0.09259259259259259],[0.32708333333333334,0.09259259259259259],[0.32708333333333334,0.09259259259259259],[0.32708333333333334,0.09259259259259259],[0.32708333333333334,0.09259259259259259],[0.32708333333333334,0.09259259259259259],[0.32708333333333334,0.09259259259259259],[0.32708333333333334,0.09259259259259259],[0.32708333333333334,0.09259259259259259],[0.32708333333333334,0.09259259259259259],[0.32708333333333334,0.09259259259259259],[0.32708333333333334,0.09259259259259259],[0.32708333333333334,0.09259259259259259],[0.32708333333333334,0.09259259259259259],[0.32708333333333334,0.09259259259259259],[0.32708333333333334,0.09259259259259259],[0.32708333333333334,0.09259259259259259],[0.32708333333333334,0.09259259259259259],[0.32708333333333334,0.09259259259259259],[0.32708333333333334,0.09259259259259259],[0.32708333333333334,0.09259259259259259],[0.32708333333333334,0.09259259259259259],[0.32708333333333334,0.09259259259259259],[0.32708333333333334,0.09259259259259259],[0.32708333333333334,0.09259259259259259],[0.32708333333333334,0.09259259259259259],[0.32708333333333334,0.09259259259259259],[0.32708333333333334,0.09259259259259259],[0.32708333333333334,0.09259259259259259],[0.32708333333333334,0.09259259259259259],[0.32708333333333334,0.09259259259259259],[0.32708333333333334,0.09259259259259259],[0.32708333333333334,0.09259259259259259],[0.32708333333333334,0.09259259259259259],[0.32708333333333334,0.09259259259259259],[0.32708333333333334,0.09259259259259259],[0.32708333333333334,0.09259259259259259],[0.32708333333333334,0.09259259259259259],[0.32708333333333334,0.09259259259259259],[0.32708333333333334,0.09259259259259259],[0.32708333333333334,0.09259259259259259],[0.32708333333333334,0.09259259259259259],[0.32708333333333334,0.09259259259259259],[0.32708333333333334,0.09259259259259259],[0.32708333333333334,0.09259259259259259],[0.32708333333333334,0.09259259259259259],[0.32708333333333334,0.09259259259259259],[0.32708333333333334,0.09259259259259259],[0.32708333333333334,0.09259259259259259],[0.32708333333333334,0.09259259259259259],[0.32708333333333334,0.09259259259259259],[0.32708333333333334,0.09259259259259259],[0.32708333333333334,0.09259259259259259],[0.32708333333333334,0.09259259259259259],[0.32708333333333334,0.09259259259259259],[0.32708333333333334,0.09259259259259259],[0.32708333333333334,0.09259259259259259],[0.32708333333333334,0.09259259259259259],[0.32708333333333334,0.09259259259259259],[0.32708333333333334,0.09259259259259259],[0.32708333333333334,0.09259259259259259],[0.32708333333333334,0.09259259259259259],[0.32708333333333334,0.09259259259259259],[0.32708333333333334,0.09259259259259259],[0.32708333333333334,0.09259259259259259],[0.32708333333333334,0.09259259259259259],[0.32708333333333334,0.09259259259259259],[0.32708333333333334,0.09259259259259259],[0.32708333333333334,0.09259259259259259],[0.32708333333333334,0.09259259259259259],[0.32708333333333334,0.09259259259259259],[0.32708333333333334,0.09259259259259259],[0.32708333333333334,0.09259259259259259],[0.32708333333333334,0.09259259259259259],[0.32708333333333334,0.09259259259259259],[0.32708333333333334,0.09259259259259259],[0.32708333333333334,0.09259259259259259],[0.32708333333333334,0.09259259259259259],[0.32708333333333334,0.09259259259259259],[0.32708333333333334,0.09259259259259259],[0.32708333333333334,0.09259259259259259],[0.32708333333333334,0.09259259259259259],[0.32708333333333334,0.09259259259259259],[0.32708333333333334,0.09259259259259259],[0.32708333333333334,0.09259259259259259],[0.32708333333333334,0.09259259259259259],[0.32708333333333334,0.09259259259259259],[0.32708333333333334,0.09259259259259259],[0.32708333333333334,0.09259259259259259],[0.32708333333333334,0.09259259259259259],[0.32708333333333334,0.09259259259259259],[0.32708333333333334,0.09259259259259259],[0.32708333333333334,0.09259259259259259],[0.32708333333333334,0.09259259259259259],[0.32708333333333334,0.09259259259259259],[0.32708333333333334,0.09259259259259259],[0.32708333333333334,0.09259259259259259],[0.32708333333333334,0.09259259259259259],[0.32708333333333334,0.09259259259259259],[0.32708333333333334,0.09259259259259259],[0.32708333333333334,0.09259259259259259],[0.32708333333333334,0.09259259259259259],[0.32708333333333334,0.09259259259259259],[0.32708333333333334,0.09259259259259259],[0.32708333333333334,0.09259259259259259],[0.32708333333333334,0.09444444444444444],[0.3260416666666667,0.12037037037037036],[0.32395833333333335,0.14814814814814814],[0.32395833333333335,0.17962962962962964],[0.32395833333333335,0.2111111111111111],[0.32395833333333335,0.23148148148148148],[0.32395833333333335,0.2537037037037037],[0.32395833333333335,0.2722222222222222],[0.325,0.29074074074074074],[0.3302083333333333,0.3055555555555556],[0.33229166666666665,0.31296296296296294],[0.334375,0.32037037037037036],[0.3375,0.32592592592592595],[0.340625,0.3314814814814815],[0.34791666666666665,0.337037037037037],[0.35208333333333336,0.34074074074074073],[0.35833333333333334,0.34629629629629627],[0.36041666666666666,0.35185185185185186],[0.3625,0.35185185185185186],[0.3625,0.35185185185185186],[0.3625,0.35185185185185186],[0.3625,0.35185185185185186],[0.3625,0.35185185185185186],[0.3625,0.35185185185185186],[0.3625,0.35185185185185186],[0.3625,0.35185185185185186],[0.3625,0.35185185185185186],[0.3625,0.35185185185185186],[0.3625,0.35185185185185186],[0.3625,0.35185185185185186],[0.3625,0.35185185185185186],[0.3625,0.35185185185185186],[0.3625,0.35185185185185186],[0.3625,0.35185185185185186],[0.3625,0.35185185185185186],[0.3625,0.35185185185185186],[0.3625,0.35185185185185186],[0.3625,0.35185185185185186],[0.3625,0.35185185185185186],[0.3625,0.35185185185185186],[0.3625,0.35185185185185186],[0.3625,0.35185185185185186],[0.3625,0.35185185185185186],[0.3625,0.35185185185185186],[0.3625,0.35185185185185186],[0.3625,0.35185185185185186],[0.3625,0.35185185185185186],[0.3625,0.35185185185185186],[0.3625,0.35185185185185186],[0.3625,0.35185185185185186],[0.3625,0.35185185185185186],[0.3625,0.35185185185185186],[0.3625,0.35185185185185186],[0.3625,0.35185185185185186],[0.3625,0.35185185185185186],[0.3625,0.35185185185185186],[0.3625,0.35185185185185186],[0.3625,0.35185185185185186],[0.3625,0.35185185185185186],[0.3625,0.35185185185185186],[0.3625,0.35185185185185186],[0.3625,0.35185185185185186],[0.3625,0.35185185185185186],[0.3625,0.35185185185185186],[0.3625,0.35185185185185186],[0.3625,0.35185185185185186],[0.3625,0.35185185185185186],[0.3625,0.35185185185185186],[0.3625,0.35185185185185186],[0.3625,0.35185185185185186],[0.3625,0.35185185185185186],[0.3625,0.35185185185185186],[0.3625,0.35185185185185186],[0.3625,0.35185185185185186],[0.3625,0.35185185185185186],[0.3625,0.35185185185185186],[0.3625,0.35185185185185186],[0.3625,0.35185185185185186],[0.3625,0.35185185185185186],[0.3625,0.35185185185185186],[0.3625,0.35185185185185186],[0.3625,0.35185185185185186],[0.3625,0.35185185185185186],[0.3625,0.35185185185185186],[0.3625,0.35185185185185186],[0.3625,0.35185185185185186],[0.3625,0.35185185185185186]]","[[0.5208333333333334,-0.002962962962963005],[0.4127083333333334,0.008888888888888804],[0.28145833333333337,-0.04611111111111107],[0.27760416666666665,-0.006111111111111027],[0.22937500000000005,0.03796296296296296],[0.16739583333333338,0.06796296296296304],[0.16739583333333338,0.06796296296296304],[0.18875000000000006,0.07351851851851861],[0.1898958333333333,0.044444444444444446],[0.15270833333333325,0.027037037037037078],[0.1851041666666667,0.01907407407407399],[0.22197916666666656,0.036666666666666584],[0.24343750000000006,0.042407407407407366],[0.26114583333333335,0.07166666666666675],[0.26239583333333344,0.05648148148148148],[0.26510416666666664,0.018333333333333292],[0.2803124999999999,0.034444444444444486],[0.27854166666666674,0.07740740740740733],[0.27854166666666674,0.07740740740740733],[0.3264583333333334,0.05962962962962971],[0.3584374999999999,0.06222222222222226],[0.32791666666666663,0.008703703703703788],[0.29739583333333336,-0.0448148148148149],[0.30010416666666656,-0.1287037037037037],[0.30281250000000004,-0.2125925925925926],[0.2621875000000001,-0.21777777777777782],[0.2453125,-0.20185185185185187],[0.1798958333333334,-0.20555555555555555],[0.11447916666666676,-0.20925925925925926],[0.02833333333333338,-0.19740740740740745],[-0.04854166666666669,-0.17555555555555558],[-0.07906249999999998,-0.1542592592592593],[-0.09156249999999998,-0.1014814814814815],[-0.121875,-0.006481481481481481],[-0.20125000000000004,0.11370370370370367],[-0.24437500000000004,0.17092592592592584],[-0.2203125,0.22537037037037044],[-0.16635416666666672,0.25870370370370377],[-0.13687499999999997,0.3055555555555556],[-0.08260416666666662,0.35592592592592603],[-0.04041666666666662,0.3655555555555555],[-0.009583333333333381,0.4020370370370371],[-0.02510416666666669,0.4125925925925925],[-0.040625,0.42314814814814816],[-0.007083333333333286,0.40851851851851856],[0.041875000000000044,0.4074074074074074],[0.028750000000000022,0.4057407407407408],[0.014479166666666644,0.3942592592592592],[0.024687500000000046,0.36925925925925923],[0.07958333333333342,0.37166666666666676],[0.134375,0.3235185185185186],[0.11302083333333333,0.2964814814814815],[0.12000000000000005,0.2638888888888889],[0.13406250000000006,0.24444444444444444],[0.1650000000000001,0.24574074074074082],[0.1805208333333333,0.23351851851851857],[0.17937500000000003,0.21907407407407398],[0.18552083333333325,0.20092592592592592],[0.20760416666666662,0.1742592592592593],[0.17156250000000003,0.144074074074074],[0.14635416666666667,0.1411111111111112],[0.14635416666666667,0.1411111111111112],[0.16666666666666666,0.12722222222222232],[0.1943749999999999,0.12388888888888884],[0.18385416666666668,0.11925925925925922],[0.1564583333333334,0.09388888888888898],[0.1648958333333333,0.09444444444444444],[0.18489583333333334,0.10055555555555547],[0.2048958333333334,0.10666666666666672],[0.1805208333333333,0.08314814814814811],[0.1443749999999999,0.06111111111111111],[0.11291666666666676,0.08981481481481482],[0.08145833333333338,0.11851851851851852],[0.05406249999999998,0.12611111111111115],[0.06593749999999995,0.10999999999999996],[0.07781250000000005,0.09388888888888898],[0.05666666666666664,0.0455555555555556],[0.04614583333333329,0.012592592592592508],[0.04614583333333329,0.012592592592592508],[0.06031249999999998,0.008888888888888804],[0.06031249999999998,0.008888888888888804],[0.06447916666666664,0.03722222222222227],[0.09635416666666667,0.04518518518518514],[0.13156249999999994,0.03611111111111111],[0.15635416666666657,0.02555555555555547],[0.1696875000000001,0.02555555555555547],[0.18020833333333333,0.06314814814814819],[0.19604166666666673,0.102962962962963],[0.20885416666666667,0.14222222222222214],[0.20885416666666667,0.14222222222222214],[0.21104166666666657,0.16611111111111118],[0.16104166666666658,0.15240740740740732],[0.16104166666666658,0.15240740740740732],[0.14312500000000009,0.125],[0.11229166666666662,0.1235185185185186],[0.11229166666666662,0.1235185185185186],[0.06906249999999996,0.11518518518518527],[0.06906249999999996,0.11518518518518527],[0.0296875,0.09462962962962967],[0.0296875,0.09462962962962967],[-0.0003124999999999526,0.09277777777777782],[-0.03302083333333338,0.03796296296296296],[-0.03302083333333338,0.03796296296296296],[-0.06812499999999998,0.015000000000000043],[-0.08885416666666662,0.0011111111111111532],[-0.11156250000000002,-0.016666666666666666],[-0.12041666666666669,-0.032037037037036954],[-0.12291666666666666,-0.02759259259259255],[-0.11927083333333334,-0.002777777777777778],[-0.10322916666666669,0.028888888888888933],[-0.08260416666666662,0.057962962962962876],[-0.07218749999999995,0.07166666666666675],[-0.029791666666666692,0.12666666666666662],[-0.029791666666666692,0.12666666666666662],[0.009687499999999953,0.14759259259259266],[0.025520833333333333,0.14518518518518514],[0.02802083333333331,0.14314814814814805],[0.03677083333333329,0.15259259259259256],[0.04552083333333338,0.16203703703703703],[0.042499999999999954,0.1411111111111112],[0.03947916666666664,0.12018518518518514],[0.042499999999999954,0.13444444444444448],[0.04635416666666667,0.14537037037037037],[0.021041666666666715,0.1737037037037036],[-0.004270833333333357,0.20203703703703707],[0,0.22592592592592592],[-0.02781250000000005,0.24277777777777781],[-0.035208333333333286,0.24148148148148144],[-0.03354166666666671,0.24685185185185177],[-0.029270833333333357,0.2551851851851851],[-0.026250000000000048,0.27870370370370373],[-0.027291666666666714,0.2833333333333333],[-0.025520833333333333,0.28055555555555556],[-0.029166666666666667,0.2462962962962963],[-0.024687500000000046,0.27314814814814814],[-0.04031250000000005,0.3255555555555555],[0.08541666666666667,0.36944444444444446],[0.17843749999999994,0.38925925925925936],[0.2716666666666666,0.37814814814814823],[0.3069791666666667,0.33666666666666656],[0.39656250000000004,0.28166666666666673],[0.49281249999999993,0.21388888888888888],[0.5243750000000001,0.1838888888888888],[0.5876041666666666,0.17222222222222222],[0.6427083333333333,0.09944444444444453],[0.7226041666666667,0.008148148148148106],[0.7088541666666667,-0.09611111111111106],[0.7039583333333332,-0.12925925925925927],[0.6723958333333333,-0.14685185185185187],[0.69875,-0.13407407407407404],[0.69875,-0.13407407407407404],[0.6691666666666668,-0.10018518518518522],[0.6328125,-0.038703703703703664],[0.6583333333333333,-0.007592592592592635],[0.6261458333333333,0.013703703703703662],[0.5939583333333334,0.034999999999999955],[0.48895833333333344,0.07222222222222222],[0.4235416666666666,0.12981481481481486],[0.3693749999999999,0.14222222222222214],[0.32999999999999996,0.14092592592592595],[0.27406249999999993,0.17907407407407416],[0.2283333333333334,0.20277777777777778],[0.18104166666666663,0.15703703703703695],[0.1337500000000001,0.11129629629629634],[0.109375,0.08203703703703695],[0.08499999999999991,0.05277777777777778],[0.10864583333333329,0.026111111111111154],[0.10864583333333329,0.026111111111111154],[0.084375,0.011111111111111112],[0.03427083333333331,-0.023333333333333376],[-0.013229166666666714,-0.03537037037037041],[-0.03697916666666667,-0.0794444444444444],[-0.06802083333333328,-0.13185185185185183],[-0.05531250000000002,-0.13759259259259263],[-0.08385416666666666,-0.16259259259259262],[-0.09968750000000005,-0.2477777777777778],[-0.1313541666666667,-0.28592592592592586],[-0.15427083333333336,-0.2983333333333334],[-0.1648958333333333,-0.37111111111111106],[-0.15010416666666668,-0.4137037037037037],[-0.13083333333333336,-0.43870370370370365],[-0.13229166666666667,-0.4837037037037037],[-0.11395833333333331,-0.4883333333333333],[-0.13770833333333338,-0.48499999999999993],[-0.10270833333333336,-0.4257407407407407],[-0.10270833333333336,-0.4257407407407407],[-0.07729166666666672,-0.33129629629629626],[-0.029166666666666667,-0.2748148148148148],[-0.025416666666666643,-0.26500000000000007],[-0.0012500000000000473,-0.21148148148148146],[0.022916666666666665,-0.15796296296296297],[0.042812500000000024,-0.14722222222222223],[0.0865624999999999,-0.12111111111111107],[0.09479166666666666,-0.10240740740740743],[0.10302083333333342,-0.08370370370370368],[0.10187499999999995,-0.06962962962962967],[0.09520833333333342,-0.0514814814814814],[0.06697916666666662,-0.06740740740740736],[0.09093749999999995,-0.0507407407407407],[0.09197916666666663,-0.016851851851851896],[0.0821875000000001,0.011296296296296339],[0.07218749999999995,0.06462962962962959],[0.05239583333333329,0.0838888888888888],[0.04125000000000002,0.06666666666666667],[0.026041666666666668,0.05222222222222231],[0.011249999999999953,0.013518518518518435],[-0.0012500000000000473,-0.02629629629629638],[0.0009374999999999763,-0.041111111111111195],[-0.0234375,-0.08388888888888892],[-0.049583333333333354,-0.1272222222222222],[-0.06687500000000005,-0.152962962962963],[-0.08416666666666663,-0.1787037037037037],[-0.08416666666666663,-0.1787037037037037],[-0.09552083333333337,-0.20388888888888893],[-0.09552083333333337,-0.20388888888888893],[-0.09979166666666663,-0.22555555555555556],[-0.09979166666666663,-0.22555555555555556],[-0.07239583333333334,-0.17222222222222222]]","[[0.5208333333333334,-0.002962962962963005,0],[0.4127083333333334,0.008888888888888804,0.017300000011921668],[0.28145833333333337,-0.04611111111111107,0.03549999999999898],[0.27760416666666665,-0.006111111111111027,0.05020000000298097],[0.22937500000000005,0.03796296296296296,0.06540000000595825],[0.16739583333333338,0.06796296296296304,0.08770000000298239],[0.16739583333333338,0.06796296296296304,0.09710000000894325],[0.18875000000000006,0.07351851851851861,0.11399999999999721],[0.1898958333333333,0.044444444444444446,0.13040000000596308],[0.15270833333333325,0.027037037037037078,0.14930000001191956],[0.1851041666666667,0.01907407407407399,0.16420000000297819],[0.22197916666666656,0.036666666666666584,0.1805000000000021],[0.24343750000000006,0.042407407407407366,0.19930000001192383],[0.26114583333333335,0.07166666666666675,0.21610000000894303],[0.26239583333333344,0.05648148148148148,0.23049999999999926],[0.26510416666666664,0.018333333333333292,0.24760000000894422],[0.2803124999999999,0.034444444444444486,0.26380000001191917],[0.27854166666666674,0.07740740740740733,0.28530000001192235],[0.27854166666666674,0.07740740740740733,0.297100000008939],[0.3264583333333334,0.05962962962962971,0.3139000000059582],[0.3584374999999999,0.06222222222222226,0.3305000000000007],[0.32791666666666663,0.008703703703703788,0.34710000000894325],[0.29739583333333336,-0.0448148148148149,0.3638000000119206],[0.30010416666666656,-0.1287037037037037,0.3804000000059631],[0.30281250000000004,-0.2125925925925926,0.39930000001191956],[0.2621875000000001,-0.21777777777777782,0.4137000000029829],[0.2453125,-0.20185185185185187,0.43040000000596024],[0.1798958333333334,-0.20555555555555555,0.44710000000893757],[0.11447916666666676,-0.20925925925925926,0.46370000000298006],[0.02833333333333338,-0.19740740740740745,0.4836000000089413],[-0.04854166666666669,-0.17555555555555558,0.5002000000029838],[-0.07906249999999998,-0.1542592592592593,0.5158000000119216],[-0.09156249999999998,-0.1014814814814815,0.5305000000000035],[-0.121875,-0.006481481481481481,0.5484000000059623],[-0.20125000000000004,0.11370370370370367,0.5637000000029815],[-0.24437500000000004,0.17092592592592584,0.5805000000000007],[-0.2203125,0.22537037037037044,0.5993000000119224],[-0.16635416666666672,0.25870370370370377,0.6137000000029786],[-0.13687499999999997,0.3055555555555556,0.6304999999999978],[-0.08260416666666662,0.35592592592592603,0.6472000000029823],[-0.04041666666666662,0.3655555555555555,0.6638000000119177],[-0.009583333333333381,0.4020370370370371,0.6805000000000021],[-0.02510416666666669,0.4125925925925925,0.7001000000089377],[-0.040625,0.42314814814814816,0.7141000000089406],[-0.007083333333333286,0.40851851851851856,0.7304999999999993],[0.041875000000000044,0.4074074074074074,0.7471000000089418],[0.028750000000000022,0.4057407407407408,0.7650000000000006],[0.014479166666666644,0.3942592592592592,0.7805000000000035],[0.024687500000000046,0.36925925925925923,0.7983000000119205],[0.07958333333333342,0.37166666666666676,0.8149999999999977],[0.134375,0.3235185185185186,0.8304000000059588],[0.11302083333333333,0.2964814814814815,0.8471000000089433],[0.12000000000000005,0.2638888888888889,0.8638000000119206],[0.13406250000000006,0.24444444444444444,0.8804999999999978],[0.1650000000000001,0.24574074074074082,0.8994000000059614],[0.1805208333333333,0.23351851851851857,0.9153000000119178],[0.17937500000000003,0.21907407407407398,0.9321000000089441],[0.18552083333333325,0.20092592592592592,0.9471000000089376],[0.20760416666666662,0.1742592592592593,0.9637000000029801],[0.17156250000000003,0.144074074074074,0.9804000000059574],[0.14635416666666667,0.1411111111111112,0.9994000000059629],[0.14635416666666667,0.1411111111111112,1.0138000000119192],[0.16666666666666666,0.12722222222222232,1.0304000000059617],[0.1943749999999999,0.12388888888888884,1.047100000008939],[0.18385416666666668,0.11925925925925922,1.0637000000029815],[0.1564583333333334,0.09388888888888898,1.0804000000059588],[0.1648958333333333,0.09444444444444444,1.0990000000000038],[0.18489583333333334,0.10055555555555547,1.1137000000029786],[0.2048958333333334,0.10666666666666672,1.130400000005963],[0.1805208333333333,0.08314814814814811,1.1471000000089404],[0.1443749999999999,0.06111111111111111,1.1638000000119177],[0.11291666666666676,0.08981481481481482,1.180500000000002],[0.08145833333333338,0.11851851851851852,1.198300000011919],[0.05406249999999998,0.12611111111111115,1.213800000011922],[0.06593749999999995,0.10999999999999996,1.2325000000000017],[0.07781250000000005,0.09388888888888898,1.2471000000089418],[0.05666666666666664,0.0455555555555556,1.2638000000119192],[0.04614583333333329,0.012592592592592508,1.2853000000119224],[0.04614583333333329,0.012592592592592508,1.305500000000002],[0.06031249999999998,0.008888888888888804,1.3219000000059609],[0.06031249999999998,0.008888888888888804,1.3305000000000007],[0.06447916666666664,0.03722222222222227,1.3471000000089433],[0.09635416666666667,0.04518518518518514,1.3638000000119206],[0.13156249999999994,0.03611111111111111,1.3804999999999978],[0.15635416666666657,0.02555555555555547,1.3976000000089428],[0.1696875000000001,0.02555555555555547,1.413700000002983],[0.18020833333333333,0.06314814814814819,1.4304000000059602],[0.19604166666666673,0.102962962962963,1.4471000000089376],[0.20885416666666667,0.14222222222222214,1.46370000000298],[0.20885416666666667,0.14222222222222214,1.4806000000089412],[0.21104166666666657,0.16611111111111118,1.4973000000119185],[0.16104166666666658,0.15240740740740732,1.5138000000119192],[0.16104166666666658,0.15240740740740732,1.5304000000059617],[0.14312500000000009,0.125,1.5472000000029809],[0.11229166666666662,0.1235185185185186,1.5638000000119234],[0.11229166666666662,0.1235185185185186,1.5805000000000007],[0.06906249999999996,0.11518518518518527,1.5971000000089433],[0.06906249999999996,0.11518518518518527,1.6138000000119206],[0.0296875,0.09462962962962967,1.6304999999999978],[0.0296875,0.09462962962962967,1.6471000000089404],[-0.0003124999999999526,0.09277777777777782,1.6639000000059596],[-0.03302083333333338,0.03796296296296296,1.6878000000119187],[-0.03302083333333338,0.03796296296296296,1.6972000000029794],[-0.06812499999999998,0.015000000000000043,1.713800000011922],[-0.08885416666666662,0.0011111111111111532,1.7304000000059574],[-0.11156250000000002,-0.016666666666666666,1.7471000000089418],[-0.12041666666666669,-0.032037037037036954,1.7638000000119192],[-0.12291666666666666,-0.02759259259259255,1.7805000000000035],[-0.11927083333333334,-0.002777777777777778,1.7973000000119228],[-0.10322916666666669,0.028888888888888933,1.8138000000119234],[-0.08260416666666662,0.057962962962962876,1.8304000000059588],[-0.07218749999999995,0.07166666666666675,1.8471000000089433],[-0.029791666666666692,0.12666666666666662,1.8637000000029786],[-0.029791666666666692,0.12666666666666662,1.8804999999999978],[0.009687499999999953,0.14759259259259266,1.8971000000089404],[0.025520833333333333,0.14518518518518514,1.913700000002983],[0.02802083333333331,0.14314814814814805,1.9304000000059602],[0.03677083333333329,0.15259259259259256,1.9471000000089376],[0.04552083333333338,0.16203703703703703,1.96370000000298],[0.042499999999999954,0.1411111111111112,1.9804000000059574],[0.03947916666666664,0.12018518518518514,1.9971000000089418],[0.042499999999999954,0.13444444444444448,2.013700000002977],[0.04635416666666667,0.14537037037037037,2.0304000000059617],[0.021041666666666715,0.1737037037037036,2.046999999999997],[-0.004270833333333357,0.20203703703703707,2.0638000000119234],[0,0.22592592592592592,2.080400000005959],[-0.02781250000000005,0.24277777777777781,2.0993000000119224],[-0.035208333333333286,0.24148148148148144,2.1137000000029786],[-0.03354166666666671,0.24685185185185177,2.130400000005963],[-0.029270833333333357,0.2551851851851851,2.1471000000089404],[-0.026250000000000048,0.27870370370370373,2.1638000000119177],[-0.027291666666666714,0.2833333333333333,2.1842000000029813],[-0.025520833333333333,0.28055555555555556,2.1996000000089424],[-0.029166666666666667,0.2462962962962963,2.213900000005964],[-0.024687500000000046,0.27314814814814814,2.230600000008941],[-0.04031250000000005,0.3255555555555555,2.2489000000059605],[0.08541666666666667,0.36944444444444446,2.2666000000089426],[0.17843749999999994,0.38925925925925936,2.28180000001192],[0.2716666666666666,0.37814814814814823,2.29940000000596],[0.3069791666666667,0.33666666666666656,2.313900000005958],[0.39656250000000004,0.28166666666666673,2.3306000000089426],[0.49281249999999993,0.21388888888888888,2.348900000005962],[0.5243750000000001,0.1838888888888888,2.3639000000059625],[0.5876041666666666,0.17222222222222222,2.3807000000029817],[0.6427083333333333,0.09944444444444453,2.399900000005964],[0.7226041666666667,0.008148148148148106,2.4147000000029806],[0.7088541666666667,-0.09611111111111106,2.430500000000002],[0.7039583333333332,-0.12925925925925927,2.4489000000059633],[0.6723958333333333,-0.14685185185185187,2.463900000005964],[0.69875,-0.13407407407407404,2.4852000000029832],[0.69875,-0.13407407407407404,2.4972000000029837],[0.6691666666666668,-0.10018518518518522,2.513900000005961],[0.6328125,-0.038703703703703664,2.5304000000059617],[0.6583333333333333,-0.007592592592592635,2.547100000008939],[0.6261458333333333,0.013703703703703662,2.5637000000029815],[0.5939583333333334,0.034999999999999955,2.580400000005959],[0.48895833333333344,0.07222222222222222,2.597200000002978],[0.4235416666666666,0.12981481481481486,2.6137000000029786],[0.3693749999999999,0.14222222222222214,2.630400000005963],[0.32999999999999996,0.14092592592592595,2.6469999999999985],[0.27406249999999993,0.17907407407407416,2.6638000000119177],[0.2283333333333334,0.20277777777777778,2.6804000000059602],[0.18104166666666663,0.15703703703703695,2.6971000000089376],[0.1337500000000001,0.11129629629629634,2.713800000011922],[0.109375,0.08203703703703695,2.7304000000059574],[0.08499999999999991,0.05277777777777778,2.747],[0.10864583333333329,0.026111111111111154,2.763800000011919],[0.10864583333333329,0.026111111111111154,2.7805000000000035],[0.084375,0.011111111111111112,2.797100000008939],[0.03427083333333331,-0.023333333333333376,2.8138000000119234],[-0.013229166666666714,-0.03537037037037041,2.830400000005959],[-0.03697916666666667,-0.0794444444444444,2.8471000000089433],[-0.06802083333333328,-0.13185185185185183,2.8637000000029786],[-0.05531250000000002,-0.13759259259259263,2.88060000000894],[-0.08385416666666666,-0.16259259259259262,2.900600000008943],[-0.09968750000000005,-0.2477777777777778,2.915100000008941],[-0.1313541666666667,-0.28592592592592586,2.9304000000059602],[-0.15427083333333336,-0.2983333333333334,2.9471000000089376],[-0.1648958333333333,-0.37111111111111106,2.96370000000298],[-0.15010416666666668,-0.4137037037037037,2.980600000008941],[-0.13083333333333336,-0.43870370370370365,2.9998000000119234],[-0.13229166666666667,-0.4837037037037037,3.013800000011919],[-0.11395833333333331,-0.4883333333333333,3.0304000000059617],[-0.13770833333333338,-0.48499999999999993,3.0483000000119205],[-0.10270833333333336,-0.4257407407407407,3.0638000000119234],[-0.10270833333333336,-0.4257407407407407,3.080400000005959],[-0.07729166666666672,-0.33129629629629626,3.0971000000089433],[-0.029166666666666667,-0.2748148148148148,3.1137000000029786],[-0.025416666666666643,-0.26500000000000007,3.130400000005963],[-0.0012500000000000473,-0.21148148148148146,3.1471000000089404],[0.022916666666666665,-0.15796296296296297,3.163700000002983],[0.042812500000000024,-0.14722222222222223,3.180500000000002],[0.0865624999999999,-0.12111111111111107,3.199300000011924],[0.09479166666666666,-0.10240740740740743,3.213800000011922],[0.10302083333333342,-0.08370370370370368,3.2304999999999993],[0.10187499999999995,-0.06962962962962967,3.2472000000029837],[0.09520833333333342,-0.0514814814814814,3.263700000002977],[0.06697916666666662,-0.06740740740740736,3.2807000000029802],[0.09093749999999995,-0.0507407407407407,3.299300000011918],[0.09197916666666663,-0.016851851851851896,3.3138000000119234],[0.0821875000000001,0.011296296296296339,3.3324000000059613],[0.07218749999999995,0.06462962962962959,3.347200000002978],[0.05239583333333329,0.0838888888888888,3.3638000000119206],[0.04125000000000002,0.06666666666666667,3.380499999999998],[0.026041666666666668,0.05222222222222231,3.398900000005959],[0.011249999999999953,0.013518518518518435,3.4138000000119177],[-0.0012500000000000473,-0.02629629629629638,3.4304000000059602],[0.0009374999999999763,-0.041111111111111195,3.4471000000089376],[-0.0234375,-0.08388888888888892,3.46370000000298],[-0.049583333333333354,-0.1272222222222222,3.484700000002981],[-0.06687500000000005,-0.152962962962963,3.502300000011921],[-0.08416666666666663,-0.1787037037037037,3.5176000000089402],[-0.08416666666666663,-0.1787037037037037,3.5304000000059617],[-0.09552083333333337,-0.20388888888888893,3.547100000008939],[-0.09552083333333337,-0.20388888888888893,3.5637000000029815],[-0.09979166666666663,-0.22555555555555556,3.5805000000000007],[-0.09979166666666663,-0.22555555555555556,3.597200000002978],[-0.07239583333333334,-0.17222222222222222,3.6137000000029786]]","[0,0.017300000011921668,0.03549999999999898,0.05020000000298097,0.06540000000595825,0.08770000000298239,0.09710000000894325,0.11399999999999721,0.13040000000596308,0.14930000001191956,0.16420000000297819,0.1805000000000021,0.19930000001192383,0.21610000000894303,0.23049999999999926,0.24760000000894422,0.26380000001191917,0.28530000001192235,0.297100000008939,0.3139000000059582,0.3305000000000007,0.34710000000894325,0.3638000000119206,0.3804000000059631,0.39930000001191956,0.4137000000029829,0.43040000000596024,0.44710000000893757,0.46370000000298006,0.4836000000089413,0.5002000000029838,0.5158000000119216,0.5305000000000035,0.5484000000059623,0.5637000000029815,0.5805000000000007,0.5993000000119224,0.6137000000029786,0.6304999999999978,0.6472000000029823,0.6638000000119177,0.6805000000000021,0.7001000000089377,0.7141000000089406,0.7304999999999993,0.7471000000089418,0.7650000000000006,0.7805000000000035,0.7983000000119205,0.8149999999999977,0.8304000000059588,0.8471000000089433,0.8638000000119206,0.8804999999999978,0.8994000000059614,0.9153000000119178,0.9321000000089441,0.9471000000089376,0.9637000000029801,0.9804000000059574,0.9994000000059629,1.0138000000119192,1.0304000000059617,1.047100000008939,1.0637000000029815,1.0804000000059588,1.0990000000000038,1.1137000000029786,1.130400000005963,1.1471000000089404,1.1638000000119177,1.180500000000002,1.198300000011919,1.213800000011922,1.2325000000000017,1.2471000000089418,1.2638000000119192,1.2853000000119224,1.305500000000002,1.3219000000059609,1.3305000000000007,1.3471000000089433,1.3638000000119206,1.3804999999999978,1.3976000000089428,1.413700000002983,1.4304000000059602,1.4471000000089376,1.46370000000298,1.4806000000089412,1.4973000000119185,1.5138000000119192,1.5304000000059617,1.5472000000029809,1.5638000000119234,1.5805000000000007,1.5971000000089433,1.6138000000119206,1.6304999999999978,1.6471000000089404,1.6639000000059596,1.6878000000119187,1.6972000000029794,1.713800000011922,1.7304000000059574,1.7471000000089418,1.7638000000119192,1.7805000000000035,1.7973000000119228,1.8138000000119234,1.8304000000059588,1.8471000000089433,1.8637000000029786,1.8804999999999978,1.8971000000089404,1.913700000002983,1.9304000000059602,1.9471000000089376,1.96370000000298,1.9804000000059574,1.9971000000089418,2.013700000002977,2.0304000000059617,2.046999999999997,2.0638000000119234,2.080400000005959,2.0993000000119224,2.1137000000029786,2.130400000005963,2.1471000000089404,2.1638000000119177,2.1842000000029813,2.1996000000089424,2.213900000005964,2.230600000008941,2.2489000000059605,2.2666000000089426,2.28180000001192,2.29940000000596,2.313900000005958,2.3306000000089426,2.348900000005962,2.3639000000059625,2.3807000000029817,2.399900000005964,2.4147000000029806,2.430500000000002,2.4489000000059633,2.463900000005964,2.4852000000029832,2.4972000000029837,2.513900000005961,2.5304000000059617,2.547100000008939,2.5637000000029815,2.580400000005959,2.597200000002978,2.6137000000029786,2.630400000005963,2.6469999999999985,2.6638000000119177,2.6804000000059602,2.6971000000089376,2.713800000011922,2.7304000000059574,2.747,2.763800000011919,2.7805000000000035,2.797100000008939,2.8138000000119234,2.830400000005959,2.8471000000089433,2.8637000000029786,2.88060000000894,2.900600000008943,2.915100000008941,2.9304000000059602,2.9471000000089376,2.96370000000298,2.980600000008941,2.9998000000119234,3.013800000011919,3.0304000000059617,3.0483000000119205,3.0638000000119234,3.080400000005959,3.0971000000089433,3.1137000000029786,3.130400000005963,3.1471000000089404,3.163700000002983,3.180500000000002,3.199300000011924,3.213800000011922,3.2304999999999993,3.2472000000029837,3.263700000002977,3.2807000000029802,3.299300000011918,3.3138000000119234,3.3324000000059613,3.347200000002978,3.3638000000119206,3.380499999999998,3.398900000005959,3.4138000000119177,3.4304000000059602,3.4471000000089376,3.46370000000298,3.484700000002981,3.502300000011921,3.5176000000089402,3.5304000000059617,3.547100000008939,3.5637000000029815,3.5805000000000007,3.597200000002978,3.6137000000029786]","[1733195298873,1733195298889,1733195298907,1733195298922,1733195298937,1733195298959,1733195298969,1733195298986,1733195299002,1733195299021,1733195299036,1733195299052,1733195299071,1733195299088,1733195299102,1733195299119,1733195299135,1733195299157,1733195299169,1733195299185,1733195299202,1733195299219,1733195299235,1733195299252,1733195299271,1733195299285,1733195299302,1733195299319,1733195299335,1733195299355,1733195299372,1733195299387,1733195299402,1733195299420,1733195299435,1733195299452,1733195299471,1733195299485,1733195299502,1733195299519,1733195299535,1733195299552,1733195299572,1733195299586,1733195299602,1733195299619,1733195299637,1733195299652,1733195299670,1733195299687,1733195299702,1733195299719,1733195299735,1733195299752,1733195299771,1733195299787,1733195299804,1733195299819,1733195299835,1733195299852,1733195299871,1733195299885,1733195299902,1733195299919,1733195299935,1733195299952,1733195299970,1733195299985,1733195300002,1733195300019,1733195300035,1733195300052,1733195300070,1733195300085,1733195300104,1733195300119,1733195300135,1733195300157,1733195300177,1733195300193,1733195300202,1733195300219,1733195300235,1733195300252,1733195300269,1733195300285,1733195300302,1733195300319,1733195300335,1733195300352,1733195300369,1733195300385,1733195300402,1733195300419,1733195300435,1733195300452,1733195300469,1733195300485,1733195300502,1733195300519,1733195300535,1733195300559,1733195300569,1733195300585,1733195300602,1733195300619,1733195300635,1733195300652,1733195300669,1733195300685,1733195300702,1733195300719,1733195300735,1733195300752,1733195300769,1733195300785,1733195300802,1733195300819,1733195300835,1733195300852,1733195300869,1733195300885,1733195300902,1733195300919,1733195300935,1733195300952,1733195300971,1733195300985,1733195301002,1733195301019,1733195301035,1733195301056,1733195301071,1733195301085,1733195301102,1733195301120,1733195301138,1733195301153,1733195301171,1733195301185,1733195301202,1733195301220,1733195301235,1733195301252,1733195301271,1733195301286,1733195301302,1733195301320,1733195301335,1733195301357,1733195301369,1733195301385,1733195301402,1733195301419,1733195301435,1733195301452,1733195301469,1733195301485,1733195301502,1733195301519,1733195301535,1733195301552,1733195301569,1733195301585,1733195301602,1733195301619,1733195301635,1733195301652,1733195301669,1733195301685,1733195301702,1733195301719,1733195301735,1733195301752,1733195301772,1733195301787,1733195301802,1733195301819,1733195301835,1733195301852,1733195301871,1733195301885,1733195301902,1733195301920,1733195301935,1733195301952,1733195301969,1733195301985,1733195302002,1733195302019,1733195302035,1733195302052,1733195302071,1733195302085,1733195302102,1733195302119,1733195302135,1733195302152,1733195302171,1733195302185,1733195302204,1733195302219,1733195302235,1733195302252,1733195302270,1733195302285,1733195302302,1733195302319,1733195302335,1733195302356,1733195302374,1733195302389,1733195302402,1733195302419,1733195302435,1733195302452,1733195302469,1733195302485]","[[1460,538.4],[1356.2,544.8],[1230.2,515.1],[1226.5,536.7],[1180.2,560.5],[1120.7,576.7],[1120.7,576.7],[1141.2,579.7],[1142.3,564],[1106.6,554.6],[1137.7,550.3],[1173.1,559.8],[1193.7,562.9],[1210.7,578.7],[1211.9,570.5],[1214.5,549.9],[1229.1,558.6],[1227.4,581.8],[1227.4,581.8],[1273.4,572.2],[1304.1,573.6],[1274.8,544.7],[1245.5,515.8],[1248.1,470.5],[1250.7,425.2],[1211.7,422.4],[1195.5,431],[1132.7,429],[1069.9,427],[987.2,433.4],[913.4,445.2],[884.1,456.7],[872.1,485.2],[843,536.5],[766.8,601.4],[725.4,632.3],[748.5,661.7],[800.3,679.7],[828.6,705],[880.7,732.2],[921.2,737.4],[950.8,757.1],[935.9,762.8],[921,768.5],[953.2,760.6],[1000.2,760],[987.6,759.1],[973.9,752.9],[983.7,739.4],[1036.4,740.7],[1089,714.7],[1068.5,700.1],[1075.2,682.5],[1088.7,672],[1118.4,672.7],[1133.3,666.1],[1132.2,658.3],[1138.1,648.5],[1159.3,634.1],[1124.7,617.8],[1100.5,616.2],[1100.5,616.2],[1120,608.7],[1146.6,606.9],[1136.5,604.4],[1110.2,590.7],[1118.3,591],[1137.5,594.3],[1156.7,597.6],[1133.3,584.9],[1098.6,573],[1068.4,588.5],[1038.2,604],[1011.9,608.1],[1023.3,599.4],[1034.7,590.7],[1014.4,564.6],[1004.3,546.8],[1004.3,546.8],[1017.9,544.8],[1017.9,544.8],[1021.9,560.1],[1052.5,564.4],[1086.3,559.5],[1110.1,553.8],[1122.9,553.8],[1133,574.1],[1148.2,595.6],[1160.5,616.8],[1160.5,616.8],[1162.6,629.7],[1114.6,622.3],[1114.6,622.3],[1097.4,607.5],[1067.8,606.7],[1067.8,606.7],[1026.3,602.2],[1026.3,602.2],[988.5,591.1],[988.5,591.1],[959.7,590.1],[928.3,560.5],[928.3,560.5],[894.6,548.1],[874.7,540.6],[852.9,531],[844.4,522.7],[842,525.1],[845.5,538.5],[860.9,555.6],[880.7,571.3],[890.7,578.7],[931.4,608.4],[931.4,608.4],[969.3,619.7],[984.5,618.4],[986.9,617.3],[995.3,622.4],[1003.7,627.5],[1000.8,616.2],[997.9,604.9],[1000.8,612.6],[1004.5,618.5],[980.2,633.8],[955.9,649.1],[960,662],[933.3,671.1],[926.2,670.4],[927.8,673.3],[931.9,677.8],[934.8,690.5],[933.8,693],[935.5,691.5],[932,673],[936.3,687.5],[921.3,715.8],[1042,739.5],[1131.3,750.2],[1220.8,744.2],[1254.7,721.8],[1340.7,692.1],[1433.1,655.5],[1463.4,639.3],[1524.1,633],[1577,593.7],[1653.7,544.4],[1640.5,488.1],[1635.8,470.2],[1605.5,460.7],[1630.8,467.6],[1630.8,467.6],[1602.4,485.9],[1567.5,519.1],[1592,535.9],[1561.1,547.4],[1530.2,558.9],[1429.4,579],[1366.6,610.1],[1314.6,616.8],[1276.8,616.1],[1223.1,636.7],[1179.2,649.5],[1133.8,624.8],[1088.4,600.1],[1065,584.3],[1041.6,568.5],[1064.3,554.1],[1064.3,554.1],[1041,546],[992.9,527.4],[947.3,520.9],[924.5,497.1],[894.7,468.8],[906.9,465.7],[879.5,452.2],[864.3,406.2],[833.9,385.6],[811.9,378.9],[801.7,339.6],[815.9,316.6],[834.4,303.1],[833,278.8],[850.6,276.3],[827.8,278.1],[861.4,310.1],[861.4,310.1],[885.8,361.1],[932,391.6],[935.6,396.9],[958.8,425.8],[982,454.7],[1001.1,460.5],[1043.1,474.6],[1051,484.7],[1058.9,494.8],[1057.8,502.4],[1051.4,512.2],[1024.3,503.6],[1047.3,512.6],[1048.3,530.9],[1038.9,546.1],[1029.3,574.9],[1010.3,585.3],[999.6,576],[985,568.2],[970.8,547.3],[958.8,525.8],[960.9,517.8],[937.5,494.7],[912.4,471.3],[895.8,457.4],[879.2,443.5],[879.2,443.5],[868.3,429.9],[868.3,429.9],[864.2,418.2],[864.2,418.2],[890.5,447]]","[0,0.3527331528]","[0.3527331528,0.3527331528]","[-0.3527331528,0]","[-0.3527331528,-0.3527331528]","[0,0]","[0.3527331528,0]","[0,-0.3527331528]","[0.3527331528,-0.3527331528]",0,1,1,1,1,4,Tablet,5,1,13,7
