inst1_resp.keys,inst1_resp.rt,calibrationMouse.x,calibrationMouse.y,calibrationMouse.leftButton,calibrationMouse.midButton,calibrationMouse.rightButton,calibrationClick.x,calibrationClick.y,calibrationClick.leftButton,calibrationClick.midButton,calibrationClick.rightButton,calibrationClick.clicked_name,trialsc.thisRepN,trialsc.thisTrialN,trialsc.thisN,trialsc.thisIndex,trialsc.ran,calibration_x,calibration_y,participant,session,date,expName,psychopyVersion,OS,frameRate,ScreenRes_pixels,Camera_pixels,mouse_2.x,mouse_2.y,mouse_2.leftButton,mouse_2.midButton,mouse_2.rightButton,mouse_2.time,mouse_2.clicked_name,mouse.x,mouse.y,mouse.leftButton,mouse.midButton,mouse.rightButton,mouse.time,mouse.clicked_name,Choice,Trial,TrialDuration,MOUSE_GAZE,ET_GAZE,ET_GAZE_x_T,time,unixTime,ET_GAZE_NF,Loc_Option1_label,Loc_Option2_label,Loc_Cost_label,Loc_Qual_label,Loc_Option1_cost,Loc_Option2_cost,Loc_Option1_quality,Loc_Option2_quality,trials.thisRepN,trials.thisTrialN,trials.thisN,trials.thisIndex,trials.ran,Block,Device,cost1,qual1,cost2,qual2
space,7.9319,-0.045833333,0.22037037,1,0,0,-0.332291667,0.001851852,1,0,0,calibration_square,0,0,0,6,1,-0.33,0,36,001,2024-12-02_18h50.54.957,Attention_exp_legacy,2023.1.0,Win32,59.88023952,,,,,,,,,,,,,,,,,,,,,,,,,,,,,,,,,,,,,,,,,,,,
,,,,,,,-0.334375,-0.666666667,1,0,0,calibration_square,0,1,1,4,1,-0.33,-0.67,36,001,2024-12-02_18h50.54.957,Attention_exp_legacy,2023.1.0,Win32,59.88023952,,,,,,,,,,,,,,,,,,,,,,,,,,,,,,,,,,,,,,,,,,,,
,,,,,,,-0.338541667,0.322222222,1,0,0,calibration_square,0,2,2,7,1,-0.33,0.33,36,001,2024-12-02_18h50.54.957,Attention_exp_legacy,2023.1.0,Win32,59.88023952,,,,,,,,,,,,,,,,,,,,,,,,,,,,,,,,,,,,,,,,,,,,
,,,,,,,-0.323958333,0.67037037,1,0,0,calibration_square,0,3,3,8,1,-0.33,0.67,36,001,2024-12-02_18h50.54.957,Attention_exp_legacy,2023.1.0,Win32,59.88023952,,,,,,,,,,,,,,,,,,,,,,,,,,,,,,,,,,,,,,,,,,,,
,,,,,,,-0.001041667,0.675925926,1,0,0,calibration_square,0,4,4,13,1,0,0.67,36,001,2024-12-02_18h50.54.957,Attention_exp_legacy,2023.1.0,Win32,59.88023952,,,,,,,,,,,,,,,,,,,,,,,,,,,,,,,,,,,,,,,,,,,,
,,,,,,,0.340625,0.009259259,1,0,0,,0,5,5,16,1,0.33,0,36,001,2024-12-02_18h50.54.957,Attention_exp_legacy,2023.1.0,Win32,59.88023952,,,,,,,,,,,,,,,,,,,,,,,,,,,,,,,,,,,,,,,,,,,,
,,,,,,,0.3375,-0.653703704,1,0,0,,0,6,6,14,1,0.33,-0.67,36,001,2024-12-02_18h50.54.957,Attention_exp_legacy,2023.1.0,Win32,59.88023952,,,,,,,,,,,,,,,,,,,,,,,,,,,,,,,,,,,,,,,,,,,,
,,,,,,,-0.3375,-0.314814815,1,0,0,,0,7,7,5,1,-0.33,-0.33,36,001,2024-12-02_18h50.54.957,Attention_exp_legacy,2023.1.0,Win32,59.88023952,,,,,,,,,,,,,,,,,,,,,,,,,,,,,,,,,,,,,,,,,,,,
,,,,,,,-0.670833333,-0.664814815,1,0,0,calibration_square,0,8,8,0,1,-0.67,-0.67,36,001,2024-12-02_18h50.54.957,Attention_exp_legacy,2023.1.0,Win32,59.88023952,,,,,,,,,,,,,,,,,,,,,,,,,,,,,,,,,,,,,,,,,,,,
,,,,,,,-0.003125,-0.018518519,1,0,0,,0,9,9,11,1,0,0,36,001,2024-12-02_18h50.54.957,Attention_exp_legacy,2023.1.0,Win32,59.88023952,,,,,,,,,,,,,,,,,,,,,,,,,,,,,,,,,,,,,,,,,,,,
,,,,,,,0.332291667,-0.327777778,1,0,0,calibration_square,0,10,10,15,1,0.33,-0.33,36,001,2024-12-02_18h50.54.957,Attention_exp_legacy,2023.1.0,Win32,59.88023952,,,,,,,,,,,,,,,,,,,,,,,,,,,,,,,,,,,,,,,,,,,,
,,,,,,,-0.665625,-0.001851852,1,0,0,calibration_square,0,11,11,2,1,-0.67,0,36,001,2024-12-02_18h50.54.957,Attention_exp_legacy,2023.1.0,Win32,59.88023952,,,,,,,,,,,,,,,,,,,,,,,,,,,,,,,,,,,,,,,,,,,,
,,,,,,,0.675,-0.661111111,1,0,0,calibration_square,0,12,12,20,1,0.67,-0.67,36,001,2024-12-02_18h50.54.957,Attention_exp_legacy,2023.1.0,Win32,59.88023952,,,,,,,,,,,,,,,,,,,,,,,,,,,,,,,,,,,,,,,,,,,,
,,,,,,,0.671875,0.67037037,1,0,0,calibration_square,0,13,13,19,1,0.67,0.67,36,001,2024-12-02_18h50.54.957,Attention_exp_legacy,2023.1.0,Win32,59.88023952,,,,,,,,,,,,,,,,,,,,,,,,,,,,,,,,,,,,,,,,,,,,
,,,,,,,-0.675,0.337037037,1,0,0,calibration_square,0,14,14,3,1,-0.67,0.33,36,001,2024-12-02_18h50.54.957,Attention_exp_legacy,2023.1.0,Win32,59.88023952,,,,,,,,,,,,,,,,,,,,,,,,,,,,,,,,,,,,,,,,,,,,
,,,,,,,0.003125,-0.311111111,1,0,0,,0,15,15,10,1,0,-0.33,36,001,2024-12-02_18h50.54.957,Attention_exp_legacy,2023.1.0,Win32,59.88023952,,,,,,,,,,,,,,,,,,,,,,,,,,,,,,,,,,,,,,,,,,,,
,,,,,,,0.319791667,0.683333333,1,0,0,,0,16,16,18,1,0.33,0.67,36,001,2024-12-02_18h50.54.957,Attention_exp_legacy,2023.1.0,Win32,59.88023952,,,,,,,,,,,,,,,,,,,,,,,,,,,,,,,,,,,,,,,,,,,,
,,,,,,,-0.008333333,-0.681481481,1,0,0,,0,17,17,9,1,0,-0.67,36,001,2024-12-02_18h50.54.957,Attention_exp_legacy,2023.1.0,Win32,59.88023952,,,,,,,,,,,,,,,,,,,,,,,,,,,,,,,,,,,,,,,,,,,,
,,,,,,,-0.005208333,0.333333333,1,0,0,calibration_square,0,18,18,12,1,0,0.33,36,001,2024-12-02_18h50.54.957,Attention_exp_legacy,2023.1.0,Win32,59.88023952,,,,,,,,,,,,,,,,,,,,,,,,,,,,,,,,,,,,,,,,,,,,
,,,,,,,0.334375,0.331481481,1,0,0,calibration_square,0,19,19,17,1,0.33,0.33,36,001,2024-12-02_18h50.54.957,Attention_exp_legacy,2023.1.0,Win32,59.88023952,,,,,,,,,,,,,,,,,,,,,,,,,,,,,,,,,,,,,,,,,,,,
,,,,,,,-0.672916667,-0.335185185,1,0,0,calibration_square,0,20,20,1,1,-0.67,-0.33,36,001,2024-12-02_18h50.54.957,Attention_exp_legacy,2023.1.0,Win32,59.88023952,,,,,,,,,,,,,,,,,,,,,,,,,,,,,,,,,,,,,,,,,,,,
,,,,,,,,,,,,,,,,,,,,36,001,2024-12-02_18h50.54.957,Attention_exp_legacy,2023.1.0,Win32,59.88023952,"[1920,1080]","[640,480]",[-0.06041666666666667],[-0.5],[1],[0],[0],[8.44869999999925],"[""StartButton""]","[0.36770833333333336,0.3625]","[0.23333333333333334,0.30185185185185187]","[1,1]","[0,0]","[0,0]","[4.483199999999258,4.831799999997017]","[""Option2_label""]",Option2_label,1,5.8395,"[[-0.06041666666666667,-0.5],[-0.06041666666666667,-0.5],[-0.06041666666666667,-0.5],[-0.06041666666666667,-0.5],[-0.06041666666666667,-0.5],[-0.06041666666666667,-0.5],[-0.06041666666666667,-0.5],[-0.06041666666666667,-0.5],[-0.06041666666666667,-0.5],[-0.06041666666666667,-0.5],[-0.06041666666666667,-0.5],[-0.06041666666666667,-0.5],[-0.06041666666666667,-0.5],[-0.06041666666666667,-0.5],[-0.06041666666666667,-0.5],[-0.06041666666666667,-0.5],[-0.06041666666666667,-0.5],[-0.06041666666666667,-0.5],[-0.06041666666666667,-0.5],[-0.06041666666666667,-0.5],[-0.06041666666666667,-0.5],[-0.06041666666666667,-0.5],[-0.06041666666666667,-0.5],[-0.06041666666666667,-0.5],[-0.06041666666666667,-0.5],[-0.06041666666666667,-0.5],[-0.06041666666666667,-0.5],[-0.06041666666666667,-0.5],[-0.06041666666666667,-0.5],[-0.06041666666666667,-0.5],[-0.06041666666666667,-0.5],[-0.06041666666666667,-0.5],[-0.06041666666666667,-0.5],[-0.06041666666666667,-0.5],[-0.06041666666666667,-0.5],[-0.06041666666666667,-0.5],[-0.06041666666666667,-0.5],[-0.06041666666666667,-0.5],[-0.06041666666666667,-0.5],[-0.06041666666666667,-0.5],[-0.06041666666666667,-0.5],[-0.06041666666666667,-0.5],[-0.06041666666666667,-0.5],[-0.06041666666666667,-0.5],[-0.06041666666666667,-0.5],[-0.06041666666666667,-0.5],[-0.06041666666666667,-0.5],[-0.06041666666666667,-0.5],[-0.0625,-0.4962962962962963],[-0.06354166666666666,-0.48518518518518516],[-0.065625,-0.4685185185185185],[-0.065625,-0.46296296296296297],[-0.06875,-0.42962962962962964],[-0.06979166666666667,-0.4222222222222222],[-0.071875,-0.3907407407407407],[-0.071875,-0.3814814814814815],[-0.075,-0.34074074074074073],[-0.075,-0.32222222222222224],[-0.075,-0.2759259259259259],[-0.07604166666666666,-0.2611111111111111],[-0.078125,-0.23703703703703705],[-0.08020833333333334,-0.22777777777777777],[-0.08125,-0.22407407407407406],[-0.08125,-0.2222222222222222],[-0.08125,-0.21851851851851853],[-0.08125,-0.21851851851851853],[-0.08125,-0.21851851851851853],[-0.08125,-0.21851851851851853],[-0.08125,-0.21851851851851853],[-0.08125,-0.21851851851851853],[-0.08125,-0.21851851851851853],[-0.08125,-0.21851851851851853],[-0.08125,-0.21851851851851853],[-0.08125,-0.21851851851851853],[-0.08125,-0.21851851851851853],[-0.08125,-0.21851851851851853],[-0.08125,-0.21851851851851853],[-0.08125,-0.21851851851851853],[-0.08125,-0.21851851851851853],[-0.08125,-0.21851851851851853],[-0.08125,-0.21851851851851853],[-0.08125,-0.21851851851851853],[-0.08125,-0.21851851851851853],[-0.08125,-0.21851851851851853],[-0.08125,-0.21851851851851853],[-0.08125,-0.21851851851851853],[-0.08125,-0.21851851851851853],[-0.08125,-0.21851851851851853],[-0.08125,-0.21851851851851853],[-0.08125,-0.21851851851851853],[-0.08125,-0.21851851851851853],[-0.08229166666666667,-0.21851851851851853],[-0.08229166666666667,-0.21851851851851853],[-0.08229166666666667,-0.21851851851851853],[-0.08229166666666667,-0.21851851851851853],[-0.08229166666666667,-0.21851851851851853],[-0.08229166666666667,-0.21851851851851853],[-0.08229166666666667,-0.21851851851851853],[-0.08229166666666667,-0.21851851851851853],[-0.08229166666666667,-0.21851851851851853],[-0.08229166666666667,-0.21851851851851853],[-0.08229166666666667,-0.21851851851851853],[-0.08229166666666667,-0.21851851851851853],[-0.08229166666666667,-0.21851851851851853],[-0.08229166666666667,-0.21851851851851853],[-0.08229166666666667,-0.21851851851851853],[-0.08229166666666667,-0.21851851851851853],[-0.08229166666666667,-0.21851851851851853],[-0.08229166666666667,-0.21851851851851853],[-0.08229166666666667,-0.21851851851851853],[-0.08229166666666667,-0.21851851851851853],[-0.08229166666666667,-0.21851851851851853],[-0.08229166666666667,-0.21851851851851853],[-0.08229166666666667,-0.21851851851851853],[-0.08229166666666667,-0.21851851851851853],[-0.08229166666666667,-0.21851851851851853],[-0.08229166666666667,-0.21851851851851853],[-0.08229166666666667,-0.21851851851851853],[-0.08229166666666667,-0.21851851851851853],[-0.08229166666666667,-0.21851851851851853],[-0.08229166666666667,-0.21851851851851853],[-0.08229166666666667,-0.21851851851851853],[-0.08229166666666667,-0.21851851851851853],[-0.08229166666666667,-0.21851851851851853],[-0.08229166666666667,-0.21851851851851853],[-0.08229166666666667,-0.21851851851851853],[-0.08229166666666667,-0.21851851851851853],[-0.08229166666666667,-0.21851851851851853],[-0.08229166666666667,-0.21851851851851853],[-0.08229166666666667,-0.21851851851851853],[-0.08229166666666667,-0.21851851851851853],[-0.08229166666666667,-0.21851851851851853],[-0.08229166666666667,-0.21851851851851853],[-0.08229166666666667,-0.21851851851851853],[-0.08229166666666667,-0.21851851851851853],[-0.08229166666666667,-0.21851851851851853],[-0.08229166666666667,-0.21851851851851853],[-0.08229166666666667,-0.21851851851851853],[-0.08229166666666667,-0.21851851851851853],[-0.08229166666666667,-0.21851851851851853],[-0.08229166666666667,-0.21851851851851853],[-0.08229166666666667,-0.21851851851851853],[-0.08229166666666667,-0.21851851851851853],[-0.08229166666666667,-0.21851851851851853],[-0.08229166666666667,-0.21851851851851853],[-0.08229166666666667,-0.21851851851851853],[-0.08229166666666667,-0.21851851851851853],[-0.08229166666666667,-0.21851851851851853],[-0.08229166666666667,-0.21666666666666667],[-0.08229166666666667,-0.21666666666666667],[-0.08229166666666667,-0.21666666666666667],[-0.08229166666666667,-0.21296296296296297],[-0.08229166666666667,-0.21296296296296297],[-0.08229166666666667,-0.21296296296296297],[-0.08229166666666667,-0.2111111111111111],[-0.08229166666666667,-0.2074074074074074],[-0.08229166666666667,-0.2074074074074074],[-0.08229166666666667,-0.2074074074074074],[-0.08229166666666667,-0.2074074074074074],[-0.08229166666666667,-0.2074074074074074],[-0.08229166666666667,-0.2074074074074074],[-0.08229166666666667,-0.2074074074074074],[-0.08229166666666667,-0.2074074074074074],[-0.08229166666666667,-0.2074074074074074],[-0.08229166666666667,-0.2074074074074074],[-0.08229166666666667,-0.2074074074074074],[-0.08229166666666667,-0.2074074074074074],[-0.08229166666666667,-0.2074074074074074],[-0.08229166666666667,-0.2074074074074074],[-0.08229166666666667,-0.2074074074074074],[-0.08229166666666667,-0.2074074074074074],[-0.08229166666666667,-0.2074074074074074],[-0.08229166666666667,-0.2074074074074074],[-0.08229166666666667,-0.2074074074074074],[-0.08229166666666667,-0.2074074074074074],[-0.08229166666666667,-0.2074074074074074],[-0.08229166666666667,-0.2074074074074074],[-0.08229166666666667,-0.2074074074074074],[-0.08229166666666667,-0.2074074074074074],[-0.08229166666666667,-0.2074074074074074],[-0.08229166666666667,-0.2074074074074074],[-0.08229166666666667,-0.2074074074074074],[-0.08229166666666667,-0.2074074074074074],[-0.08229166666666667,-0.2074074074074074],[-0.08229166666666667,-0.2074074074074074],[-0.08229166666666667,-0.2074074074074074],[-0.08229166666666667,-0.2074074074074074],[-0.08229166666666667,-0.2074074074074074],[-0.08229166666666667,-0.2074074074074074],[-0.08229166666666667,-0.2074074074074074],[-0.08229166666666667,-0.2074074074074074],[-0.08229166666666667,-0.2074074074074074],[-0.08229166666666667,-0.2074074074074074],[-0.08229166666666667,-0.2074074074074074],[-0.08229166666666667,-0.2074074074074074],[-0.08229166666666667,-0.2074074074074074],[-0.08229166666666667,-0.2074074074074074],[-0.08229166666666667,-0.2074074074074074],[-0.08229166666666667,-0.2074074074074074],[-0.08229166666666667,-0.2074074074074074],[-0.08229166666666667,-0.2074074074074074],[-0.08229166666666667,-0.2074074074074074],[-0.08229166666666667,-0.2074074074074074],[-0.08229166666666667,-0.2074074074074074],[-0.08229166666666667,-0.2074074074074074],[-0.08229166666666667,-0.2074074074074074],[-0.08229166666666667,-0.2074074074074074],[-0.08229166666666667,-0.2074074074074074],[-0.08229166666666667,-0.2074074074074074],[-0.08229166666666667,-0.2074074074074074],[-0.08229166666666667,-0.2074074074074074],[-0.08229166666666667,-0.2074074074074074],[-0.08229166666666667,-0.2074074074074074],[-0.08229166666666667,-0.2074074074074074],[-0.08229166666666667,-0.2074074074074074],[-0.08229166666666667,-0.20555555555555555],[-0.08229166666666667,-0.20555555555555555],[-0.08229166666666667,-0.20185185185185187],[-0.08229166666666667,-0.20185185185185187],[-0.08125,-0.1962962962962963],[-0.07916666666666666,-0.19074074074074074],[-0.07708333333333334,-0.17962962962962964],[-0.07291666666666667,-0.16296296296296298],[-0.06458333333333334,-0.1388888888888889],[-0.05625,-0.11666666666666667],[-0.046875,-0.09814814814814815],[-0.03229166666666667,-0.06851851851851852],[-0.015625,-0.03888888888888889],[0.025,0.022222222222222223],[0.058333333333333334,0.07037037037037037],[0.10104166666666667,0.12407407407407407],[0.16041666666666668,0.19444444444444445],[0.23020833333333332,0.2759259259259259],[0.28958333333333336,0.34629629629629627],[0.359375,0.4425925925925926],[0.4166666666666667,0.5185185185185185],[0.453125,0.5740740740740741],[0.4739583333333333,0.6203703703703703],[0.48541666666666666,0.6481481481481481],[0.49270833333333336,0.6777777777777778],[0.4947916666666667,0.687037037037037],[0.4947916666666667,0.6888888888888889],[0.4947916666666667,0.6888888888888889],[0.4947916666666667,0.6888888888888889],[0.4947916666666667,0.6888888888888889],[0.4947916666666667,0.6703703703703704],[0.4947916666666667,0.6370370370370371],[0.49270833333333336,0.6111111111111112],[0.4875,0.5907407407407408],[0.48333333333333334,0.5740740740740741],[0.478125,0.5518518518518518],[0.46979166666666666,0.524074074074074],[0.4479166666666667,0.4759259259259259],[0.43333333333333335,0.45185185185185184],[0.421875,0.4351851851851852],[0.415625,0.42777777777777776],[0.4114583333333333,0.4222222222222222],[0.4083333333333333,0.4166666666666667],[0.4041666666666667,0.4],[0.39479166666666665,0.3592592592592593],[0.38229166666666664,0.30925925925925923],[0.375,0.26296296296296295],[0.3697916666666667,0.2388888888888889],[0.36770833333333336,0.23148148148148148],[0.36770833333333336,0.23148148148148148],[0.36770833333333336,0.23148148148148148],[0.36770833333333336,0.23148148148148148],[0.36770833333333336,0.23148148148148148],[0.36770833333333336,0.23148148148148148],[0.36770833333333336,0.23333333333333334],[0.36770833333333336,0.2351851851851852],[0.36770833333333336,0.2351851851851852],[0.36770833333333336,0.2351851851851852],[0.36770833333333336,0.2351851851851852],[0.36770833333333336,0.2351851851851852],[0.36770833333333336,0.2351851851851852],[0.36770833333333336,0.24074074074074073],[0.36770833333333336,0.2462962962962963],[0.36770833333333336,0.25555555555555554],[0.36770833333333336,0.26481481481481484],[0.36666666666666664,0.2740740740740741],[0.365625,0.2814814814814815],[0.365625,0.2851851851851852],[0.365625,0.28703703703703703],[0.3645833333333333,0.29074074074074074],[0.3645833333333333,0.29074074074074074],[0.36354166666666665,0.29444444444444445],[0.3625,0.29814814814814816],[0.3625,0.30185185185185187],[0.3625,0.30185185185185187],[0.3625,0.30185185185185187],[0.3625,0.30185185185185187],[0.3625,0.30185185185185187],[0.3625,0.30185185185185187],[0.3625,0.30185185185185187],[0.3625,0.30185185185185187],[0.3625,0.30185185185185187],[0.3625,0.30185185185185187],[0.3625,0.30185185185185187],[0.3625,0.30185185185185187],[0.3625,0.30185185185185187],[0.3625,0.30185185185185187],[0.3625,0.30185185185185187],[0.3625,0.30185185185185187],[0.3625,0.30185185185185187],[0.3625,0.30185185185185187],[0.3625,0.30185185185185187],[0.3625,0.30185185185185187],[0.3625,0.30185185185185187],[0.3625,0.30185185185185187],[0.3625,0.30185185185185187],[0.3625,0.30185185185185187],[0.3625,0.30185185185185187],[0.3625,0.30185185185185187],[0.3625,0.30185185185185187],[0.3625,0.30185185185185187],[0.3625,0.30185185185185187],[0.3625,0.30185185185185187],[0.3625,0.30185185185185187],[0.3625,0.30185185185185187],[0.3625,0.30185185185185187],[0.3625,0.30185185185185187],[0.3625,0.30185185185185187],[0.3625,0.30185185185185187],[0.3614583333333333,0.30185185185185187],[0.35520833333333335,0.3037037037037037],[0.346875,0.3037037037037037],[0.3385416666666667,0.30185185185185187],[0.3260416666666667,0.26851851851851855],[0.3145833333333333,0.21481481481481482],[0.3072916666666667,0.15925925925925927],[0.30104166666666665,0.11666666666666667],[0.29791666666666666,0.09444444444444444],[0.29791666666666666,0.08518518518518518],[0.29791666666666666,0.08148148148148149],[0.29791666666666666,0.08148148148148149],[0.29791666666666666,0.08148148148148149],[0.29791666666666666,0.08148148148148149],[0.29791666666666666,0.08148148148148149],[0.29791666666666666,0.08518518518518518],[0.3020833333333333,0.10185185185185185],[0.30520833333333336,0.12962962962962962],[0.3072916666666667,0.1574074074074074],[0.30833333333333335,0.18888888888888888],[0.30833333333333335,0.22407407407407406],[0.30833333333333335,0.25925925925925924],[0.3072916666666667,0.32592592592592595],[0.30104166666666665,0.3592592592592593],[0.296875,0.3814814814814815],[0.29583333333333334,0.3907407407407407],[0.2947916666666667,0.39444444444444443]]","[[-0.034791666666666644,0.18981481481481483],[-0.034791666666666644,0.18981481481481483],[-0.034791666666666644,0.18981481481481483],[-0.024895833333333308,0.18888888888888888],[-0.024895833333333308,0.18888888888888888],[-0.03739583333333331,0.1411111111111112],[-0.03739583333333331,0.1411111111111112],[-0.03447916666666669,0.19185185185185188],[-0.03447916666666669,0.19185185185185188],[-0.02041666666666669,0.12981481481481486],[-0.02041666666666669,0.12981481481481486],[-0.000416666666666643,0.13407407407407404],[-0.000416666666666643,0.13407407407407404],[0.007291666666666667,0.09962962962962954],[0.007291666666666667,0.09962962962962954],[0.013125000000000024,0.1],[0.013125000000000024,0.1],[0.033749999999999974,0.09796296296296292],[0.033749999999999974,0.09796296296296292],[0.06437499999999995,0.07074074074074083],[0.06437499999999995,0.07074074074074083],[0.08197916666666671,0.013888888888888888],[0.08197916666666671,0.013888888888888888],[0.09020833333333324,-0.03592592592592588],[0.09020833333333324,-0.03592592592592588],[0.11156249999999991,-0.002777777777777778],[0.11156249999999991,-0.002777777777777778],[0.109375,-0.10351851851851848],[0.109375,-0.10351851851851848],[0.10083333333333329,-0.09444444444444444],[0.10083333333333329,-0.09444444444444444],[0.08708333333333323,-0.15555555555555556],[0.08708333333333323,-0.15555555555555556],[0.1009375000000001,-0.14629629629629629],[0.1009375000000001,-0.14629629629629629],[0.11416666666666657,-0.12759259259259256],[0.11416666666666657,-0.12759259259259256],[0.11020833333333328,-0.10685185185185184],[0.11020833333333328,-0.10685185185185184],[0.09468750000000009,-0.022037037037036994],[0.09468750000000009,-0.022037037037036994],[0.07114583333333328,0.0514814814814814],[0.07114583333333328,0.0514814814814814],[0.06927083333333334,0.13518518518518519],[0.06927083333333334,0.13518518518518519],[0.06927083333333334,0.13518518518518519],[0.05802083333333338,0.1381481481481482],[0.05802083333333338,0.1381481481481482],[0.06749999999999995,0.172037037037037],[0.06749999999999995,0.172037037037037],[0.07489583333333343,0.2572222222222222],[0.07489583333333343,0.2572222222222222],[0.06989583333333324,0.2631481481481482],[0.06989583333333324,0.2631481481481482],[0.06020833333333329,0.28851851851851845],[0.06020833333333329,0.28851851851851845],[0.06156250000000003,0.306111111111111],[0.06156250000000003,0.306111111111111],[0.06572916666666669,0.3461111111111111],[0.06572916666666669,0.3461111111111111],[0.06645833333333329,0.3731481481481482],[0.06645833333333329,0.3731481481481482],[0.07083333333333333,0.3538888888888889],[0.07083333333333333,0.3538888888888889],[0.05645833333333338,0.3588888888888888],[0.05645833333333338,0.3588888888888888],[0.050520833333333334,0.37518518518518523],[0.050520833333333334,0.37518518518518523],[0.03864583333333336,0.3866666666666666],[0.03864583333333336,0.3866666666666666],[0.013333333333333286,0.35833333333333334],[0.013333333333333286,0.35833333333333334],[-0.009375,0.37777777777777777],[-0.009375,0.37777777777777777],[-0.0003124999999999526,0.44074074074074077],[-0.0003124999999999526,0.44074074074074077],[-0.03229166666666667,0.4118518518518518],[-0.03229166666666667,0.4118518518518518],[-0.06229166666666662,0.4225925925925927],[-0.06229166666666662,0.4225925925925927],[-0.08999999999999998,0.3987037037037036],[-0.08999999999999998,0.3987037037037036],[-0.09520833333333331,0.3603703703703704],[-0.09520833333333331,0.3603703703703704],[-0.10239583333333328,0.39592592592592585],[-0.10239583333333328,0.39592592592592585],[-0.0984375,0.4094444444444445],[-0.0984375,0.4094444444444445],[-0.08500000000000002,0.44000000000000006],[-0.08500000000000002,0.44000000000000006],[-0.06770833333333333,0.469074074074074],[-0.06770833333333333,0.469074074074074],[-0.06124999999999995,0.5231481481481481],[-0.06124999999999995,0.5231481481481481],[-0.11052083333333336,0.5068518518518519],[-0.11052083333333336,0.5068518518518519],[-0.13270833333333332,0.522037037037037],[-0.13270833333333332,0.522037037037037],[-0.1482291666666666,0.45555555555555555],[-0.1482291666666666,0.45555555555555555],[-0.13729166666666662,0.45203703703703707],[-0.13729166666666662,0.45203703703703707],[-0.1751041666666667,0.5211111111111111],[-0.1751041666666667,0.5211111111111111],[-0.2,0.47240740740740744],[-0.2,0.47240740740740744],[-0.2439583333333334,0.48222222222222216],[-0.2439583333333334,0.48222222222222216],[-0.29885416666666664,0.40981481481481474],[-0.29885416666666664,0.40981481481481474],[-0.33708333333333335,0.3224074074074075],[-0.33708333333333335,0.3224074074074075],[-0.3789583333333333,0.29296296296296304],[-0.3789583333333333,0.29296296296296304],[-0.36520833333333336,0.18796296296296297],[-0.36520833333333336,0.18796296296296297],[-0.37229166666666663,0.1381481481481482],[-0.37229166666666663,0.1381481481481482],[-0.35583333333333333,0.0948148148148149],[-0.35583333333333333,0.0948148148148149],[-0.38947916666666665,0.002407407407407323],[-0.38947916666666665,0.002407407407407323],[-0.36875,-0.09092592592592597],[-0.36875,-0.09092592592592597],[-0.3646875,-0.14240740740740737],[-0.3646875,-0.14240740740740737],[-0.34270833333333334,-0.15796296296296297],[-0.34270833333333334,-0.15796296296296297],[-0.31489583333333326,-0.1272222222222222],[-0.31489583333333326,-0.1272222222222222],[-0.2717708333333333,-0.13944444444444445],[-0.2717708333333333,-0.13944444444444445],[-0.20802083333333338,-0.1403703703703704],[-0.20802083333333338,-0.1403703703703704],[-0.18385416666666668,-0.09259259259259259],[-0.18385416666666668,-0.09259259259259259],[-0.13416666666666663,-0.056666666666666705],[-0.13416666666666663,-0.056666666666666705],[-0.11145833333333334,-0.052037037037037076],[-0.11145833333333334,-0.052037037037037076],[-0.06593749999999995,0.002407407407407323],[-0.06593749999999995,0.002407407407407323],[-0.03968750000000002,0.03425925925925926],[-0.03968750000000002,0.03425925925925926],[0.015312500000000047,0.07518518518518523],[0.015312500000000047,0.07518518518518523],[0.06072916666666662,0.09037037037037028],[0.06072916666666662,0.09037037037037028],[0.06989583333333324,0.0816666666666667],[0.06989583333333324,0.0816666666666667],[0.08177083333333333,0.1566666666666667],[0.08177083333333333,0.1566666666666667],[0.09447916666666671,0.13574074074074066],[0.09447916666666671,0.13574074074074066],[0.11833333333333323,0.12833333333333324],[0.11833333333333323,0.12833333333333324],[0.08322916666666676,0.12388888888888884],[0.08322916666666676,0.12388888888888884],[0.06124999999999995,0.15314814814814823],[0.06124999999999995,0.15314814814814823],[0.0515625,0.15388888888888894],[0.0515625,0.15388888888888894],[0.03708333333333336,0.14000000000000004],[0.03708333333333336,0.14000000000000004],[-0.004166666666666667,0.10907407407407403],[-0.004166666666666667,0.10907407407407403],[-0.042812500000000024,0.10314814814814824],[-0.042812500000000024,0.10314814814814824],[-0.029062499999999977,0.11611111111111119],[-0.029062499999999977,0.11611111111111119],[-0.05656249999999995,0.07037037037037037],[-0.05656249999999995,0.07037037037037037],[-0.07927083333333336,0.057777777777777865],[-0.07927083333333336,0.057777777777777865],[-0.11385416666666662,0.07259259259259268],[-0.11385416666666662,0.07259259259259268],[-0.09874999999999995,0.09166666666666666],[-0.09874999999999995,0.09166666666666666],[-0.09864583333333338,0.072037037037037],[-0.09864583333333338,0.072037037037037],[-0.11124999999999995,0.04944444444444453],[-0.11124999999999995,0.04944444444444453],[-0.11124999999999995,0.04944444444444453],[-0.10906250000000005,0.0948148148148149],[-0.10906250000000005,0.0948148148148149],[-0.11385416666666662,0.09814814814814815],[-0.11385416666666662,0.09814814814814815],[-0.10291666666666661,0.0911111111111112],[-0.10291666666666661,0.0911111111111112],[-0.11979166666666667,0.054259259259259174],[-0.11979166666666667,0.054259259259259174],[-0.11635416666666672,0.08648148148148156],[-0.11635416666666672,0.08648148148148156],[-0.11635416666666672,0.08648148148148156],[-0.10541666666666671,0.11518518518518527],[-0.10541666666666671,0.11518518518518527],[-0.07520833333333338,0.1338888888888888],[-0.08083333333333335,0.11351851851851844],[-0.07718750000000002,0.14148148148148143],[-0.05593750000000005,0.17018518518518513],[-0.04916666666666671,0.1685185185185185],[-0.024270833333333287,0.14722222222222223],[-0.013437499999999976,0.10277777777777777],[0.01552083333333331,0.15333333333333324],[0.025833333333333285,0.12018518518518514],[0.024270833333333287,0.11592592592592597],[0.04114583333333333,0.14148148148148143],[0.04114583333333333,0.14148148148148143],[0.10354166666666677,0.17462962962962955],[0.14333333333333323,0.19740740740740745],[0.15520833333333334,0.19611111111111107],[0.16124999999999995,0.19444444444444445],[0.16885416666666658,0.256111111111111],[0.18645833333333334,0.3014814814814814],[0.1944791666666667,0.32981481481481484],[0.23687500000000009,0.3755555555555555],[0.22385416666666677,0.37111111111111106],[0.1974999999999999,0.31666666666666665],[0.1584374999999999,0.26851851851851855],[0.07104166666666671,0.20722222222222217],[0.0775000000000001,0.17759259259259255],[0.0943749999999999,0.17592592592592593],[0.10656249999999995,0.14944444444444452],[0.08624999999999995,0.15055555555555547],[0.05802083333333338,0.13666666666666658],[0.017812500000000023,0.12129629629629629],[0.034687499999999954,0.1346296296296297],[0.012395833333333309,0.12777777777777777],[-0.009895833333333333,0.12092592592592584],[0.0640625,0.13666666666666658],[0.036249999999999956,0.11703703703703712],[0.013645833333333357,0.0837037037037038],[-0.011666666666666714,0.0551851851851851],[0.01072916666666662,0.05092592592592592],[0.01593749999999995,-0.028703703703703703],[0.03260416666666662,-0.04296296296296305],[0.049270833333333285,-0.05722222222222218],[0.049270833333333285,-0.05722222222222218],[0.09593749999999991,-0.11685185185185189],[0.14406249999999995,-0.1190740740740741],[0.18364583333333329,-0.1772222222222222],[0.2390625,-0.2351851851851852],[0.27666666666666656,-0.3320370370370371],[0.3125,-0.36574074074074076],[0.33718750000000003,-0.4631481481481482],[0.38302083333333337,-0.45314814814814813],[0.3967708333333334,-0.5496296296296297],[0.38739583333333344,-0.7155555555555555],[0.36708333333333343,-0.7290740740740741],[0.35166666666666657,-0.8216666666666667],[0.3507291666666667,-0.8114814814814815],[0.3415625000000001,-0.7731481481481481],[0.34041666666666665,-0.7098148148148148],[0.3307291666666667,-0.7133333333333333],[0.3016666666666666,-0.6494444444444444],[0.3102083333333333,-0.6981481481481482],[0.3087500000000001,-0.6677777777777778],[0.32791666666666663,-0.5361111111111111],[0.35093750000000007,-0.4792592592592593],[0.3609375,-0.38055555555555554],[0.35208333333333336,-0.3588888888888889],[0.3549999999999999,-0.3551851851851852],[0.3541666666666667,-0.3309259259259259],[0.37833333333333335,-0.3131481481481482],[0.39833333333333343,-0.32018518518518513],[0.35354166666666675,-0.25629629629629624],[0.3349999999999999,-0.22018518518518515],[0.3403125000000001,-0.24462962962962967],[0.34562499999999996,-0.2690740740740741],[0.34385416666666657,-0.27518518518518525],[0.34708333333333335,-0.3109259259259259],[0.3407291666666666,-0.28425925925925927],[0.34489583333333323,-0.36018518518518516],[0.33270833333333344,-0.33111111111111113],[0.32999999999999996,-0.3164814814814814],[0.3615624999999999,-0.3177777777777778],[0.3807291666666667,-0.3207407407407407],[0.3866666666666667,-0.3235185185185185],[0.41281249999999997,-0.3461111111111111],[0.40604166666666663,-0.3574074074074074],[0.4001041666666666,-0.3122222222222223],[0.3993750000000001,-0.31611111111111106],[0.39187500000000003,-0.23796296296296296],[0.40677083333333336,-0.24759259259259256],[0.409375,-0.22870370370370371],[0.4009375000000001,-0.18425925925925926],[0.4103125000000001,-0.18481481481481485],[0.3688541666666666,-0.12481481481481477],[0.3071875000000001,-0.044999999999999915],[0.3150000000000001,0.01703703703703712],[0.30458333333333343,0.08333333333333333],[0.3345833333333334,0.11870370370370374],[0.3493750000000001,0.18222222222222217],[0.33718750000000003,0.2433333333333333],[0.3372916666666666,0.2759259259259259],[0.3316666666666668,0.29796296296296293],[0.3311458333333334,0.29518518518518516],[0.34916666666666674,0.2857407407407407],[0.3646874999999999,0.30333333333333323],[0.3663541666666667,0.27388888888888885],[0.3680208333333333,0.24444444444444444],[0.3484375,0.22759259259259254],[0.3390625,0.1742592592592593],[0.3398958333333333,0.08814814814814818],[0.3398958333333333,0.08814814814814818],[0.35885416666666664,0.01962962962962967],[0.35885416666666664,0.01962962962962967],[0.36270833333333335,-0.04462962962962967],[0.36270833333333335,-0.04462962962962967],[0.3290625000000001,-0.012592592592592508],[0.3290625000000001,-0.012592592592592508],[0.3537499999999999,-0.05703703703703706],[0.3537499999999999,-0.05703703703703706],[0.37489583333333343,-0.1096296296296296],[0.3892708333333334,-0.16796296296296295],[0.41291666666666677,-0.24611111111111106],[0.4244791666666667,-0.3190740740740741],[0.4273958333333333,-0.3655555555555555],[0.42635416666666665,-0.3838888888888889],[0.4046875,-0.42777777777777776],[0.40385416666666674,-0.46574074074074073],[0.4410416666666668,-0.4751851851851852],[0.44406249999999997,-0.4335185185185186],[0.44583333333333336,-0.4468518518518519],[0.44677083333333345,-0.4398148148148148],[0.4493750000000001,-0.3435185185185185],[0.4492708333333333,-0.24740740740740744],[0.45281250000000006,-0.2235185185185185],[0.44718749999999996,-0.16574074074074074],[0.4527083333333332,-0.13148148148148148],[0.4522916666666667,-0.1270370370370371],[0.4521874999999999,-0.17074074074074072],[0.4331249999999999,-0.17814814814814814],[0.42291666666666666,-0.20129629629629628],[0.3919791666666666,-0.1418518518518519],[0.3484375,-0.13370370370370369],[0.30489583333333337,-0.1255555555555556],[0.2904166666666666,-0.08444444444444449],[0.2851041666666667,-0.0772222222222222],[0.26541666666666663,-0.041111111111111195],[0.25458333333333344,0.019259259259259216],[0.24364583333333342,0.05481481481481486],[0.2516666666666666,0.054074074074074156],[0.2516666666666666,0.054074074074074156],[0.2516666666666666,0.11518518518518527],[0.26979166666666665,0.06962962962962967],[0.2898958333333333,0.006851851851851936],[0.3160416666666668,-0.02388888888888885],[0.32312500000000005,-0.03351851851851856],[0.32791666666666663,-0.10333333333333336],[0.33354166666666674,-0.15555555555555556]]","[[-0.034791666666666644,0.18981481481481483,0.0002999999970114686],[-0.034791666666666644,0.18981481481481483,0.03829999999702238],[-0.034791666666666644,0.18981481481481483,0.04049999999999443],[-0.024895833333333308,0.18888888888888888,0.07329999999701897],[-0.024895833333333308,0.18888888888888888,0.08079999999701215],[-0.03739583333333331,0.1411111111111112,0.1066999999992504],[-0.03739583333333331,0.1411111111111112,0.11419999999925778],[-0.03447916666666669,0.19185185185185188,0.1411999999992588],[-0.03447916666666669,0.19185185185185188,0.14789999999850068],[-0.02041666666666669,0.12981481481481486,0.1732999999970133],[-0.02041666666666669,0.12981481481481486,0.18099999999999739],[-0.000416666666666643,0.13407407407407404,0.20789999999850295],[-0.000416666666666643,0.13407407407407404,0.21659999999776858],[0.007291666666666667,0.09962962962962954,0.24119999999925312],[0.007291666666666667,0.09962962962962954,0.24809999999776267],[0.013125000000000024,0.1,0.27469999999925676],[0.013125000000000024,0.1,0.28179999999701977],[0.033749999999999974,0.09796296296296292,0.3065999999977578],[0.033749999999999974,0.09796296296296292,0.31449999999999534],[0.06437499999999995,0.07074074074074083,0.33989999999850795],[0.06437499999999995,0.07074074074074083,0.34739999999850113],[0.08197916666666671,0.013888888888888888,0.3731999999992581],[0.08197916666666671,0.013888888888888888,0.3817999999970141],[0.09020833333333324,-0.03592592592592588,0.4065999999977663],[0.09020833333333324,-0.03592592592592588,0.41450000000000387],[0.11156249999999991,-0.002777777777777778,0.44249999999999545],[0.11156249999999991,-0.002777777777777778,0.44919999999925153],[0.109375,-0.10351851851851848,0.47449999999999193],[0.109375,-0.10351851851851848,0.48139999999850147],[0.10083333333333329,-0.09444444444444444,0.5080999999977678],[0.10083333333333329,-0.09444444444444444,0.5145999999977562],[0.08708333333333323,-0.15555555555555556,0.5413999999985037],[0.08708333333333323,-0.15555555555555556,0.5490999999977646],[0.1009375000000001,-0.14629629629629629,0.5745999999977585],[0.1009375000000001,-0.14629629629629629,0.5812999999970145],[0.11416666666666657,-0.12759259259259256,0.6065999999977549],[0.11416666666666657,-0.12759259259259256,0.6137999999970134],[0.11020833333333328,-0.10685185185185184,0.6400000000000006],[0.11020833333333328,-0.10685185185185184,0.647299999997017],[0.09468750000000009,-0.022037037037036994,0.675699999999253],[0.09468750000000009,-0.022037037037036994,0.6829999999999927],[0.07114583333333328,0.0514814814814814,0.7091999999992566],[0.07114583333333328,0.0514814814814814,0.7163999999985009],[0.06927083333333334,0.13518518518518519,0.7446999999992556],[0.06927083333333334,0.13518518518518519,0.7517999999970186],[0.06927083333333334,0.13518518518518519,0.761899999998505],[0.05802083333333338,0.1381481481481482,0.7941999999992504],[0.05802083333333338,0.1381481481481482,0.802199999999246],[0.06749999999999995,0.172037037037037,0.8310000000000031],[0.06749999999999995,0.172037037037037,0.8381999999992473],[0.07489583333333343,0.2572222222222222,0.8599999999999994],[0.07489583333333343,0.2572222222222222,0.8689999999999998],[0.06989583333333324,0.2631481481481482,0.8961999999992543],[0.06989583333333324,0.2631481481481482,0.904299999997022],[0.06020833333333329,0.28851851851851845,0.9281999999992507],[0.06020833333333329,0.28851851851851845,0.9357999999970161],[0.06156250000000003,0.306111111111111,0.9621999999992568],[0.06156250000000003,0.306111111111111,0.9694999999999965],[0.06572916666666669,0.3461111111111111,0.9934999999999974],[0.06572916666666669,0.3461111111111111,1.0009999999999906],[0.06645833333333329,0.3731481481481482,1.0313999999985128],[0.06645833333333329,0.3731481481481482,1.038499999999999],[0.07083333333333333,0.3538888888888889,1.058099999997765],[0.07083333333333333,0.3538888888888889,1.0645999999977676],[0.05645833333333338,0.3588888888888888,1.093599999997764],[0.05645833333333338,0.3588888888888888,1.1001999999992478],[0.050520833333333334,0.37518518518518523,1.125099999997758],[0.050520833333333334,0.37518518518518523,1.1321999999992585],[0.03864583333333336,0.3866666666666666,1.1581999999992547],[0.03864583333333336,0.3866666666666666,1.1645000000000039],[0.013333333333333286,0.35833333333333334,1.1913999999985094],[0.013333333333333286,0.35833333333333334,1.197899999998512],[-0.009375,0.37777777777777777,1.2231999999992524],[-0.009375,0.37777777777777777,1.2309999999999945],[-0.0003124999999999526,0.44074074074074077,1.2579999999999956],[-0.0003124999999999526,0.44074074074074077,1.2644999999999982],[-0.03229166666666667,0.4118518518518518,1.2898999999985108],[-0.03229166666666667,0.4118518518518518,1.2968999999985016],[-0.06229166666666662,0.4225925925925927,1.3233999999985002],[-0.06229166666666662,0.4225925925925927,1.3306999999992541],[-0.08999999999999998,0.3987037037037036,1.356499999999997],[-0.08999999999999998,0.3987037037037036,1.3637999999970134],[-0.09520833333333331,0.3603703703703704,1.389899999998505],[-0.09520833333333331,0.3603703703703704,1.3970999999977636],[-0.10239583333333328,0.39592592592592585,1.4232999999970133],[-0.10239583333333328,0.39592592592592585,1.4310999999977554],[-0.0984375,0.4094444444444445,1.4580999999977564],[-0.0984375,0.4094444444444445,1.4650000000000034],[-0.08500000000000002,0.44000000000000006,1.4913999999985066],[-0.08500000000000002,0.44000000000000006,1.4981999999992581],[-0.06770833333333333,0.469074074074074,1.5232999999970218],[-0.06770833333333333,0.469074074074074,1.5416999999992527],[-0.06124999999999995,0.5231481481481481,1.558099999997765],[-0.06124999999999995,0.5231481481481481,1.5653999999985047],[-0.11052083333333336,0.5068518518518519,1.591399999998501],[-0.11052083333333336,0.5068518518518519,1.5990999999977618],[-0.13270833333333332,0.522037037037037,1.6248999999985045],[-0.13270833333333332,0.522037037037037,1.6315000000000026],[-0.1482291666666666,0.45555555555555555,1.6580999999977593],[-0.1482291666666666,0.45555555555555555,1.6645000000000039],[-0.13729166666666662,0.45203703703703707,1.691299999997014],[-0.13729166666666662,0.45203703703703707,1.6977999999970166],[-0.1751041666666667,0.5211111111111111,1.7232999999970104],[-0.1751041666666667,0.5211111111111111,1.7304999999999922],[-0.2,0.47240740740740744,1.7565999999977606],[-0.2,0.47240740740740744,1.7634999999999934],[-0.2439583333333334,0.48222222222222216,1.7897999999970153],[-0.2439583333333334,0.48222222222222216,1.797099999997755],[-0.29885416666666664,0.40981481481481474,1.823299999997019],[-0.29885416666666664,0.40981481481481474,1.8307999999970122],[-0.33708333333333335,0.3224074074074075,1.858099999997762],[-0.33708333333333335,0.3224074074074075,1.8645999999977647],[-0.3789583333333333,0.29296296296296304,1.8897999999970239],[-0.3789583333333333,0.29296296296296304,1.8981999999992496],[-0.36520833333333336,0.18796296296296297,1.9251999999992506],[-0.36520833333333336,0.18796296296296297,1.9320000000000022],[-0.37229166666666663,0.1381481481481482,1.9581999999992519],[-0.37229166666666663,0.1381481481481482,1.964599999997759],[-0.35583333333333333,0.0948148148148149,1.9899999999999949],[-0.35583333333333333,0.0948148148148149,1.9969999999999999],[-0.38947916666666665,0.002407407407407323,2.023299999997022],[-0.38947916666666665,0.002407407407407323,2.0305999999977615],[-0.36875,-0.09092592592592597,2.0565999999977578],[-0.36875,-0.09092592592592597,2.0637999999970162],[-0.3646875,-0.14240740740740737,2.0900000000000034],[-0.3646875,-0.14240740740740737,2.0971999999992477],[-0.34270833333333334,-0.15796296296296297,2.123299999997016],[-0.34270833333333334,-0.15796296296296297,2.130199999999249],[-0.31489583333333326,-0.1272222222222222,2.156499999999994],[-0.31489583333333326,-0.1272222222222222,2.1636999999992526],[-0.2717708333333333,-0.13944444444444445,2.1898999999985023],[-0.2717708333333333,-0.13944444444444445,2.196799999997012],[-0.20802083333333338,-0.1403703703703704,2.2232999999970104],[-0.20802083333333338,-0.1403703703703704,2.2312999999970202],[-0.18385416666666668,-0.09259259259259259,2.2578999999985],[-0.18385416666666668,-0.09259259259259259,2.2643999999985027],[-0.13416666666666663,-0.056666666666666705,2.289999999999992],[-0.13416666666666663,-0.056666666666666705,2.2967999999970203],[-0.11145833333333334,-0.052037037037037076,2.323299999997019],[-0.11145833333333334,-0.052037037037037076,2.3305000000000007],[-0.06593749999999995,0.002407407407407323,2.356499999999997],[-0.06593749999999995,0.002407407407407323,2.3636999999992554],[-0.03968750000000002,0.03425925925925926,2.389799999997024],[-0.03968750000000002,0.03425925925925926,2.3969999999999914],[0.015312500000000047,0.07518518518518523,2.4231999999992553],[0.015312500000000047,0.07518518518518523,2.4318999999985067],[0.06072916666666662,0.09037037037037028,2.4580999999977564],[0.06072916666666662,0.09037037037037028,2.464500000000001],[0.06989583333333324,0.0816666666666667,2.492699999999246],[0.06989583333333324,0.0816666666666667,2.4990999999977674],[0.08177083333333333,0.1566666666666667,2.5231999999992496],[0.08177083333333333,0.1566666666666667,2.531499999999994],[0.09447916666666671,0.13574074074074066,2.5579999999999927],[0.09447916666666671,0.13574074074074066,2.5652999999970234],[0.11833333333333323,0.12833333333333324,2.593599999997764],[0.11833333333333323,0.12833333333333324,2.6004999999999967],[0.08322916666666676,0.12388888888888884,2.625099999997758],[0.08322916666666676,0.12388888888888884,2.6318999999985095],[0.06124999999999995,0.15314814814814823,2.657899999998506],[0.06124999999999995,0.15314814814814823,2.6646999999992573],[0.0515625,0.15388888888888894,2.6913999999985094],[0.0515625,0.15388888888888894,2.6980999999977655],[0.03708333333333336,0.14000000000000004,2.723099999997757],[0.03708333333333336,0.14000000000000004,2.730399999998511],[-0.004166666666666667,0.10907407407407403,2.7565999999977606],[-0.004166666666666667,0.10907407407407403,2.763399999998512],[-0.042812500000000024,0.10314814814814824,2.7897999999970153],[-0.042812500000000024,0.10314814814814824,2.796699999999248],[-0.029062499999999977,0.11611111111111119,2.823299999997019],[-0.029062499999999977,0.11611111111111119,2.8303999999985052],[-0.05656249999999995,0.07037037037037037,2.859099999997767],[-0.05656249999999995,0.07037037037037037,2.866199999999253],[-0.07927083333333336,0.057777777777777865,2.8962999999970123],[-0.07927083333333336,0.057777777777777865,2.90419999999925],[-0.11385416666666662,0.07259259259259268,2.9281999999992507],[-0.11385416666666662,0.07259259259259268,2.935399999998509],[-0.09874999999999995,0.09166666666666666,2.9609999999999985],[-0.09874999999999995,0.09166666666666666,2.968299999997015],[-0.09864583333333338,0.072037037037037,2.9941999999992532],[-0.09864583333333338,0.072037037037037,3.0018999999985],[-0.11124999999999995,0.04944444444444453,3.027799999997015],[-0.11124999999999995,0.04944444444444453,3.035599999997757],[-0.11124999999999995,0.04944444444444453,3.042599999997762],[-0.10906250000000005,0.0948148148148149,3.0757999999970167],[-0.10906250000000005,0.0948148148148149,3.08329999999701],[-0.11385416666666662,0.09814814814814815,3.109899999998504],[-0.11385416666666662,0.09814814814814815,3.1184999999999974],[-0.10291666666666661,0.0911111111111112,3.1444999999999936],[-0.10291666666666661,0.0911111111111112,3.1514999999999986],[-0.11979166666666667,0.054259259259259174,3.1785999999977577],[-0.11979166666666667,0.054259259259259174,3.1876999999992535],[-0.11635416666666672,0.08648148148148156,3.2143999999985056],[-0.11635416666666672,0.08648148148148156,3.22229999999702],[-0.11635416666666672,0.08648148148148156,3.230000000000004],[-0.10541666666666671,0.11518518518518527,3.2390999999977623],[-0.10541666666666671,0.11518518518518527,3.2557999999970235],[-0.07520833333333338,0.1338888888888888,3.2724999999999937],[-0.08083333333333335,0.11351851851851844,3.289299999997013],[-0.07718750000000002,0.14148148148148143,3.305899999998502],[-0.05593750000000005,0.17018518518518513,3.322899999998512],[-0.04916666666666671,0.1685185185185185,3.3390999999977566],[-0.024270833333333287,0.14722222222222223,3.3558999999985133],[-0.013437499999999976,0.10277777777777777,3.372399999998507],[0.01552083333333331,0.15333333333333324,3.3891999999992493],[0.025833333333333285,0.12018518518518514,3.4058999999985105],[0.024270833333333287,0.11592592592592597,3.423000000000002],[0.04114583333333333,0.14148148148148143,3.4428999999985024],[0.04114583333333333,0.14148148148148143,3.460199999999247],[0.10354166666666677,0.17462962962962955,3.4758999999985036],[0.14333333333333323,0.19740740740740745,3.491299999997011],[0.15520833333333334,0.19611111111111107,3.5057999999970235],[0.16124999999999995,0.19444444444444445,3.522599999997766],[0.16885416666666658,0.256111111111111,3.5404999999999944],[0.18645833333333334,0.3014814814814814,3.5557999999970207],[0.1944791666666667,0.32981481481481484,3.5723999999985097],[0.23687500000000009,0.3755555555555555,3.591099999997766],[0.22385416666666677,0.37111111111111106,3.605799999997018],[0.1974999999999999,0.31666666666666665,3.6227999999970137],[0.1584374999999999,0.26851851851851855,3.6391999999992493],[0.07104166666666671,0.20722222222222217,3.6577999999970103],[0.0775000000000001,0.17759259259259255,3.672799999997011],[0.0943749999999999,0.17592592592592593,3.6893999999985],[0.10656249999999995,0.14944444444444452,3.7087999999970123],[0.08624999999999995,0.15055555555555547,3.723099999997757],[0.05802083333333338,0.13666666666666658,3.739299999997016],[0.017812500000000023,0.12129629629629629,3.7561999999992537],[0.034687499999999954,0.1346296296296297,3.775499999999994],[0.012395833333333309,0.12777777777777777,3.789500000000004],[-0.009895833333333333,0.12092592592592584,3.8060999999977554],[0.0640625,0.13666666666666658,3.8248999999985074],[0.036249999999999956,0.11703703703703712,3.8393999999985056],[0.013645833333333357,0.0837037037037038,3.8559999999999945],[-0.011666666666666714,0.0551851851851851,3.8726999999992557],[0.01072916666666662,0.05092592592592592,3.891799999997019],[0.01593749999999995,-0.028703703703703703,3.9059999999999917],[0.03260416666666662,-0.04296296296296305,3.922799999997011],[0.049270833333333285,-0.05722222222222218,3.9428999999985024],[0.049270833333333285,-0.05722222222222218,3.956000000000003],[0.09593749999999991,-0.11685185185185189,3.972599999997769],[0.14406249999999995,-0.1190740740740741,3.991199999999253],[0.18364583333333329,-0.1772222222222222,4.005899999998505],[0.2390625,-0.2351851851851852,4.022799999997019],[0.27666666666666656,-0.3320370370370371,4.0390999999977595],[0.3125,-0.36574074074074076,4.055799999997021],[0.33718750000000003,-0.4631481481481482,4.072499999999991],[0.38302083333333337,-0.45314814814814813,4.091099999997766],[0.3967708333333334,-0.5496296296296297,4.10929999999702],[0.38739583333333344,-0.7155555555555555,4.124499999999998],[0.36708333333333343,-0.7290740740740741,4.1392999999970215],[0.35166666666666657,-0.8216666666666667,4.157699999999252],[0.3507291666666667,-0.8114814814814815,4.172599999997757],[0.3415625000000001,-0.7731481481481481,4.1893999999985],[0.34041666666666665,-0.7098148148148148,4.208899999998508],[0.3307291666666667,-0.7133333333333333,4.222999999999999],[0.3016666666666666,-0.6494444444444444,4.239399999998511],[0.3102083333333333,-0.6981481481481482,4.257999999999996],[0.3087500000000001,-0.6677777777777778,4.272699999999247],[0.32791666666666663,-0.5361111111111111,4.289399999998508],[0.35093750000000007,-0.4792592592592593,4.305999999999997],[0.3609375,-0.38055555555555554,4.3245999999977585],[0.35208333333333336,-0.3588888888888889,4.339399999998506],[0.3549999999999999,-0.3551851851851852,4.3559999999999945],[0.3541666666666667,-0.3309259259259259,4.37259999999776],[0.37833333333333335,-0.3131481481481482,4.390999999999991],[0.39833333333333343,-0.32018518518518513,4.4058999999985105],[0.35354166666666675,-0.25629629629629624,4.423000000000002],[0.3349999999999999,-0.22018518518518515,4.439199999999246],[0.3403125000000001,-0.24462962962962967,4.455799999997012],[0.34562499999999996,-0.2690740740740741,4.473899999998508],[0.34385416666666657,-0.27518518518518525,4.490599999997755],[0.34708333333333335,-0.3109259259259259,4.505899999998505],[0.3407291666666666,-0.28425925925925927,4.525999999999996],[0.34489583333333323,-0.36018518518518516,4.540899999998501],[0.33270833333333344,-0.33111111111111113,4.555799999997021],[0.32999999999999996,-0.3164814814814814,4.572499999999991],[0.3615624999999999,-0.3177777777777778,4.589199999999252],[0.3807291666666667,-0.3207407407407407,4.608799999997018],[0.3866666666666667,-0.3235185185185185,4.623099999997763],[0.41281249999999997,-0.3461111111111111,4.639199999999249],[0.40604166666666663,-0.3574074074074074,4.657899999998506],[0.4001041666666666,-0.3122222222222223,4.672699999999253],[0.3993750000000001,-0.31611111111111106,4.6893999999985],[0.39187500000000003,-0.23796296296296296,4.708899999998508],[0.40677083333333336,-0.24759259259259256,4.72269999999925],[0.409375,-0.22870370370370371,4.739299999997016],[0.4009375000000001,-0.18425925925925926,4.755699999999251],[0.4103125000000001,-0.18481481481481485,4.775299999997017],[0.3688541666666666,-0.12481481481481477,4.789199999999255],[0.3071875000000001,-0.044999999999999915,4.806099999997755],[0.3150000000000001,0.01703703703703712,4.824699999999254],[0.30458333333333343,0.08333333333333333,4.839099999997757],[0.3345833333333334,0.11870370370370374,4.855799999997018],[0.3493750000000001,0.18222222222222217,4.872500000000002],[0.33718750000000003,0.2433333333333333,4.890699999999256],[0.3372916666666666,0.2759259259259259,4.905799999997015],[0.3316666666666668,0.29796296296296293,4.925099999997755],[0.3311458333333334,0.29518518518518516,4.941899999998512],[0.34916666666666674,0.2857407407407407,4.955799999997012],[0.3646874999999999,0.30333333333333323,4.972499999999997],[0.3663541666666667,0.27388888888888885,4.989399999998511],[0.3680208333333333,0.24444444444444444,5.0057999999970235],[0.3484375,0.22759259259259254,5.022499999999994],[0.3390625,0.1742592592592593,5.039199999999255],[0.3398958333333333,0.08814814814814818,5.055799999997021],[0.3398958333333333,0.08814814814814818,5.07239999999851],[0.35885416666666664,0.01962962962962967,5.089199999999252],[0.35885416666666664,0.01962962962962967,5.105899999998513],[0.36270833333333335,-0.04462962962962967,5.122500000000002],[0.36270833333333335,-0.04462962962962967,5.139099999997768],[0.3290625000000001,-0.012592592592592508,5.1558999999985105],[0.3290625000000001,-0.012592592592592508,5.172499999999999],[0.3537499999999999,-0.05703703703703706,5.189199999999246],[0.3537499999999999,-0.05703703703703706,5.205799999997012],[0.37489583333333343,-0.1096296296296296,5.222599999997769],[0.3892708333333334,-0.16796296296296295,5.244399999998507],[0.41291666666666677,-0.24611111111111106,5.258899999998505],[0.4244791666666667,-0.3190740740740741,5.272499999999994],[0.4273958333333333,-0.3655555555555555,5.289199999999255],[0.42635416666666665,-0.3838888888888889,5.305799999997021],[0.4046875,-0.42777777777777776,5.322499999999991],[0.40385416666666674,-0.46574074074074073,5.339099999997757],[0.4410416666666668,-0.4751851851851852,5.355799999997018],[0.44406249999999997,-0.4335185185185186,5.372500000000002],[0.44583333333333336,-0.4468518518518519,5.389099999997768],[0.44677083333333345,-0.4398148148148148,5.408699999999257],[0.4493750000000001,-0.3435185185185185,5.425199999999251],[0.4492708333333333,-0.24740740740740744,5.439799999997021],[0.45281250000000006,-0.2235185185185185,5.455899999998508],[0.44718749999999996,-0.16574074074074074,5.474699999999245],[0.4527083333333332,-0.13148148148148148,5.489199999999258],[0.4522916666666667,-0.1270370370370371,5.505899999998505],[0.4521874999999999,-0.17074074074074072,5.526299999997022],[0.4331249999999999,-0.17814814814814814,5.539699999999257],[0.42291666666666666,-0.20129629629629628,5.555999999999997],[0.3919791666666666,-0.1418518518518519,5.572599999997763],[0.3484375,-0.13370370370370369,5.589099999997757],[0.30489583333333337,-0.1255555555555556,5.605799999997018],[0.2904166666666666,-0.08444444444444449,5.623999999999995],[0.2851041666666667,-0.0772222222222222,5.639099999997768],[0.26541666666666663,-0.041111111111111195,5.659399999998513],[0.25458333333333344,0.019259259259259216,5.673000000000002],[0.24364583333333342,0.05481481481481486,5.689299999997019],[0.2516666666666666,0.054074074074074156,5.710099999997766],[0.2516666666666666,0.054074074074074156,5.722799999997022],[0.2516666666666666,0.11518518518518527,5.739399999998511],[0.26979166666666665,0.06962962962962967,5.759399999998507],[0.2898958333333333,0.006851851851851936,5.774799999997015],[0.3160416666666668,-0.02388888888888885,5.789999999999992],[0.32312500000000005,-0.03351851851851856,5.806199999999251],[0.32791666666666663,-0.10333333333333336,5.825699999999259],[0.33354166666666674,-0.15555555555555556,5.839500000000001]]","[0.0002999999970114686,0.03829999999702238,0.04049999999999443,0.07329999999701897,0.08079999999701215,0.1066999999992504,0.11419999999925778,0.1411999999992588,0.14789999999850068,0.1732999999970133,0.18099999999999739,0.20789999999850295,0.21659999999776858,0.24119999999925312,0.24809999999776267,0.27469999999925676,0.28179999999701977,0.3065999999977578,0.31449999999999534,0.33989999999850795,0.34739999999850113,0.3731999999992581,0.3817999999970141,0.4065999999977663,0.41450000000000387,0.44249999999999545,0.44919999999925153,0.47449999999999193,0.48139999999850147,0.5080999999977678,0.5145999999977562,0.5413999999985037,0.5490999999977646,0.5745999999977585,0.5812999999970145,0.6065999999977549,0.6137999999970134,0.6400000000000006,0.647299999997017,0.675699999999253,0.6829999999999927,0.7091999999992566,0.7163999999985009,0.7446999999992556,0.7517999999970186,0.761899999998505,0.7941999999992504,0.802199999999246,0.8310000000000031,0.8381999999992473,0.8599999999999994,0.8689999999999998,0.8961999999992543,0.904299999997022,0.9281999999992507,0.9357999999970161,0.9621999999992568,0.9694999999999965,0.9934999999999974,1.0009999999999906,1.0313999999985128,1.038499999999999,1.058099999997765,1.0645999999977676,1.093599999997764,1.1001999999992478,1.125099999997758,1.1321999999992585,1.1581999999992547,1.1645000000000039,1.1913999999985094,1.197899999998512,1.2231999999992524,1.2309999999999945,1.2579999999999956,1.2644999999999982,1.2898999999985108,1.2968999999985016,1.3233999999985002,1.3306999999992541,1.356499999999997,1.3637999999970134,1.389899999998505,1.3970999999977636,1.4232999999970133,1.4310999999977554,1.4580999999977564,1.4650000000000034,1.4913999999985066,1.4981999999992581,1.5232999999970218,1.5416999999992527,1.558099999997765,1.5653999999985047,1.591399999998501,1.5990999999977618,1.6248999999985045,1.6315000000000026,1.6580999999977593,1.6645000000000039,1.691299999997014,1.6977999999970166,1.7232999999970104,1.7304999999999922,1.7565999999977606,1.7634999999999934,1.7897999999970153,1.797099999997755,1.823299999997019,1.8307999999970122,1.858099999997762,1.8645999999977647,1.8897999999970239,1.8981999999992496,1.9251999999992506,1.9320000000000022,1.9581999999992519,1.964599999997759,1.9899999999999949,1.9969999999999999,2.023299999997022,2.0305999999977615,2.0565999999977578,2.0637999999970162,2.0900000000000034,2.0971999999992477,2.123299999997016,2.130199999999249,2.156499999999994,2.1636999999992526,2.1898999999985023,2.196799999997012,2.2232999999970104,2.2312999999970202,2.2578999999985,2.2643999999985027,2.289999999999992,2.2967999999970203,2.323299999997019,2.3305000000000007,2.356499999999997,2.3636999999992554,2.389799999997024,2.3969999999999914,2.4231999999992553,2.4318999999985067,2.4580999999977564,2.464500000000001,2.492699999999246,2.4990999999977674,2.5231999999992496,2.531499999999994,2.5579999999999927,2.5652999999970234,2.593599999997764,2.6004999999999967,2.625099999997758,2.6318999999985095,2.657899999998506,2.6646999999992573,2.6913999999985094,2.6980999999977655,2.723099999997757,2.730399999998511,2.7565999999977606,2.763399999998512,2.7897999999970153,2.796699999999248,2.823299999997019,2.8303999999985052,2.859099999997767,2.866199999999253,2.8962999999970123,2.90419999999925,2.9281999999992507,2.935399999998509,2.9609999999999985,2.968299999997015,2.9941999999992532,3.0018999999985,3.027799999997015,3.035599999997757,3.042599999997762,3.0757999999970167,3.08329999999701,3.109899999998504,3.1184999999999974,3.1444999999999936,3.1514999999999986,3.1785999999977577,3.1876999999992535,3.2143999999985056,3.22229999999702,3.230000000000004,3.2390999999977623,3.2557999999970235,3.2724999999999937,3.289299999997013,3.305899999998502,3.322899999998512,3.3390999999977566,3.3558999999985133,3.372399999998507,3.3891999999992493,3.4058999999985105,3.423000000000002,3.4428999999985024,3.460199999999247,3.4758999999985036,3.491299999997011,3.5057999999970235,3.522599999997766,3.5404999999999944,3.5557999999970207,3.5723999999985097,3.591099999997766,3.605799999997018,3.6227999999970137,3.6391999999992493,3.6577999999970103,3.672799999997011,3.6893999999985,3.7087999999970123,3.723099999997757,3.739299999997016,3.7561999999992537,3.775499999999994,3.789500000000004,3.8060999999977554,3.8248999999985074,3.8393999999985056,3.8559999999999945,3.8726999999992557,3.891799999997019,3.9059999999999917,3.922799999997011,3.9428999999985024,3.956000000000003,3.972599999997769,3.991199999999253,4.005899999998505,4.022799999997019,4.0390999999977595,4.055799999997021,4.072499999999991,4.091099999997766,4.10929999999702,4.124499999999998,4.1392999999970215,4.157699999999252,4.172599999997757,4.1893999999985,4.208899999998508,4.222999999999999,4.239399999998511,4.257999999999996,4.272699999999247,4.289399999998508,4.305999999999997,4.3245999999977585,4.339399999998506,4.3559999999999945,4.37259999999776,4.390999999999991,4.4058999999985105,4.423000000000002,4.439199999999246,4.455799999997012,4.473899999998508,4.490599999997755,4.505899999998505,4.525999999999996,4.540899999998501,4.555799999997021,4.572499999999991,4.589199999999252,4.608799999997018,4.623099999997763,4.639199999999249,4.657899999998506,4.672699999999253,4.6893999999985,4.708899999998508,4.72269999999925,4.739299999997016,4.755699999999251,4.775299999997017,4.789199999999255,4.806099999997755,4.824699999999254,4.839099999997757,4.855799999997018,4.872500000000002,4.890699999999256,4.905799999997015,4.925099999997755,4.941899999998512,4.955799999997012,4.972499999999997,4.989399999998511,5.0057999999970235,5.022499999999994,5.039199999999255,5.055799999997021,5.07239999999851,5.089199999999252,5.105899999998513,5.122500000000002,5.139099999997768,5.1558999999985105,5.172499999999999,5.189199999999246,5.205799999997012,5.222599999997769,5.244399999998507,5.258899999998505,5.272499999999994,5.289199999999255,5.305799999997021,5.322499999999991,5.339099999997757,5.355799999997018,5.372500000000002,5.389099999997768,5.408699999999257,5.425199999999251,5.439799999997021,5.455899999998508,5.474699999999245,5.489199999999258,5.505899999998505,5.526299999997022,5.539699999999257,5.555999999999997,5.572599999997763,5.589099999997757,5.605799999997018,5.623999999999995,5.639099999997768,5.659399999998513,5.673000000000002,5.689299999997019,5.710099999997766,5.722799999997022,5.739399999998511,5.759399999998507,5.774799999997015,5.789999999999992,5.806199999999251,5.825699999999259,5.839500000000001]","[1733136717340,1733136717371,1733136717373,1733136717406,1733136717413,1733136717439,1733136717447,1733136717474,1733136717480,1733136717506,1733136717514,1733136717541,1733136717549,1733136717574,1733136717581,1733136717607,1733136717614,1733136717639,1733136717647,1733136717672,1733136717680,1733136717706,1733136717714,1733136717739,1733136717747,1733136717775,1733136717782,1733136717807,1733136717814,1733136717841,1733136717847,1733136717874,1733136717882,1733136717907,1733136717914,1733136717939,1733136717946,1733136717973,1733136717980,1733136718008,1733136718016,1733136718042,1733136718049,1733136718077,1733136718084,1733136718095,1733136718127,1733136718135,1733136718164,1733136718171,1733136718193,1733136718202,1733136718229,1733136718237,1733136718261,1733136718268,1733136718295,1733136718302,1733136718326,1733136718334,1733136718364,1733136718371,1733136718391,1733136718397,1733136718426,1733136718433,1733136718458,1733136718465,1733136718491,1733136718497,1733136718524,1733136718531,1733136718556,1733136718564,1733136718591,1733136718597,1733136718623,1733136718629,1733136718656,1733136718663,1733136718689,1733136718696,1733136718722,1733136718730,1733136718756,1733136718764,1733136718791,1733136718798,1733136718824,1733136718831,1733136718856,1733136718874,1733136718891,1733136718898,1733136718924,1733136718932,1733136718958,1733136718964,1733136718991,1733136718997,1733136719024,1733136719030,1733136719056,1733136719063,1733136719089,1733136719096,1733136719122,1733136719130,1733136719156,1733136719163,1733136719191,1733136719197,1733136719222,1733136719231,1733136719258,1733136719265,1733136719291,1733136719297,1733136719323,1733136719330,1733136719356,1733136719363,1733136719389,1733136719396,1733136719423,1733136719430,1733136719456,1733136719463,1733136719489,1733136719496,1733136719522,1733136719529,1733136719556,1733136719564,1733136719590,1733136719597,1733136719623,1733136719629,1733136719656,1733136719663,1733136719689,1733136719696,1733136719722,1733136719730,1733136719756,1733136719764,1733136719791,1733136719797,1733136719825,1733136719832,1733136719856,1733136719864,1733136719891,1733136719898,1733136719926,1733136719933,1733136719958,1733136719965,1733136719991,1733136719997,1733136720024,1733136720031,1733136720056,1733136720063,1733136720089,1733136720096,1733136720122,1733136720129,1733136720156,1733136720163,1733136720192,1733136720199,1733136720229,1733136720237,1733136720261,1733136720268,1733136720294,1733136720301,1733136720327,1733136720334,1733136720360,1733136720368,1733136720375,1733136720408,1733136720416,1733136720442,1733136720451,1733136720477,1733136720484,1733136720511,1733136720520,1733136720547,1733136720555,1733136720563,1733136720572,1733136720588,1733136720605,1733136720622,1733136720638,1733136720656,1733136720672,1733136720688,1733136720705,1733136720722,1733136720738,1733136720756,1733136720776,1733136720793,1733136720809,1733136720824,1733136720838,1733136720855,1733136720873,1733136720888,1733136720905,1733136720924,1733136720938,1733136720955,1733136720972,1733136720990,1733136721005,1733136721022,1733136721041,1733136721056,1733136721072,1733136721089,1733136721108,1733136721122,1733136721139,1733136721157,1733136721172,1733136721189,1733136721205,1733136721224,1733136721239,1733136721255,1733136721275,1733136721289,1733136721305,1733136721324,1733136721339,1733136721355,1733136721372,1733136721388,1733136721405,1733136721424,1733136721442,1733136721457,1733136721472,1733136721490,1733136721505,1733136721522,1733136721541,1733136721556,1733136721572,1733136721591,1733136721605,1733136721622,1733136721639,1733136721657,1733136721672,1733136721689,1733136721705,1733136721724,1733136721738,1733136721756,1733136721772,1733136721788,1733136721806,1733136721823,1733136721839,1733136721859,1733136721874,1733136721888,1733136721905,1733136721922,1733136721941,1733136721956,1733136721972,1733136721990,1733136722005,1733136722022,1733136722041,1733136722055,1733136722072,1733136722088,1733136722108,1733136722122,1733136722139,1733136722157,1733136722172,1733136722188,1733136722205,1733136722223,1733136722238,1733136722258,1733136722274,1733136722288,1733136722305,1733136722322,1733136722338,1733136722355,1733136722372,1733136722388,1733136722405,1733136722422,1733136722438,1733136722455,1733136722472,1733136722488,1733136722505,1733136722522,1733136722538,1733136722555,1733136722577,1733136722592,1733136722605,1733136722622,1733136722638,1733136722655,1733136722672,1733136722688,1733136722705,1733136722722,1733136722741,1733136722758,1733136722772,1733136722789,1733136722807,1733136722822,1733136722839,1733136722859,1733136722872,1733136722889,1733136722905,1733136722922,1733136722938,1733136722957,1733136722972,1733136722992,1733136723006,1733136723022,1733136723043,1733136723055,1733136723072,1733136723092,1733136723107,1733136723123,1733136723139,1733136723158,1733136723172]","[[926.6,642.5],[926.6,642.5],[926.6,642.5],[936.1,642],[936.1,642],[924.1,616.2],[924.1,616.2],[926.9,643.6],[926.9,643.6],[940.4,610.1],[940.4,610.1],[959.6,612.4],[959.6,612.4],[967,593.8],[967,593.8],[972.6,594],[972.6,594],[992.4,592.9],[992.4,592.9],[1021.8,578.2],[1021.8,578.2],[1038.7,547.5],[1038.7,547.5],[1046.6,520.6],[1046.6,520.6],[1067.1,538.5],[1067.1,538.5],[1065,484.1],[1065,484.1],[1056.8,489],[1056.8,489],[1043.6,456],[1043.6,456],[1056.9,461],[1056.9,461],[1069.6,471.1],[1069.6,471.1],[1065.8,482.3],[1065.8,482.3],[1050.9,528.1],[1050.9,528.1],[1028.3,567.8],[1028.3,567.8],[1026.5,613],[1026.5,613],[1026.5,613],[1015.7,614.6],[1015.7,614.6],[1024.8,632.9],[1024.8,632.9],[1031.9,678.9],[1031.9,678.9],[1027.1,682.1],[1027.1,682.1],[1017.8,695.8],[1017.8,695.8],[1019.1,705.3],[1019.1,705.3],[1023.1,726.9],[1023.1,726.9],[1023.8,741.5],[1023.8,741.5],[1028,731.1],[1028,731.1],[1014.2,733.8],[1014.2,733.8],[1008.5,742.6],[1008.5,742.6],[997.1,748.8],[997.1,748.8],[972.8,733.5],[972.8,733.5],[951,744],[951,744],[959.7,778],[959.7,778],[929,762.4],[929,762.4],[900.2,768.2],[900.2,768.2],[873.6,755.3],[873.6,755.3],[868.6,734.6],[868.6,734.6],[861.7,753.8],[861.7,753.8],[865.5,761.1],[865.5,761.1],[878.4,777.6],[878.4,777.6],[895,793.3],[895,793.3],[901.2,822.5],[901.2,822.5],[853.9,813.7],[853.9,813.7],[832.6,821.9],[832.6,821.9],[817.7,786],[817.7,786],[828.2,784.1],[828.2,784.1],[791.9,821.4],[791.9,821.4],[768,795.1],[768,795.1],[725.8,800.4],[725.8,800.4],[673.1,761.3],[673.1,761.3],[636.4,714.1],[636.4,714.1],[596.2,698.2],[596.2,698.2],[609.4,641.5],[609.4,641.5],[602.6,614.6],[602.6,614.6],[618.4,591.2],[618.4,591.2],[586.1,541.3],[586.1,541.3],[606,490.9],[606,490.9],[609.9,463.1],[609.9,463.1],[631,454.7],[631,454.7],[657.7,471.3],[657.7,471.3],[699.1,464.7],[699.1,464.7],[760.3,464.2],[760.3,464.2],[783.5,490],[783.5,490],[831.2,509.4],[831.2,509.4],[853,511.9],[853,511.9],[896.7,541.3],[896.7,541.3],[921.9,558.5],[921.9,558.5],[974.7,580.6],[974.7,580.6],[1018.3,588.8],[1018.3,588.8],[1027.1,584.1],[1027.1,584.1],[1038.5,624.6],[1038.5,624.6],[1050.7,613.3],[1050.7,613.3],[1073.6,609.3],[1073.6,609.3],[1039.9,606.9],[1039.9,606.9],[1018.8,622.7],[1018.8,622.7],[1009.5,623.1],[1009.5,623.1],[995.6,615.6],[995.6,615.6],[956,598.9],[956,598.9],[918.9,595.7],[918.9,595.7],[932.1,602.7],[932.1,602.7],[905.7,578],[905.7,578],[883.9,571.2],[883.9,571.2],[850.7,579.2],[850.7,579.2],[865.2,589.5],[865.2,589.5],[865.3,578.9],[865.3,578.9],[853.2,566.7],[853.2,566.7],[853.2,566.7],[855.3,591.2],[855.3,591.2],[850.7,593],[850.7,593],[861.2,589.2],[861.2,589.2],[845,569.3],[845,569.3],[848.3,586.7],[848.3,586.7],[848.3,586.7],[858.8,602.2],[858.8,602.2],[887.8,612.3],[882.4,601.3],[885.9,616.4],[906.3,631.9],[912.8,631],[936.7,619.5],[947.1,595.5],[974.9,622.8],[984.8,604.9],[983.3,602.6],[999.5,616.4],[999.5,616.4],[1059.4,634.3],[1097.6,646.6],[1109,645.9],[1114.8,645],[1122.1,678.3],[1139,702.8],[1146.7,718.1],[1187.4,742.8],[1174.9,740.4],[1149.6,711],[1112.1,685],[1028.2,651.9],[1034.4,635.9],[1050.6,635],[1062.3,620.7],[1042.8,621.3],[1015.7,613.8],[977.1,605.5],[993.3,612.7],[971.9,609],[950.5,605.3],[1021.5,613.8],[994.8,603.2],[973.1,585.2],[948.8,569.8],[970.3,567.5],[975.3,524.5],[991.3,516.8],[1007.3,509.1],[1007.3,509.1],[1052.1,476.9],[1098.3,475.7],[1136.3,444.3],[1189.5,413],[1225.6,360.7],[1260,342.5],[1283.7,289.9],[1327.7,295.3],[1340.9,243.2],[1331.9,153.6],[1312.4,146.3],[1297.6,96.3],[1296.7,101.8],[1287.9,122.5],[1286.8,156.7],[1277.5,154.8],[1249.6,189.3],[1257.8,163],[1256.4,179.4],[1274.8,250.5],[1296.9,281.2],[1306.5,334.5],[1298,346.2],[1300.8,348.2],[1300,361.3],[1323.2,370.9],[1342.4,367.1],[1299.4,401.6],[1281.6,421.1],[1286.7,407.9],[1291.8,394.7],[1290.1,391.4],[1293.2,372.1],[1287.1,386.5],[1291.1,345.5],[1279.4,361.2],[1276.8,369.1],[1307.1,368.4],[1325.5,366.8],[1331.2,365.3],[1356.3,353.1],[1349.8,347],[1344.1,371.4],[1343.4,369.3],[1336.2,411.5],[1350.5,406.3],[1353,416.5],[1344.9,440.5],[1353.9,440.2],[1314.1,472.6],[1254.9,515.7],[1262.4,549.2],[1252.4,585],[1281.2,604.1],[1295.4,638.4],[1283.7,671.4],[1283.8,689],[1278.4,700.9],[1277.9,699.4],[1295.2,694.3],[1310.1,703.8],[1311.7,687.9],[1313.3,672],[1294.5,662.9],[1285.5,634.1],[1286.3,587.6],[1286.3,587.6],[1304.5,550.6],[1304.5,550.6],[1308.2,515.9],[1308.2,515.9],[1275.9,533.2],[1275.9,533.2],[1299.6,509.2],[1299.6,509.2],[1319.9,480.8],[1333.7,449.3],[1356.4,407.1],[1367.5,367.7],[1370.3,342.6],[1369.3,332.7],[1348.5,309],[1347.7,288.5],[1383.4,283.4],[1386.3,305.9],[1388,298.7],[1388.9,302.5],[1391.4,354.5],[1391.3,406.4],[1394.7,419.3],[1389.3,450.5],[1394.6,469],[1394.2,471.4],[1394.1,447.8],[1375.8,443.8],[1366,431.3],[1336.3,463.4],[1294.5,467.8],[1252.7,472.2],[1238.8,494.4],[1233.7,498.3],[1214.8,517.8],[1204.4,550.4],[1193.9,569.6],[1201.6,569.2],[1201.6,569.2],[1201.6,602.2],[1219,577.6],[1238.3,543.7],[1263.4,527.1],[1270.2,521.9],[1274.8,484.2],[1280.2,456]]","[0,0.3527331528]","[0.3527331528,0.3527331528]","[-0.3527331528,-0.3527331528]","[-0.3527331528,0]","[0,-0.3527331528]","[0.3527331528,-0.3527331528]","[0,0]","[0.3527331528,0]",0,0,0,0,1,1,Tablet,7,7,15,9
