inst1_resp.keys,inst1_resp.rt,calibrationMouse.x,calibrationMouse.y,calibrationMouse.leftButton,calibrationMouse.midButton,calibrationMouse.rightButton,calibrationClick.x,calibrationClick.y,calibrationClick.leftButton,calibrationClick.midButton,calibrationClick.rightButton,calibrationClick.clicked_name,trialsc.thisRepN,trialsc.thisTrialN,trialsc.thisN,trialsc.thisIndex,trialsc.ran,calibration_x,calibration_y,participant,session,date,expName,psychopyVersion,OS,frameRate,ScreenRes_pixels,Camera_pixels,mouse_2.x,mouse_2.y,mouse_2.leftButton,mouse_2.midButton,mouse_2.rightButton,mouse_2.time,mouse_2.clicked_name,mouse.x,mouse.y,mouse.leftButton,mouse.midButton,mouse.rightButton,mouse.time,mouse.clicked_name,Choice,Trial,TrialDuration,MOUSE_GAZE,ET_GAZE,ET_GAZE_x_T,time,unixTime,ET_GAZE_NF,Loc_Option1_label,Loc_Option2_label,Loc_Cost_label,Loc_Qual_label,Loc_Option1_cost,Loc_Option2_cost,Loc_Option1_quality,Loc_Option2_quality,trials.thisRepN,trials.thisTrialN,trials.thisN,trials.thisIndex,trials.ran,Block,Device,cost1,qual1,cost2,qual2
space,1.4056,-0.076041667,-0.17037037,1,0,0,-0.670833333,-0.666666667,1,0,0,calibration_square,0,0,0,0,1,-0.67,-0.67,07,001,2024-12-02_17h57.54.020,Attention_exp_legacy,2023.1.0,Win32,59.88023952,,,,,,,,,,,,,,,,,,,,,,,,,,,,,,,,,,,,,,,,,,,,
,,,,,,,-0.328125,0.32962963,1,0,0,calibration_square,0,1,1,7,1,-0.33,0.33,07,001,2024-12-02_17h57.54.020,Attention_exp_legacy,2023.1.0,Win32,59.88023952,,,,,,,,,,,,,,,,,,,,,,,,,,,,,,,,,,,,,,,,,,,,
,,,,,,,0.336458333,-0.325925926,1,0,0,calibration_square,0,2,2,15,1,0.33,-0.33,07,001,2024-12-02_17h57.54.020,Attention_exp_legacy,2023.1.0,Win32,59.88023952,,,,,,,,,,,,,,,,,,,,,,,,,,,,,,,,,,,,,,,,,,,,
,,,,,,,0.323958333,-0.67037037,1,0,0,calibration_square,0,3,3,14,1,0.33,-0.67,07,001,2024-12-02_17h57.54.020,Attention_exp_legacy,2023.1.0,Win32,59.88023952,,,,,,,,,,,,,,,,,,,,,,,,,,,,,,,,,,,,,,,,,,,,
,,,,,,,0,-0.331481481,1,0,0,calibration_square,0,4,4,10,1,0,-0.33,07,001,2024-12-02_17h57.54.020,Attention_exp_legacy,2023.1.0,Win32,59.88023952,,,,,,,,,,,,,,,,,,,,,,,,,,,,,,,,,,,,,,,,,,,,
,,,,,,,-0.00625,0.338888889,1,0,0,calibration_square,0,5,5,12,1,0,0.33,07,001,2024-12-02_17h57.54.020,Attention_exp_legacy,2023.1.0,Win32,59.88023952,,,,,,,,,,,,,,,,,,,,,,,,,,,,,,,,,,,,,,,,,,,,
,,,,,,,-0.336458333,0.005555556,1,0,0,calibration_square,0,6,6,6,1,-0.33,0,07,001,2024-12-02_17h57.54.020,Attention_exp_legacy,2023.1.0,Win32,59.88023952,,,,,,,,,,,,,,,,,,,,,,,,,,,,,,,,,,,,,,,,,,,,
,,,,,,,0.6625,-0.662962963,1,0,0,calibration_square,0,7,7,20,1,0.67,-0.67,07,001,2024-12-02_17h57.54.020,Attention_exp_legacy,2023.1.0,Win32,59.88023952,,,,,,,,,,,,,,,,,,,,,,,,,,,,,,,,,,,,,,,,,,,,
,,,,,,,-0.672916667,0.001851852,1,0,0,calibration_square,0,8,8,2,1,-0.67,0,07,001,2024-12-02_17h57.54.020,Attention_exp_legacy,2023.1.0,Win32,59.88023952,,,,,,,,,,,,,,,,,,,,,,,,,,,,,,,,,,,,,,,,,,,,
,,,,,,,-0.329166667,-0.327777778,1,0,0,calibration_square,0,9,9,5,1,-0.33,-0.33,07,001,2024-12-02_17h57.54.020,Attention_exp_legacy,2023.1.0,Win32,59.88023952,,,,,,,,,,,,,,,,,,,,,,,,,,,,,,,,,,,,,,,,,,,,
,,,,,,,0.664583333,0.67037037,1,0,0,calibration_square,0,10,10,19,1,0.67,0.67,07,001,2024-12-02_17h57.54.020,Attention_exp_legacy,2023.1.0,Win32,59.88023952,,,,,,,,,,,,,,,,,,,,,,,,,,,,,,,,,,,,,,,,,,,,
,,,,,,,-0.011458333,-0.666666667,1,0,0,,0,11,11,9,1,0,-0.67,07,001,2024-12-02_17h57.54.020,Attention_exp_legacy,2023.1.0,Win32,59.88023952,,,,,,,,,,,,,,,,,,,,,,,,,,,,,,,,,,,,,,,,,,,,
,,,,,,,0.327083333,0.327777778,1,0,0,calibration_square,0,12,12,17,1,0.33,0.33,07,001,2024-12-02_17h57.54.020,Attention_exp_legacy,2023.1.0,Win32,59.88023952,,,,,,,,,,,,,,,,,,,,,,,,,,,,,,,,,,,,,,,,,,,,
,,,,,,,-0.325,-0.664814815,1,0,0,calibration_square,0,13,13,4,1,-0.33,-0.67,07,001,2024-12-02_17h57.54.020,Attention_exp_legacy,2023.1.0,Win32,59.88023952,,,,,,,,,,,,,,,,,,,,,,,,,,,,,,,,,,,,,,,,,,,,
,,,,,,,-0.675,-0.338888889,1,0,0,calibration_square,0,14,14,1,1,-0.67,-0.33,07,001,2024-12-02_17h57.54.020,Attention_exp_legacy,2023.1.0,Win32,59.88023952,,,,,,,,,,,,,,,,,,,,,,,,,,,,,,,,,,,,,,,,,,,,
,,,,,,,0.314583333,0.011111111,1,0,0,,0,15,15,16,1,0.33,0,07,001,2024-12-02_17h57.54.020,Attention_exp_legacy,2023.1.0,Win32,59.88023952,,,,,,,,,,,,,,,,,,,,,,,,,,,,,,,,,,,,,,,,,,,,
,,,,,,,-0.323958333,0.659259259,1,0,0,,0,16,16,8,1,-0.33,0.67,07,001,2024-12-02_17h57.54.020,Attention_exp_legacy,2023.1.0,Win32,59.88023952,,,,,,,,,,,,,,,,,,,,,,,,,,,,,,,,,,,,,,,,,,,,
,,,,,,,0.005208333,0.675925926,1,0,0,calibration_square,0,17,17,13,1,0,0.67,07,001,2024-12-02_17h57.54.020,Attention_exp_legacy,2023.1.0,Win32,59.88023952,,,,,,,,,,,,,,,,,,,,,,,,,,,,,,,,,,,,,,,,,,,,
,,,,,,,-0.669791667,0.325925926,1,0,0,calibration_square,0,18,18,3,1,-0.67,0.33,07,001,2024-12-02_17h57.54.020,Attention_exp_legacy,2023.1.0,Win32,59.88023952,,,,,,,,,,,,,,,,,,,,,,,,,,,,,,,,,,,,,,,,,,,,
,,,,,,,0.334375,0.668518519,1,0,0,calibration_square,0,19,19,18,1,0.33,0.67,07,001,2024-12-02_17h57.54.020,Attention_exp_legacy,2023.1.0,Win32,59.88023952,,,,,,,,,,,,,,,,,,,,,,,,,,,,,,,,,,,,,,,,,,,,
,,,,,,,0.004166667,0.012962963,1,0,0,,0,20,20,11,1,0,0,07,001,2024-12-02_17h57.54.020,Attention_exp_legacy,2023.1.0,Win32,59.88023952,,,,,,,,,,,,,,,,,,,,,,,,,,,,,,,,,,,,,,,,,,,,
,,,,,,,,,,,,,,,,,,,,07,001,2024-12-02_17h57.54.020,Attention_exp_legacy,2023.1.0,Win32,59.88023952,"[1920,1080]","[640,480]",[0.04895833333333333],[-0.4981481481481482],[1],[0],[0],[1.7628000000007447],"[""StartButton""]",[-0.015625],[0.32037037037037036],[1],[0],[0],[4.421300000000748],"[""Option1_label""]",Option1_label,1,5.4286,"[[0.03333333333333333,-0.26296296296296295],[0.03333333333333333,-0.26296296296296295],[0.03333333333333333,-0.26296296296296295],[0.03333333333333333,-0.26296296296296295],[0.03333333333333333,-0.26296296296296295],[0.03333333333333333,-0.26296296296296295],[0.03333333333333333,-0.26296296296296295],[0.03333333333333333,-0.26296296296296295],[0.03333333333333333,-0.26296296296296295],[0.03333333333333333,-0.26296296296296295],[0.03333333333333333,-0.26296296296296295],[0.03333333333333333,-0.26296296296296295],[0.03333333333333333,-0.26296296296296295],[0.03333333333333333,-0.26296296296296295],[0.03333333333333333,-0.26296296296296295],[0.03333333333333333,-0.26296296296296295],[0.03333333333333333,-0.26296296296296295],[0.03333333333333333,-0.26296296296296295],[0.03333333333333333,-0.26296296296296295],[0.03333333333333333,-0.26296296296296295],[0.03333333333333333,-0.26296296296296295],[0.03333333333333333,-0.26296296296296295],[0.03333333333333333,-0.26296296296296295],[0.03333333333333333,-0.26296296296296295],[0.03333333333333333,-0.26296296296296295],[0.03333333333333333,-0.26296296296296295],[0.03333333333333333,-0.26296296296296295],[0.03333333333333333,-0.26296296296296295],[0.03333333333333333,-0.26296296296296295],[0.03333333333333333,-0.26296296296296295],[0.03333333333333333,-0.26296296296296295],[0.03333333333333333,-0.26296296296296295],[0.03333333333333333,-0.26296296296296295],[0.03333333333333333,-0.26296296296296295],[0.03333333333333333,-0.26296296296296295],[0.03333333333333333,-0.26296296296296295],[0.03333333333333333,-0.26296296296296295],[0.03333333333333333,-0.26296296296296295],[0.03333333333333333,-0.26296296296296295],[0.03333333333333333,-0.26296296296296295],[0.03333333333333333,-0.26296296296296295],[0.03333333333333333,-0.26296296296296295],[0.03333333333333333,-0.26296296296296295],[0.03333333333333333,-0.26296296296296295],[0.03333333333333333,-0.26296296296296295],[0.03333333333333333,-0.26296296296296295],[0.03333333333333333,-0.26296296296296295],[0.03333333333333333,-0.26296296296296295],[0.03333333333333333,-0.26296296296296295],[0.03333333333333333,-0.26296296296296295],[0.03333333333333333,-0.26296296296296295],[0.03333333333333333,-0.26296296296296295],[0.03333333333333333,-0.26296296296296295],[0.03333333333333333,-0.26296296296296295],[0.03333333333333333,-0.26296296296296295],[0.03333333333333333,-0.26296296296296295],[0.03333333333333333,-0.26296296296296295],[0.03333333333333333,-0.26296296296296295],[0.03333333333333333,-0.26296296296296295],[0.03333333333333333,-0.26296296296296295],[0.03333333333333333,-0.26296296296296295],[0.03333333333333333,-0.26296296296296295],[0.03333333333333333,-0.26296296296296295],[0.03333333333333333,-0.26296296296296295],[0.03333333333333333,-0.25925925925925924],[0.03333333333333333,-0.2574074074074074],[0.034375,-0.25555555555555554],[0.034375,-0.25555555555555554],[0.034375,-0.25555555555555554],[0.034375,-0.25555555555555554],[0.034375,-0.25555555555555554],[0.034375,-0.25555555555555554],[0.034375,-0.25555555555555554],[0.034375,-0.25555555555555554],[0.034375,-0.25555555555555554],[0.034375,-0.25555555555555554],[0.034375,-0.25555555555555554],[0.034375,-0.25555555555555554],[0.034375,-0.25555555555555554],[0.034375,-0.25555555555555554],[0.034375,-0.25555555555555554],[0.034375,-0.25555555555555554],[0.034375,-0.25555555555555554],[0.034375,-0.25555555555555554],[0.034375,-0.25555555555555554],[0.034375,-0.25555555555555554],[0.034375,-0.25555555555555554],[0.034375,-0.25555555555555554],[0.034375,-0.25555555555555554],[0.034375,-0.25555555555555554],[0.034375,-0.25555555555555554],[0.034375,-0.25555555555555554],[0.034375,-0.25555555555555554],[0.034375,-0.25555555555555554],[0.034375,-0.25555555555555554],[0.034375,-0.25555555555555554],[0.034375,-0.25555555555555554],[0.034375,-0.25555555555555554],[0.034375,-0.25555555555555554],[0.035416666666666666,-0.2537037037037037],[0.035416666666666666,-0.2518518518518518],[0.036458333333333336,-0.25],[0.036458333333333336,-0.24814814814814815],[0.0375,-0.24444444444444444],[0.0375,-0.24259259259259258],[0.0375,-0.2388888888888889],[0.0375,-0.23148148148148148],[0.03854166666666667,-0.2222222222222222],[0.042708333333333334,-0.2111111111111111],[0.04895833333333333,-0.2],[0.059375,-0.18518518518518517],[0.071875,-0.16666666666666666],[0.08958333333333333,-0.14814814814814814],[0.10416666666666667,-0.12222222222222222],[0.11875,-0.08518518518518518],[0.13958333333333334,-0.027777777777777776],[0.15208333333333332,0.005555555555555556],[0.16145833333333334,0.03148148148148148],[0.17083333333333334,0.053703703703703705],[0.17708333333333334,0.07407407407407407],[0.18541666666666667,0.09259259259259259],[0.19166666666666668,0.1111111111111111],[0.196875,0.12037037037037036],[0.203125,0.13333333333333333],[0.20416666666666666,0.13703703703703704],[0.20833333333333334,0.1425925925925926],[0.21666666666666667,0.14814814814814814],[0.21979166666666666,0.15],[0.22291666666666668,0.15185185185185185],[0.23125,0.15555555555555556],[0.24791666666666667,0.1574074074074074],[0.2677083333333333,0.1574074074074074],[0.2875,0.1574074074074074],[0.3104166666666667,0.1574074074074074],[0.3302083333333333,0.1574074074074074],[0.34791666666666665,0.1574074074074074],[0.36041666666666666,0.1574074074074074],[0.371875,0.1574074074074074],[0.3802083333333333,0.1574074074074074],[0.38645833333333335,0.1574074074074074],[0.3927083333333333,0.1574074074074074],[0.3958333333333333,0.1574074074074074],[0.396875,0.1574074074074074],[0.396875,0.1574074074074074],[0.396875,0.1574074074074074],[0.396875,0.1574074074074074],[0.396875,0.1574074074074074],[0.396875,0.1574074074074074],[0.396875,0.1574074074074074],[0.3958333333333333,0.15555555555555556],[0.38958333333333334,0.1388888888888889],[0.37916666666666665,0.12222222222222222],[0.34791666666666665,0.09259259259259259],[0.33541666666666664,0.08333333333333333],[0.284375,0.05185185185185185],[0.23645833333333333,0.03333333333333333],[0.190625,0.016666666666666666],[0.146875,0.003703703703703704],[0.10625,-0.009259259259259259],[0.07395833333333333,-0.022222222222222223],[0.041666666666666664,-0.040740740740740744],[0.011458333333333333,-0.05185185185185185],[-0.015625,-0.06666666666666667],[-0.03854166666666667,-0.07592592592592592],[-0.05416666666666667,-0.08148148148148149],[-0.06458333333333334,-0.08333333333333333],[-0.071875,-0.08518518518518518],[-0.07291666666666667,-0.08518518518518518],[-0.07291666666666667,-0.08518518518518518],[-0.07291666666666667,-0.08518518518518518],[-0.07291666666666667,-0.08518518518518518],[-0.07291666666666667,-0.08518518518518518],[-0.07291666666666667,-0.08518518518518518],[-0.07291666666666667,-0.08518518518518518],[-0.07291666666666667,-0.08518518518518518],[-0.07291666666666667,-0.08518518518518518],[-0.07291666666666667,-0.08518518518518518],[-0.07291666666666667,-0.08518518518518518],[-0.07291666666666667,-0.08518518518518518],[-0.07291666666666667,-0.08518518518518518],[-0.07291666666666667,-0.08518518518518518],[-0.07395833333333333,-0.08518518518518518],[-0.07395833333333333,-0.08148148148148149],[-0.07395833333333333,-0.07777777777777778],[-0.07291666666666667,-0.07407407407407407],[-0.071875,-0.06851851851851852],[-0.07083333333333333,-0.06481481481481481],[-0.06979166666666667,-0.05925925925925926],[-0.06770833333333333,-0.04814814814814815],[-0.065625,-0.044444444444444446],[-0.06458333333333334,-0.03888888888888889],[-0.06354166666666666,-0.03333333333333333],[-0.0625,-0.027777777777777776],[-0.06145833333333333,-0.024074074074074074],[-0.06145833333333333,-0.024074074074074074],[-0.06145833333333333,-0.024074074074074074],[-0.06145833333333333,-0.024074074074074074],[-0.06145833333333333,-0.024074074074074074],[-0.06145833333333333,-0.024074074074074074],[-0.06145833333333333,-0.024074074074074074],[-0.06145833333333333,-0.024074074074074074],[-0.06145833333333333,-0.022222222222222223],[-0.06145833333333333,-0.022222222222222223],[-0.06145833333333333,-0.022222222222222223],[-0.06145833333333333,-0.020370370370370372],[-0.06145833333333333,-0.018518518518518517],[-0.06041666666666667,-0.016666666666666666],[-0.06041666666666667,-0.016666666666666666],[-0.059375,-0.014814814814814815],[-0.057291666666666664,-0.011111111111111112],[-0.05,0.005555555555555556],[-0.0375,0.05740740740740741],[-0.016666666666666666,0.18703703703703703],[-0.0010416666666666667,0.31666666666666665],[0.00625,0.42592592592592593],[0.00625,0.48333333333333334],[0.00625,0.5018518518518519],[0.004166666666666667,0.5074074074074074],[0.004166666666666667,0.5111111111111111],[0.004166666666666667,0.5111111111111111],[0.004166666666666667,0.5111111111111111],[0.004166666666666667,0.5111111111111111],[0.004166666666666667,0.5111111111111111],[0.004166666666666667,0.5111111111111111],[0.003125,0.5111111111111111],[0.003125,0.5111111111111111],[0.0010416666666666667,0.5074074074074074],[-0.0020833333333333333,0.4925925925925926],[-0.00625,0.4740740740740741],[-0.007291666666666667,0.45185185185185184],[-0.011458333333333333,0.4203703703703704],[-0.016666666666666666,0.387037037037037],[-0.021875,0.35555555555555557],[-0.023958333333333335,0.34074074074074073],[-0.023958333333333335,0.3388888888888889],[-0.023958333333333335,0.3388888888888889],[-0.025,0.3351851851851852],[-0.025,0.3351851851851852],[-0.025,0.3351851851851852],[-0.025,0.3351851851851852],[-0.025,0.3351851851851852],[-0.025,0.3351851851851852],[-0.025,0.3351851851851852],[-0.025,0.3351851851851852],[-0.025,0.3351851851851852],[-0.025,0.3351851851851852],[-0.025,0.3351851851851852],[-0.025,0.3351851851851852],[-0.025,0.3351851851851852],[-0.025,0.3333333333333333],[-0.025,0.3277777777777778],[-0.021875,0.32037037037037036],[-0.021875,0.32037037037037036],[-0.019791666666666666,0.32037037037037036],[-0.01875,0.32037037037037036],[-0.01875,0.32037037037037036],[-0.01875,0.32037037037037036],[-0.01875,0.32037037037037036],[-0.01875,0.32037037037037036],[-0.01875,0.32037037037037036],[-0.016666666666666666,0.32037037037037036],[-0.015625,0.32037037037037036],[-0.015625,0.32037037037037036],[-0.015625,0.32037037037037036],[-0.015625,0.32037037037037036],[-0.015625,0.32037037037037036],[-0.015625,0.32037037037037036],[-0.015625,0.32037037037037036],[-0.015625,0.32037037037037036],[-0.015625,0.32037037037037036],[-0.015625,0.32037037037037036],[-0.015625,0.32037037037037036],[-0.015625,0.32037037037037036],[-0.015625,0.32037037037037036],[-0.015625,0.32037037037037036],[-0.015625,0.32037037037037036],[-0.015625,0.32037037037037036],[-0.015625,0.32037037037037036],[-0.015625,0.32037037037037036],[-0.015625,0.32037037037037036],[-0.015625,0.32037037037037036],[-0.015625,0.32037037037037036],[-0.015625,0.32037037037037036],[-0.015625,0.32037037037037036],[-0.015625,0.32037037037037036],[-0.015625,0.32037037037037036],[-0.015625,0.32037037037037036],[-0.015625,0.32037037037037036],[-0.015625,0.32037037037037036],[-0.015625,0.32037037037037036],[-0.015625,0.32037037037037036],[-0.015625,0.32037037037037036],[-0.015625,0.32037037037037036],[-0.015625,0.32037037037037036],[-0.015625,0.32037037037037036],[-0.015625,0.32037037037037036],[-0.015625,0.32037037037037036],[-0.015625,0.32037037037037036],[-0.015625,0.32037037037037036],[-0.015625,0.32037037037037036],[-0.015625,0.32037037037037036],[-0.015625,0.32037037037037036],[-0.015625,0.32037037037037036],[-0.015625,0.32037037037037036],[-0.015625,0.32037037037037036],[-0.015625,0.32037037037037036],[-0.015625,0.32037037037037036],[-0.015625,0.32037037037037036],[-0.015625,0.32037037037037036],[-0.015625,0.32037037037037036],[-0.015625,0.32037037037037036],[-0.015625,0.32037037037037036],[-0.015625,0.32037037037037036],[-0.015625,0.32037037037037036],[-0.015625,0.32037037037037036],[-0.015625,0.32037037037037036],[-0.015625,0.32037037037037036],[-0.015625,0.32037037037037036],[-0.015625,0.32037037037037036],[-0.015625,0.32037037037037036],[-0.015625,0.32037037037037036],[-0.015625,0.32037037037037036],[-0.015625,0.32037037037037036],[-0.015625,0.32037037037037036],[-0.015625,0.32037037037037036],[-0.015625,0.32037037037037036]]","[[0.19927083333333329,0.5637037037037037],[0.19927083333333329,0.5637037037037037],[0.20885416666666667,0.5918518518518519],[0.19739583333333333,0.6005555555555555],[0.16666666666666666,0.6064814814814815],[0.21447916666666675,0.6844444444444445],[0.2582291666666668,0.7614814814814815],[0.2982291666666666,0.8703703703703703],[0.29093749999999996,0.8712962962962963],[0.3104166666666667,0.8898148148148148],[0.3296875,0.8862962962962964],[0.3637500000000001,0.8142592592592593],[0.4018749999999999,0.7781481481481483],[0.42916666666666664,0.7677777777777778],[0.47416666666666674,0.7781481481481483],[0.48291666666666655,0.7053703703703703],[0.49583333333333335,0.6579629629629629],[0.4864583333333333,0.5605555555555556],[0.5089583333333333,0.505925925925926],[0.5319791666666667,0.45259259259259255],[0.5585416666666667,0.3990740740740741],[0.5807291666666666,0.37592592592592594],[0.6076041666666666,0.37703703703703706],[0.6648958333333332,0.39018518518518525],[0.7044791666666667,0.38259259259259265],[0.7262500000000001,0.41500000000000004],[0.7438541666666666,0.422037037037037],[0.8103125000000001,0.4420370370370371],[0.8441666666666667,0.4740740740740741],[0.790625,0.4607407407407407],[0.7171875,0.44537037037037036],[0.6939583333333333,0.46055555555555566],[0.6660416666666668,0.4514814814814814],[0.634375,0.4024074074074073],[0.6044791666666666,0.36666666666666664],[0.5197916666666667,0.2598148148148147],[0.4670833333333334,0.1705555555555556],[0.3692708333333333,0.04796296296296292],[0.2852083333333333,-0.07537037037037035],[0.29802083333333323,-0.08888888888888889],[0.29802083333333323,-0.08888888888888889],[0.2933333333333332,-0.10888888888888891],[0.2384375000000001,-0.1594444444444445],[0.2140625,-0.22259259259259256],[0.15270833333333325,-0.26500000000000007],[0.10802083333333339,-0.3322222222222222],[0.1502083333333334,-0.31851851851851853],[0.16041666666666668,-0.3224074074074075],[0.19270833333333334,-0.2770370370370371],[0.19270833333333334,-0.2770370370370371],[0.22947916666666662,-0.24537037037037038],[0.23895833333333344,-0.24592592592592594],[0.27291666666666664,-0.2522222222222222],[0.2860416666666666,-0.20833333333333334],[0.2630208333333333,-0.14425925925925923],[0.31572916666666656,-0.06648148148148143],[0.35,0.022777777777777692],[0.32937500000000003,0.05222222222222231],[0.3008333333333333,0.08203703703703695],[0.30479166666666657,0.09129629629629621],[0.2938541666666666,0.13555555555555565],[0.2938541666666666,0.13555555555555565],[0.30052083333333335,0.11462962962962958],[0.3077083333333334,0.13444444444444448],[0.33572916666666663,0.10407407407407415],[0.3415625000000001,0.0837037037037038],[0.30583333333333323,0.05592592592592601],[0.27010416666666665,0.02814814814814823],[0.25729166666666664,0.02555555555555547],[0.25239583333333326,0.022592592592592678],[0.21489583333333329,0.03722222222222227],[0.18781249999999997,0.030555555555555555],[0.1609375,0.05685185185185194],[0.1306250000000001,0.06444444444444436],[0.09281249999999991,0.058703703703703786],[0.09281249999999991,0.058703703703703786],[0.10791666666666658,0.049074074074074076],[0.10791666666666658,0.049074074074074076],[0.12666666666666657,0.06185185185185181],[0.12666666666666657,0.06185185185185181],[0.14718749999999994,0.07111111111111107],[0.14718749999999994,0.07111111111111107],[0.1759375000000001,0.06611111111111119],[0.20697916666666671,0.051111111111111156],[0.20697916666666671,0.051111111111111156],[0.2381249999999999,0.039074074074074115],[0.2381249999999999,0.039074074074074115],[0.2960416666666667,0.03611111111111111],[0.31270833333333337,0.05537037037037033],[0.3553124999999999,0.040370370370370286],[0.4054166666666667,0.038703703703703664],[0.3932291666666667,0.02388888888888885],[0.3993750000000001,-0.011296296296296339],[0.39166666666666666,-0.05259259259259255],[0.36385416666666665,-0.0764814814814815],[0.3337500000000001,-0.09037037037037039],[0.30364583333333334,-0.10425925925925927],[0.3223958333333333,-0.1316666666666667],[0.36916666666666675,-0.1955555555555556],[0.3375,-0.2044444444444444],[0.2921875,-0.16259259259259262],[0.29625000000000007,-0.14981481481481476],[0.2952083333333334,-0.13648148148148145],[0.2931250000000001,-0.11296296296296296],[0.2931250000000001,-0.11296296296296296],[0.2867708333333333,-0.08425925925925926],[0.28666666666666674,-0.06314814814814819],[0.29666666666666663,-0.04592592592592584],[0.21531250000000005,0.005185185185185101],[0.21531250000000005,0.005185185185185101],[0.16333333333333327,0.056666666666666705],[0.15885416666666666,0.0698148148148149],[0.14739583333333334,0.07981481481481485],[0.13937499999999994,0.11370370370370367],[0.13645833333333332,0.1675925925925926],[0.13239583333333324,0.1794444444444444],[0.13468749999999996,0.20907407407407402],[0.13072916666666667,0.2462962962962963],[0.13072916666666667,0.2462962962962963],[0.13083333333333325,0.2788888888888889],[0.1466666666666666,0.282037037037037],[0.12333333333333343,0.3037037037037037],[0.12333333333333343,0.29222222222222216],[0.0978125000000001,0.2777777777777778],[0.0978125000000001,0.2777777777777778],[0.06041666666666667,0.26481481481481484],[0.04614583333333329,0.2116666666666666],[0.04750000000000002,0.21333333333333343],[0.04750000000000002,0.21333333333333343],[0.058541666666666714,0.19277777777777783],[0.06697916666666662,0.1337037037037038],[0.06479166666666672,0.11851851851851852],[0.0626041666666667,0.10333333333333325],[0.08572916666666662,0.07851851851851847],[0.08645833333333333,0.09462962962962967],[0.13156249999999994,0.028518518518518478],[0.13156249999999994,0.028518518518518478],[0.1775000000000001,-0.004814814814814857],[0.19375,-0.04388888888888897],[0.203125,-0.08740740740740739],[0.21124999999999997,-0.1316666666666667],[0.21124999999999997,-0.1316666666666667],[0.22197916666666656,-0.1374074074074074],[0.22197916666666656,-0.1374074074074074],[0.21604166666666677,-0.19166666666666668],[0.1955208333333334,-0.2235185185185185],[0.1727083333333333,-0.25037037037037035],[0.1349999999999999,-0.2933333333333333],[0.0990624999999999,-0.29870370370370375],[0.03895833333333331,-0.3122222222222223],[0.04697916666666669,-0.2887037037037037],[0.05666666666666664,-0.26351851851851854],[0.06760416666666676,-0.2375925925925926],[0.06760416666666676,-0.2375925925925926],[0.07374999999999995,-0.202962962962963],[0.071875,-0.17907407407407405],[0.08458333333333339,-0.17759259259259255],[0.10239583333333328,-0.17925925925925928],[0.13510416666666672,-0.1648148148148148],[0.1837500000000001,-0.11870370370370374],[0.23552083333333323,-0.10055555555555558],[0.21729166666666658,-0.10111111111111115],[0.2029166666666666,-0.11222222222222226],[0.16302083333333334,-0.08814814814814818],[0.16302083333333334,-0.08814814814814818],[0.11645833333333329,-0.07537037037037035],[0.10645833333333338,-0.06370370370370367],[0.09645833333333324,-0.052037037037037076],[0.08135416666666657,-0.03722222222222227],[0.06447916666666664,-0.01796296296296305],[0.04479166666666667,-0.018148148148148063],[0.011666666666666714,-0.02759259259259255],[-0.00791666666666669,-0.007407407407407408],[-0.03322916666666664,-0.006666666666666709],[-0.010520833333333358,-0.0338888888888888],[-0.007083333333333286,-0.05129629629629638],[-0.01906249999999995,-0.043703703703703745],[-0.035000000000000024,-0.020740740740740823],[-0.050937499999999976,0.0022222222222223064],[-0.05687500000000002,-0.01314814814814819],[-0.07593749999999998,-0.040740740740740744],[-0.0626041666666667,-0.03777777777777774],[-0.07177083333333331,-0.03333333333333333],[-0.07520833333333338,-0.021296296296296296],[-0.10114583333333335,-0.01648148148148144],[-0.07520833333333338,-0.020185185185185143],[-0.058333333333333334,-0.011296296296296339],[-0.0375,-0.01777777777777782],[-0.0067708333333333336,-0.026111111111111154],[-0.005520833333333286,-0.0016666666666666245],[0.007500000000000047,0.03796296296296296],[0.025416666666666643,0.06537037037037029],[0.0453125,0.07962962962962963],[0.0484375,0.0955555555555556],[0.0515625,0.11148148148148157],[0.0515625,0.11148148148148157],[0.03604166666666669,0.13111111111111104],[0.03604166666666669,0.13111111111111104],[0.041666666666666664,0.1507407407407407],[0.041666666666666664,0.1507407407407407],[0.04770833333333328,0.1655555555555555],[0.04770833333333328,0.1655555555555555],[0.03802083333333333,0.16111111111111112],[0.03802083333333333,0.16111111111111112],[0.07354166666666657,0.17037037037037037],[0.07354166666666657,0.17037037037037037],[0.06239583333333331,0.14629629629629629],[0.014583333333333334,0.11500000000000005],[-0.03322916666666664,0.0837037037037038],[-0.025937499999999978,0.06481481481481481],[-0.002916666666666619,0.0588888888888888],[0.017604166666666643,0.05055555555555547],[0.00927083333333331,0.015555555555555513],[0.0034374999999999527,0.006111111111111027],[-0.009583333333333381,-0.007592592592592635],[-0.05572916666666667,-0.034444444444444486],[-0.07406250000000002,-0.0544444444444444],[0.018229166666666668,-0.05462962962962963],[0.09385416666666657,-0.06462962962962959],[0.08937499999999995,-0.0824074074074074],[0.06916666666666677,-0.11314814814814819],[0.05541666666666671,-0.12129629629629629],[0.09937500000000009,-0.12037037037037036],[0.09583333333333334,-0.16148148148148145],[0.11291666666666676,-0.18870370370370365],[0.11291666666666676,-0.18870370370370365],[0.11864583333333342,-0.19740740740740745],[0.11864583333333342,-0.19740740740740745],[0.12552083333333333,-0.18074074074074079],[0.06677083333333324,-0.22537037037037036],[0.024687500000000046,-0.2601851851851852],[0.005312500000000024,-0.24296296296296294],[0.009687499999999953,-0.23703703703703705],[0.014895833333333285,-0.2505555555555556],[-0.030520833333333285,-0.26666666666666666],[-0.0359375,-0.2675925925925926],[-0.049791666666666616,-0.2809259259259259],[-0.04072916666666669,-0.29314814814814816],[-0.019479166666666714,-0.34],[-0.01395833333333331,-0.34074074074074073],[-0.008437500000000023,-0.34148148148148144],[0.002916666666666619,-0.36074074074074075],[-0.00947916666666669,-0.36870370370370376],[-0.019583333333333286,-0.3907407407407407],[-0.022395833333333334,-0.40555555555555556],[-0.010000000000000024,-0.3737037037037037],[0.0032291666666666905,-0.31796296296296295],[-0.0037500000000000237,-0.29444444444444445],[-0.016979166666666618,-0.25037037037037035],[-0.0421875,-0.20629629629629626],[-0.0484375,-0.1853703703703704],[-0.03999999999999997,-0.17074074074074072],[-0.03156249999999995,-0.15611111111111114],[-0.044270833333333336,-0.16722222222222224],[-0.043958333333333384,-0.1618518518518518],[-0.041458333333333285,-0.1844444444444445],[-0.03895833333333331,-0.20703703703703705],[-0.02947916666666662,-0.23166666666666672],[-0.02000000000000005,-0.25629629629629624],[0.01083333333333331,-0.2512962962962963],[0.006562499999999953,-0.2627777777777777],[0.005937500000000048,-0.2833333333333333],[0.01083333333333331,-0.28185185185185185],[0.027291666666666714,-0.24370370370370376],[0.03312499999999995,-0.22166666666666665],[0.01864583333333331,-0.19240740740740736],[0.011979166666666667,-0.1542592592592593],[0.03166666666666664,-0.14148148148148143],[0.05135416666666662,-0.1287037037037037],[0.06447916666666664,-0.1346296296296296],[0.09375,-0.10092592592592593],[0.090625,-0.10203703703703708],[0.08197916666666671,-0.12518518518518523],[0.08114583333333343,-0.14740740740740746],[0.07374999999999995,-0.16351851851851854],[0.0740624999999999,-0.20685185185185184],[0.06656249999999998,-0.259074074074074],[0.05166666666666669,-0.28166666666666673],[0.05291666666666662,-0.31055555555555553],[0.044062499999999956,-0.33907407407407414],[0.035208333333333286,-0.3675925925925926],[0.035520833333333356,-0.3727777777777778],[0.03583333333333331,-0.377962962962963],[0.03583333333333331,-0.377962962962963],[0.02177083333333331,-0.3809259259259259],[0.00927083333333331,-0.3774074074074074],[0.013437499999999976,-0.3672222222222222],[0.017604166666666643,-0.35703703703703704],[0.013645833333333357,-0.3359259259259259],[0.01572916666666669,-0.2898148148148148],[0.02510416666666669,-0.255],[0.057291666666666664,-0.1940740740740741],[0.10812499999999996,-0.13240740740740742],[0.13333333333333333,-0.05388888888888893],[0.17833333333333337,0.0035185185185184764],[0.2303124999999999,0.039074074074074115],[0.24114583333333334,0.09148148148148144],[0.25010416666666657,0.14370370370370375],[0.25906250000000003,0.19592592592592584],[0.2568749999999999,0.2168518518518519],[0.2635416666666667,0.24814814814814815],[0.2594791666666666,0.25833333333333336],[0.24354166666666663,0.2514814814814814],[0.23302083333333337,0.23296296296296287],[0.20364583333333333,0.23259259259259263],[0.20281250000000003,0.2272222222222223],[0.22625000000000003,0.20574074074074078],[0.24291666666666673,0.15500000000000008],[0.26895833333333335,0.15703703703703695],[0.28395833333333326,0.17166666666666675],[0.3026041666666667,0.15833333333333333],[0.30916666666666665,0.14000000000000004],[0.32708333333333334,0.1368518518518518],[0.3492708333333333,0.12166666666666676],[0.37562499999999993,0.10629629629629625],[0.37562499999999993,0.10629629629629625],[0.3841666666666666,0.12222222222222222],[0.3876041666666666,0.13351851851851856],[0.3876041666666666,0.13351851851851856],[0.3902083333333332,0.1544444444444444],[0.3902083333333332,0.1544444444444444],[0.37374999999999997,0.11648148148148144],[0.37374999999999997,0.11648148148148144],[0.32927083333333323,0.0824074074074074],[0.28572916666666665,0.09833333333333337],[0.28572916666666665,0.09833333333333337]]","[[0.19927083333333329,0.5637037037037037,0.000300000000741818],[0.19927083333333329,0.5637037037037037,0.04119999999925028],[0.20885416666666667,0.5918518518518519,0.048600000001485455],[0.19739583333333333,0.6005555555555555,0.062300000000746536],[0.16666666666666666,0.6064814814814815,0.07830000000074477],[0.21447916666666675,0.6844444444444445,0.09499999999999886],[0.2582291666666668,0.7614814814814815,0.11160000000148784],[0.2982291666666666,0.8703703703703703,0.12830000000074193],[0.29093749999999996,0.8712962962962963,0.1449000000022309],[0.3104166666666667,0.8898148148148148,0.1616999999992501],[0.3296875,0.8862962962962964,0.1783000000007462],[0.3637500000000001,0.8142592592592593,0.19519999999925375],[0.4018749999999999,0.7781481481481483,0.21180000000074273],[0.42916666666666664,0.7677777777777778,0.22830000000074335],[0.47416666666666674,0.7781481481481483,0.2486000000014883],[0.48291666666666655,0.7053703703703703,0.2624000000022306],[0.49583333333333335,0.6579629629629629,0.2783000000007405],[0.4864583333333333,0.5605555555555556,0.2950000000000017],[0.5089583333333333,0.505925925925926,0.3119999999999976],[0.5319791666666667,0.45259259259259255,0.3283000000007448],[0.5585416666666667,0.3990740740740741,0.3456999999992547],[0.5807291666666666,0.37592592592592594,0.36219999999925534],[0.6076041666666666,0.37703703703703706,0.37830000000074193],[0.6648958333333332,0.39018518518518525,0.394999999999996],[0.7044791666666667,0.38259259259259265,0.4116999999992501],[0.7262500000000001,0.41500000000000004,0.43069999999925557],[0.7438541666666666,0.422037037037037,0.44549999999999557],[0.8103125000000001,0.4420370370370371,0.4616999999992544],[0.8441666666666667,0.4740740740740741,0.47830000000074335],[0.790625,0.4607407407407407,0.49499999999999744],[0.7171875,0.44537037037037036,0.5116000000014864],[0.6939583333333333,0.46055555555555566,0.5283000000007405],[0.6660416666666668,0.4514814814814814,0.545499999999997],[0.634375,0.4024074074074073,0.5616000000014907],[0.6044791666666666,0.36666666666666664,0.5783000000007448],[0.5197916666666667,0.2598148148148147,0.5949999999999989],[0.4670833333333334,0.1705555555555556,0.6118000000007413],[0.3692708333333333,0.04796296296296292,0.6296000000014885],[0.2852083333333333,-0.07537037037037035,0.6469999999999985],[0.29802083333333323,-0.08888888888888889,0.6661999999992503],[0.29802083333333323,-0.08888888888888889,0.6783000000007462],[0.2933333333333332,-0.10888888888888891,0.6951999999992537],[0.2384375000000001,-0.1594444444444445,0.7116999999992544],[0.2140625,-0.22259259259259256,0.7283000000007434],[0.15270833333333325,-0.26500000000000007,0.7451000000014858],[0.10802083333333339,-0.3322222222222222,0.7618000000007399],[0.1502083333333334,-0.31851851851851853,0.7786999999992545],[0.16041666666666668,-0.3224074074074075,0.7950000000000017],[0.19270833333333334,-0.2770370370370371,0.8116999999992558],[0.19270833333333334,-0.2770370370370371,0.8284000000022331],[0.22947916666666662,-0.24537037037037038,0.8449999999999989],[0.23895833333333344,-0.24592592592592594,0.8619000000022368],[0.27291666666666664,-0.2522222222222222,0.8784000000022303],[0.2860416666666666,-0.20833333333333334,0.894999999999996],[0.2630208333333333,-0.14425925925925923,0.9116999999992501],[0.31572916666666656,-0.06648148148148143,0.9283000000007462],[0.35,0.022777777777777692,0.9451999999992537],[0.32937500000000003,0.05222222222222231,0.9616999999992544],[0.3008333333333333,0.08203703703703695,0.9783000000007434],[0.30479166666666657,0.09129629629629621,0.9949999999999974],[0.2938541666666666,0.13555555555555565,1.0116000000014864],[0.2938541666666666,0.13555555555555565,1.0286000000014894],[0.30052083333333335,0.11462962962962958,1.04510000000149],[0.3077083333333334,0.13444444444444448,1.062199999999251],[0.33572916666666663,0.10407407407407415,1.0820000000000007],[0.3415625000000001,0.0837037037037038,1.0983000000007408],[0.30583333333333323,0.05592592592592601,1.1151000000014903],[0.27010416666666665,0.02814814814814823,1.1299000000022303],[0.25729166666666664,0.02555555555555547,1.1488000000007403],[0.25239583333333326,0.022592592592592678,1.161900000002234],[0.21489583333333329,0.03722222222222227,1.1784000000022345],[0.18781249999999997,0.030555555555555555,1.1950000000000003],[0.1609375,0.05685185185185194,1.2116000000014893],[0.1306250000000001,0.06444444444444436,1.2284000000022317],[0.09281249999999991,0.058703703703703786,1.2458000000007416],[0.09281249999999991,0.058703703703703786,1.2616999999992515],[0.10791666666666658,0.049074074074074076,1.2783000000007405],[0.10791666666666658,0.049074074074074076,1.2950000000000017],[0.12666666666666657,0.06185185185185181,1.3116000000014907],[0.12666666666666657,0.06185185185185181,1.3284999999999982],[0.14718749999999994,0.07111111111111107,1.3451000000014872],[0.14718749999999994,0.07111111111111107,1.3618000000007413],[0.1759375000000001,0.06611111111111119,1.378300000000742],[0.20697916666666671,0.051111111111111156,1.400199999999252],[0.20697916666666671,0.051111111111111156,1.411600000001485],[0.2381249999999999,0.039074074074074115,1.4283000000007462],[0.2381249999999999,0.039074074074074115,1.445600000001491],[0.2960416666666667,0.03611111111111111,1.4618000000007427],[0.31270833333333337,0.05537037037037033,1.4786000000014852],[0.3553124999999999,0.040370370370370286,1.4949999999999974],[0.4054166666666667,0.038703703703703664,1.5118000000007399],[0.3932291666666667,0.02388888888888885,1.5286999999992545],[0.3993750000000001,-0.011296296296296339,1.5494999999999948],[0.39166666666666666,-0.05259259259259255,1.5651999999992512],[0.36385416666666665,-0.0764814814814815,1.57880000000074],[0.3337500000000001,-0.09037037037037039,1.5949999999999989],[0.30364583333333334,-0.10425925925925927,1.611699999999253],[0.3223958333333333,-0.1316666666666667,1.6314000000022304],[0.36916666666666675,-0.1955555555555556,1.6481999999992496],[0.3375,-0.2044444444444444,1.6666000000014876],[0.2921875,-0.16259259259259262,1.681999999999995],[0.29625000000000007,-0.14981481481481476,1.6984999999999957],[0.2952083333333334,-0.13648148148148145,1.7131000000014893],[0.2931250000000001,-0.11296296296296296,1.7346999999992505],[0.2931250000000001,-0.11296296296296296,1.745199999999251],[0.2867708333333333,-0.08425925925925926,1.762199999999254],[0.28666666666666674,-0.06314814814814819,1.7791000000014918],[0.29666666666666663,-0.04592592592592584,1.7996999999992553],[0.21531250000000005,0.005185185185185101,1.8171999999992536],[0.21531250000000005,0.005185185185185101,1.8286000000014866],[0.16333333333333327,0.056666666666666705,1.8451999999992523],[0.15885416666666666,0.0698148148148149,1.8651999999992555],[0.14739583333333334,0.07981481481481485,1.8784999999999954],[0.13937499999999994,0.11370370370370367,1.895300000000745],[0.13645833333333332,0.1675925925925926,1.915699999999255],[0.13239583333333324,0.1794444444444444,1.9311000000014857],[0.13468749999999996,0.20907407407407402,1.9483000000007422],[0.13072916666666667,0.2462962962962963,1.9679000000022313],[0.13072916666666667,0.2462962962962963,1.9783000000007434],[0.13083333333333325,0.2788888888888889,1.9954000000022347],[0.1466666666666666,0.282037037037037,2.0116999999992515],[0.12333333333333343,0.3037037037037037,2.033300000000743],[0.12333333333333343,0.29222222222222216,2.0496999999992553],[0.0978125000000001,0.2777777777777778,2.067],[0.0978125000000001,0.2777777777777778,2.078400000002233],[0.06041666666666667,0.26481481481481484,2.098800000000743],[0.04614583333333329,0.2116666666666666,2.114900000002237],[0.04750000000000002,0.21333333333333343,2.1311999999992537],[0.04750000000000002,0.21333333333333343,2.1451999999992566],[0.058541666666666714,0.19277777777777783,2.1654000000022364],[0.06697916666666662,0.1337037037037038,2.1798000000007463],[0.06479166666666672,0.11851851851851852,2.1980000000000004],[0.0626041666666667,0.10333333333333325,2.216000000000001],[0.08572916666666662,0.07851851851851847,2.2325000000000017],[0.08645833333333333,0.09462962962962967,2.2498000000007465],[0.13156249999999994,0.028518518518518478,2.2683000000007425],[0.13156249999999994,0.028518518518518478,2.278400000002236],[0.1775000000000001,-0.004814814814814857,2.295199999999255],[0.19375,-0.04388888888888897,2.311800000000744],[0.203125,-0.08740740740740739,2.3323000000007426],[0.21124999999999997,-0.1316666666666667,2.3511999999992526],[0.21124999999999997,-0.1316666666666667,2.3684999999999974],[0.22197916666666656,-0.1374074074074074,2.384300000000742],[0.22197916666666656,-0.1374074074074074,2.394900000002231],[0.21604166666666677,-0.19166666666666668,2.411600000001485],[0.1955208333333334,-0.2235185185185185,2.428300000000746],[0.1727083333333333,-0.25037037037037035,2.4451000000014886],[0.1349999999999999,-0.2933333333333333,2.4616000000014893],[0.0990624999999999,-0.29870370370370375,2.4783000000007434],[0.03895833333333331,-0.3122222222222223,2.4985],[0.04697916666666669,-0.2887037037037037,2.51180000000074],[0.05666666666666664,-0.26351851851851854,2.528500000000001],[0.06760416666666676,-0.2375925925925926,2.550600000001488],[0.06760416666666676,-0.2375925925925926,2.5619000000022325],[0.07374999999999995,-0.202962962962963,2.578400000002233],[0.071875,-0.17907407407407405,2.5951999999992523],[0.08458333333333339,-0.17759259259259255,2.6151999999992555],[0.10239583333333328,-0.17925925925925928,2.6289000000022327],[0.13510416666666672,-0.1648148148148148,2.6451999999992566],[0.1837500000000001,-0.11870370370370374,2.6646999999992502],[0.23552083333333323,-0.10055555555555558,2.6784999999999997],[0.21729166666666658,-0.10111111111111115,2.6954999999999956],[0.2029166666666666,-0.11222222222222226,2.7151999999992498],[0.16302083333333334,-0.08814814814814818,2.728499999999997],[0.16302083333333334,-0.08814814814814818,2.7454000000022347],[0.11645833333333329,-0.07537037037037035,2.7656999999992564],[0.10645833333333338,-0.06370370370370367,2.779100000001492],[0.09645833333333324,-0.052037037037037076,2.79510000000149],[0.08135416666666657,-0.03722222222222227,2.811699999999256],[0.06447916666666664,-0.01796296296296305,2.829400000002231],[0.04479166666666667,-0.018148148148148063,2.8489000000022315],[0.011666666666666714,-0.02759259259259255,2.8626000000014855],[-0.00791666666666669,-0.007407407407407408,2.8781999999992536],[-0.03322916666666664,-0.006666666666666709,2.8951000000014915],[-0.010520833333333358,-0.0338888888888888,2.91169999999925],[-0.007083333333333286,-0.05129629629629638,2.928699999999253],[-0.01906249999999995,-0.043703703703703745,2.945300000000742],[-0.035000000000000024,-0.020740740740740823,2.9616999999992544],[-0.050937499999999976,0.0022222222222223064,2.9783000000007434],[-0.05687500000000002,-0.01314814814814819,2.9949999999999974],[-0.07593749999999998,-0.040740740740740744,3.0116000000014864],[-0.0626041666666667,-0.03777777777777774,3.031500000000001],[-0.07177083333333331,-0.03333333333333333,3.0459999999999994],[-0.07520833333333338,-0.021296296296296296,3.0623000000007465],[-0.10114583333333335,-0.01648148148148144,3.078400000002233],[-0.07520833333333338,-0.020185185185185143,3.0989000000022315],[-0.058333333333333334,-0.011296296296296339,3.1121000000014902],[-0.0375,-0.01777777777777782,3.1293000000007467],[-0.0067708333333333336,-0.026111111111111154,3.1509999999999962],[-0.005520833333333286,-0.0016666666666666245,3.166100000001485],[0.007500000000000047,0.03796296296296296,3.1796000000014857],[0.025416666666666643,0.06537037037037029,3.1954999999999956],[0.0453125,0.07962962962962963,3.2154999999999987],[0.0484375,0.0955555555555556,3.2321000000014877],[0.0515625,0.11148148148148157,3.249199999999256],[0.0515625,0.11148148148148157,3.2616000000014864],[0.03604166666666669,0.13111111111111104,3.2783000000007405],[0.03604166666666669,0.13111111111111104,3.2950000000000017],[0.041666666666666664,0.1507407407407407,3.3116000000014907],[0.041666666666666664,0.1507407407407407,3.328400000002233],[0.04770833333333328,0.1655555555555555,3.344999999999999],[0.04770833333333328,0.1655555555555555,3.3686000000014857],[0.03802083333333333,0.16111111111111112,3.378300000000742],[0.03802083333333333,0.16111111111111112,3.394999999999996],[0.07354166666666657,0.17037037037037037,3.418900000002232],[0.07354166666666657,0.17037037037037037,3.4284999999999997],[0.06239583333333331,0.14629629629629629,3.445600000001491],[0.014583333333333334,0.11500000000000005,3.4654999999999987],[-0.03322916666666664,0.0837037037037038,3.482699999999255],[-0.025937499999999978,0.06481481481481481,3.4994000000022325],[-0.002916666666666619,0.0588888888888888,3.5154000000022307],[0.017604166666666643,0.05055555555555547,3.5308000000007453],[0.00927083333333331,0.015555555555555513,3.549100000001488],[0.0034374999999999527,0.006111111111111027,3.5648000000007443],[-0.009583333333333381,-0.007592592592592635,3.578400000002233],[-0.05572916666666667,-0.034444444444444486,3.5951999999992523],[-0.07406250000000002,-0.0544444444444444,3.615400000002232],[0.018229166666666668,-0.05462962962962963,3.631300000000742],[0.09385416666666657,-0.06462962962962959,3.646000000000001],[0.08937499999999995,-0.0824074074074074,3.6618000000007456],[0.06916666666666677,-0.11314814814814819,3.678300000000746],[0.05541666666666671,-0.12129629629629629,3.6961999999992514],[0.09937500000000009,-0.12037037037037036,3.7116000000014893],[0.09583333333333334,-0.16148148148148145,3.7283000000007434],[0.11291666666666676,-0.18870370370370365,3.7501999999992535],[0.11291666666666676,-0.18870370370370365,3.7616999999992515],[0.11864583333333342,-0.19740740740740745,3.778500000000001],[0.11864583333333342,-0.19740740740740745,3.79510000000149],[0.12552083333333333,-0.18074074074074079,3.815400000002235],[0.06677083333333324,-0.22537037037037036,3.8323000000007426],[0.024687500000000046,-0.2601851851851852,3.8493000000007456],[0.005312500000000024,-0.24296296296296294,3.8673000000007463],[0.009687499999999953,-0.23703703703703705,3.8823000000007397],[0.014895833333333285,-0.2505555555555556,3.8993000000007427],[-0.030520833333333285,-0.26666666666666666,3.914600000001485],[-0.0359375,-0.2675925925925926,3.9291000000014904],[-0.049791666666666616,-0.2809259259259259,3.949699999999254],[-0.04072916666666669,-0.29314814814814816,3.9651999999992498],[-0.019479166666666714,-0.34,3.9786999999992503],[-0.01395833333333331,-0.34074074074074073,3.995100000001486],[-0.008437500000000023,-0.34148148148148144,4.011499999999998],[0.002916666666666619,-0.36074074074074075,4.029699999999252],[-0.00947916666666669,-0.36870370370370376,4.04810000000149],[-0.019583333333333286,-0.3907407407407407,4.064699999999256],[-0.022395833333333334,-0.40555555555555556,4.079199999999254],[-0.010000000000000024,-0.3737037037037037,4.095300000000741],[0.0032291666666666905,-0.31796296296296295,4.111600000001488],[-0.0037500000000000237,-0.29444444444444445,4.128300000000742],[-0.016979166666666618,-0.25037037037037035,4.149000000000001],[-0.0421875,-0.20629629629629626,4.166699999999253],[-0.0484375,-0.1853703703703704,4.180900000002232],[-0.03999999999999997,-0.17074074074074072,4.195199999999254],[-0.03156249999999995,-0.15611111111111114,4.211600000001489],[-0.044270833333333336,-0.16722222222222224,4.231999999999999],[-0.043958333333333384,-0.1618518518518518,4.248100000001486],[-0.041458333333333285,-0.1844444444444445,4.2646000000014865],[-0.03895833333333331,-0.20703703703703705,4.2783000000007405],[-0.02947916666666662,-0.23166666666666672,4.295000000000002],[-0.02000000000000005,-0.25629629629629624,4.311499999999995],[0.01083333333333331,-0.2512962962962963,4.328199999999256],[0.006562499999999953,-0.2627777777777777,4.349900000002236],[0.005937500000000048,-0.2833333333333333,4.3666999999992555],[0.01083333333333331,-0.28185185185185185,4.382999999999996],[0.027291666666666714,-0.24370370370370376,4.398400000002233],[0.03312499999999995,-0.22166666666666665,4.411600000001485],[0.01864583333333331,-0.19240740740740736,4.428199999999251],[0.011979166666666667,-0.1542592592592593,4.445199999999254],[0.03166666666666664,-0.14148148148148143,4.461800000000743],[0.05135416666666662,-0.1287037037037037,4.478300000000743],[0.06447916666666664,-0.1346296296296296,4.496199999999256],[0.09375,-0.10092592592592593,4.511900000002235],[0.090625,-0.10203703703703708,4.528600000001489],[0.08197916666666671,-0.12518518518518523,4.5456999999992505],[0.08114583333333343,-0.14740740740740746,4.562800000000742],[0.07374999999999995,-0.16351851851851854,4.578199999999256],[0.0740624999999999,-0.20685185185185184,4.595500000000001],[0.06656249999999998,-0.259074074074074,4.6114999999999995],[0.05166666666666669,-0.28166666666666673,4.628499999999995],[0.05291666666666662,-0.31055555555555553,4.644999999999996],[0.044062499999999956,-0.33907407407407414,4.661800000000746],[0.035208333333333286,-0.3675925925925926,4.678199999999251],[0.035520833333333356,-0.3727777777777778,4.695],[0.03583333333333331,-0.377962962962963,4.716100000001489],[0.03583333333333331,-0.377962962962963,4.728300000000743],[0.02177083333333331,-0.3809259259259259,4.745100000001486],[0.00927083333333331,-0.3774074074074074,4.764699999999252],[0.013437499999999976,-0.3672222222222222,4.7786999999992545],[0.017604166666666643,-0.35703703703703704,4.794900000002237],[0.013645833333333357,-0.3359259259259259,4.811699999999256],[0.01572916666666669,-0.2898148148148148,4.828499999999998],[0.02510416666666669,-0.255,4.845300000000741],[0.057291666666666664,-0.1940740740740741,4.861699999999253],[0.10812499999999996,-0.13240740740740742,4.878199999999254],[0.13333333333333333,-0.05388888888888893,4.894900000002231],[0.17833333333333337,0.0035185185185184764,4.911900000002234],[0.2303124999999999,0.039074074074074115,4.928300000000746],[0.24114583333333334,0.09148148148148144,4.945999999999998],[0.25010416666666657,0.14370370370370375,4.961699999999254],[0.25906250000000003,0.19592592592592584,4.978300000000743],[0.2568749999999999,0.2168518518518519,4.994900000002232],[0.2635416666666667,0.24814814814814815,5.011499999999998],[0.2594791666666666,0.25833333333333336,5.029400000002234],[0.24354166666666663,0.2514814814814814,5.0456999999992505],[0.23302083333333337,0.23296296296296287,5.06290000000223],[0.20364583333333333,0.23259259259259263,5.0789000000022355],[0.20281250000000003,0.2272222222222223,5.094900000002234],[0.22625000000000003,0.20574074074074078,5.111600000001488],[0.24291666666666673,0.15500000000000008,5.128300000000742],[0.26895833333333335,0.15703703703703695,5.147500000000001],[0.28395833333333326,0.17166666666666675,5.161800000000746],[0.3026041666666667,0.15833333333333333,5.1785],[0.30916666666666665,0.14000000000000004,5.195100000001489],[0.32708333333333334,0.1368518518518518,5.211500000000001],[0.3492708333333333,0.12166666666666676,5.228300000000743],[0.37562499999999993,0.10629629629629625,5.244900000002232],[0.37562499999999993,0.10629629629629625,5.261600000001486],[0.3841666666666666,0.12222222222222222,5.278199999999252],[0.3876041666666666,0.13351851851851856,5.300300000000746],[0.3876041666666666,0.13351851851851856,5.311600000001491],[0.3902083333333332,0.1544444444444444,5.328400000002233],[0.3902083333333332,0.1544444444444444,5.344999999999999],[0.37374999999999997,0.11648148148148144,5.361600000001488],[0.37374999999999997,0.11648148148148144,5.378300000000742],[0.32927083333333323,0.0824074074074074,5.394999999999996],[0.28572916666666665,0.09833333333333337,5.41710000000149],[0.28572916666666665,0.09833333333333337,5.428600000001488]]","[0.000300000000741818,0.04119999999925028,0.048600000001485455,0.062300000000746536,0.07830000000074477,0.09499999999999886,0.11160000000148784,0.12830000000074193,0.1449000000022309,0.1616999999992501,0.1783000000007462,0.19519999999925375,0.21180000000074273,0.22830000000074335,0.2486000000014883,0.2624000000022306,0.2783000000007405,0.2950000000000017,0.3119999999999976,0.3283000000007448,0.3456999999992547,0.36219999999925534,0.37830000000074193,0.394999999999996,0.4116999999992501,0.43069999999925557,0.44549999999999557,0.4616999999992544,0.47830000000074335,0.49499999999999744,0.5116000000014864,0.5283000000007405,0.545499999999997,0.5616000000014907,0.5783000000007448,0.5949999999999989,0.6118000000007413,0.6296000000014885,0.6469999999999985,0.6661999999992503,0.6783000000007462,0.6951999999992537,0.7116999999992544,0.7283000000007434,0.7451000000014858,0.7618000000007399,0.7786999999992545,0.7950000000000017,0.8116999999992558,0.8284000000022331,0.8449999999999989,0.8619000000022368,0.8784000000022303,0.894999999999996,0.9116999999992501,0.9283000000007462,0.9451999999992537,0.9616999999992544,0.9783000000007434,0.9949999999999974,1.0116000000014864,1.0286000000014894,1.04510000000149,1.062199999999251,1.0820000000000007,1.0983000000007408,1.1151000000014903,1.1299000000022303,1.1488000000007403,1.161900000002234,1.1784000000022345,1.1950000000000003,1.2116000000014893,1.2284000000022317,1.2458000000007416,1.2616999999992515,1.2783000000007405,1.2950000000000017,1.3116000000014907,1.3284999999999982,1.3451000000014872,1.3618000000007413,1.378300000000742,1.400199999999252,1.411600000001485,1.4283000000007462,1.445600000001491,1.4618000000007427,1.4786000000014852,1.4949999999999974,1.5118000000007399,1.5286999999992545,1.5494999999999948,1.5651999999992512,1.57880000000074,1.5949999999999989,1.611699999999253,1.6314000000022304,1.6481999999992496,1.6666000000014876,1.681999999999995,1.6984999999999957,1.7131000000014893,1.7346999999992505,1.745199999999251,1.762199999999254,1.7791000000014918,1.7996999999992553,1.8171999999992536,1.8286000000014866,1.8451999999992523,1.8651999999992555,1.8784999999999954,1.895300000000745,1.915699999999255,1.9311000000014857,1.9483000000007422,1.9679000000022313,1.9783000000007434,1.9954000000022347,2.0116999999992515,2.033300000000743,2.0496999999992553,2.067,2.078400000002233,2.098800000000743,2.114900000002237,2.1311999999992537,2.1451999999992566,2.1654000000022364,2.1798000000007463,2.1980000000000004,2.216000000000001,2.2325000000000017,2.2498000000007465,2.2683000000007425,2.278400000002236,2.295199999999255,2.311800000000744,2.3323000000007426,2.3511999999992526,2.3684999999999974,2.384300000000742,2.394900000002231,2.411600000001485,2.428300000000746,2.4451000000014886,2.4616000000014893,2.4783000000007434,2.4985,2.51180000000074,2.528500000000001,2.550600000001488,2.5619000000022325,2.578400000002233,2.5951999999992523,2.6151999999992555,2.6289000000022327,2.6451999999992566,2.6646999999992502,2.6784999999999997,2.6954999999999956,2.7151999999992498,2.728499999999997,2.7454000000022347,2.7656999999992564,2.779100000001492,2.79510000000149,2.811699999999256,2.829400000002231,2.8489000000022315,2.8626000000014855,2.8781999999992536,2.8951000000014915,2.91169999999925,2.928699999999253,2.945300000000742,2.9616999999992544,2.9783000000007434,2.9949999999999974,3.0116000000014864,3.031500000000001,3.0459999999999994,3.0623000000007465,3.078400000002233,3.0989000000022315,3.1121000000014902,3.1293000000007467,3.1509999999999962,3.166100000001485,3.1796000000014857,3.1954999999999956,3.2154999999999987,3.2321000000014877,3.249199999999256,3.2616000000014864,3.2783000000007405,3.2950000000000017,3.3116000000014907,3.328400000002233,3.344999999999999,3.3686000000014857,3.378300000000742,3.394999999999996,3.418900000002232,3.4284999999999997,3.445600000001491,3.4654999999999987,3.482699999999255,3.4994000000022325,3.5154000000022307,3.5308000000007453,3.549100000001488,3.5648000000007443,3.578400000002233,3.5951999999992523,3.615400000002232,3.631300000000742,3.646000000000001,3.6618000000007456,3.678300000000746,3.6961999999992514,3.7116000000014893,3.7283000000007434,3.7501999999992535,3.7616999999992515,3.778500000000001,3.79510000000149,3.815400000002235,3.8323000000007426,3.8493000000007456,3.8673000000007463,3.8823000000007397,3.8993000000007427,3.914600000001485,3.9291000000014904,3.949699999999254,3.9651999999992498,3.9786999999992503,3.995100000001486,4.011499999999998,4.029699999999252,4.04810000000149,4.064699999999256,4.079199999999254,4.095300000000741,4.111600000001488,4.128300000000742,4.149000000000001,4.166699999999253,4.180900000002232,4.195199999999254,4.211600000001489,4.231999999999999,4.248100000001486,4.2646000000014865,4.2783000000007405,4.295000000000002,4.311499999999995,4.328199999999256,4.349900000002236,4.3666999999992555,4.382999999999996,4.398400000002233,4.411600000001485,4.428199999999251,4.445199999999254,4.461800000000743,4.478300000000743,4.496199999999256,4.511900000002235,4.528600000001489,4.5456999999992505,4.562800000000742,4.578199999999256,4.595500000000001,4.6114999999999995,4.628499999999995,4.644999999999996,4.661800000000746,4.678199999999251,4.695,4.716100000001489,4.728300000000743,4.745100000001486,4.764699999999252,4.7786999999992545,4.794900000002237,4.811699999999256,4.828499999999998,4.845300000000741,4.861699999999253,4.878199999999254,4.894900000002231,4.911900000002234,4.928300000000746,4.945999999999998,4.961699999999254,4.978300000000743,4.994900000002232,5.011499999999998,5.029400000002234,5.0456999999992505,5.06290000000223,5.0789000000022355,5.094900000002234,5.111600000001488,5.128300000000742,5.147500000000001,5.161800000000746,5.1785,5.195100000001489,5.211500000000001,5.228300000000743,5.244900000002232,5.261600000001486,5.278199999999252,5.300300000000746,5.311600000001491,5.328400000002233,5.344999999999999,5.361600000001488,5.378300000000742,5.394999999999996,5.41710000000149,5.428600000001488]","[1733133516748,1733133516782,1733133516790,1733133516803,1733133516819,1733133516836,1733133516853,1733133516869,1733133516886,1733133516903,1733133516919,1733133516936,1733133516953,1733133516969,1733133516990,1733133517003,1733133517019,1733133517036,1733133517053,1733133517069,1733133517087,1733133517103,1733133517119,1733133517136,1733133517153,1733133517172,1733133517186,1733133517203,1733133517219,1733133517236,1733133517253,1733133517269,1733133517286,1733133517303,1733133517319,1733133517336,1733133517353,1733133517371,1733133517388,1733133517407,1733133517419,1733133517436,1733133517453,1733133517469,1733133517486,1733133517503,1733133517520,1733133517536,1733133517553,1733133517569,1733133517590,1733133517607,1733133517624,1733133517640,1733133517657,1733133517674,1733133517691,1733133517707,1733133517724,1733133517741,1733133517757,1733133517774,1733133517791,1733133517808,1733133517827,1733133517844,1733133517861,1733133517876,1733133517894,1733133517907,1733133517924,1733133517940,1733133517957,1733133517974,1733133517991,1733133518007,1733133518024,1733133518041,1733133518057,1733133518074,1733133518091,1733133518107,1733133518124,1733133518146,1733133518157,1733133518174,1733133518191,1733133518207,1733133518224,1733133518241,1733133518257,1733133518274,1733133518295,1733133518311,1733133518324,1733133518341,1733133518357,1733133518377,1733133518394,1733133518412,1733133518427,1733133518444,1733133518459,1733133518480,1733133518491,1733133518508,1733133518525,1733133518545,1733133518563,1733133518574,1733133518591,1733133518611,1733133518624,1733133518641,1733133518661,1733133518677,1733133518694,1733133518713,1733133518724,1733133518741,1733133518757,1733133518779,1733133518795,1733133518812,1733133518824,1733133518844,1733133518860,1733133518877,1733133518891,1733133518911,1733133518925,1733133518943,1733133518962,1733133518978,1733133518995,1733133519014,1733133519024,1733133519041,1733133519057,1733133519078,1733133519097,1733133519114,1733133519130,1733133519140,1733133519157,1733133519174,1733133519191,1733133519207,1733133519224,1733133519244,1733133519257,1733133519274,1733133519296,1733133519307,1733133519324,1733133519341,1733133519361,1733133519374,1733133519391,1733133519410,1733133519424,1733133519441,1733133519461,1733133519474,1733133519491,1733133519511,1733133519525,1733133519541,1733133519557,1733133519575,1733133519594,1733133519608,1733133519624,1733133519641,1733133519657,1733133519674,1733133519691,1733133519707,1733133519724,1733133519740,1733133519757,1733133519777,1733133519791,1733133519808,1733133519824,1733133519844,1733133519858,1733133519875,1733133519897,1733133519912,1733133519925,1733133519941,1733133519961,1733133519978,1733133519995,1733133520007,1733133520024,1733133520040,1733133520057,1733133520074,1733133520091,1733133520114,1733133520124,1733133520141,1733133520164,1733133520174,1733133520191,1733133520211,1733133520228,1733133520245,1733133520261,1733133520276,1733133520295,1733133520310,1733133520324,1733133520341,1733133520361,1733133520377,1733133520391,1733133520407,1733133520424,1733133520442,1733133520457,1733133520474,1733133520496,1733133520507,1733133520524,1733133520541,1733133520561,1733133520578,1733133520595,1733133520613,1733133520628,1733133520645,1733133520660,1733133520675,1733133520695,1733133520711,1733133520724,1733133520741,1733133520757,1733133520775,1733133520794,1733133520810,1733133520825,1733133520841,1733133520857,1733133520874,1733133520895,1733133520912,1733133520926,1733133520941,1733133520957,1733133520978,1733133520994,1733133521010,1733133521024,1733133521040,1733133521057,1733133521074,1733133521095,1733133521112,1733133521128,1733133521144,1733133521157,1733133521174,1733133521191,1733133521207,1733133521224,1733133521242,1733133521257,1733133521274,1733133521291,1733133521308,1733133521324,1733133521341,1733133521357,1733133521374,1733133521390,1733133521407,1733133521424,1733133521440,1733133521462,1733133521474,1733133521491,1733133521510,1733133521524,1733133521540,1733133521557,1733133521574,1733133521591,1733133521607,1733133521624,1733133521640,1733133521657,1733133521674,1733133521692,1733133521707,1733133521724,1733133521740,1733133521757,1733133521775,1733133521791,1733133521808,1733133521824,1733133521840,1733133521857,1733133521874,1733133521893,1733133521907,1733133521924,1733133521941,1733133521957,1733133521974,1733133521990,1733133522007,1733133522024,1733133522046,1733133522057,1733133522074,1733133522090,1733133522107,1733133522124,1733133522141,1733133522163,1733133522174]","[[1151.3,844.4],[1151.3,844.4],[1160.5,859.6],[1149.5,864.3],[1120,867.5],[1165.9,909.6],[1207.9,951.2],[1246.3,1010],[1239.3,1010.5],[1258,1020.5],[1276.5,1018.6],[1309.2,979.7],[1345.8,960.2],[1372,954.6],[1415.2,960.2],[1423.6,920.9],[1436,895.3],[1427,842.7],[1448.6,813.2],[1470.7,784.4],[1496.2,755.5],[1517.5,743],[1543.3,743.6],[1598.3,750.7],[1636.3,746.6],[1657.2,764.1],[1674.1,767.9],[1737.9,778.7],[1770.4,796],[1719,788.8],[1648.5,780.5],[1626.2,788.7],[1599.4,783.8],[1569,757.3],[1540.3,738],[1459,680.3],[1408.4,632.1],[1314.5,565.9],[1233.8,499.3],[1246.1,492],[1246.1,492],[1241.6,481.2],[1188.9,453.9],[1165.5,419.8],[1106.6,396.9],[1063.7,360.6],[1104.2,368],[1114,365.9],[1145,390.4],[1145,390.4],[1180.3,407.5],[1189.4,407.2],[1222,403.8],[1234.6,427.5],[1212.5,462.1],[1263.1,504.1],[1296,552.3],[1276.2,568.2],[1248.8,584.3],[1252.6,589.3],[1242.1,613.2],[1242.1,613.2],[1248.5,601.9],[1255.4,612.6],[1282.3,596.2],[1287.9,585.2],[1253.6,570.2],[1219.3,555.2],[1207,553.8],[1202.3,552.2],[1166.3,560.1],[1140.3,556.5],[1114.5,570.7],[1085.4,574.8],[1049.1,571.7],[1049.1,571.7],[1063.6,566.5],[1063.6,566.5],[1081.6,573.4],[1081.6,573.4],[1101.3,578.4],[1101.3,578.4],[1128.9,575.7],[1158.7,567.6],[1158.7,567.6],[1188.6,561.1],[1188.6,561.1],[1244.2,559.5],[1260.2,569.9],[1301.1,561.8],[1349.2,560.9],[1337.5,552.9],[1343.4,533.9],[1336,511.6],[1309.3,498.7],[1280.4,491.2],[1251.5,483.7],[1269.5,468.9],[1314.4,434.4],[1284,429.6],[1240.5,452.2],[1244.4,459.1],[1243.4,466.3],[1241.4,479],[1241.4,479],[1235.3,494.5],[1235.2,505.9],[1244.8,515.2],[1166.7,542.8],[1166.7,542.8],[1116.8,570.6],[1112.5,577.7],[1101.5,583.1],[1093.8,601.4],[1091,630.5],[1087.1,636.9],[1089.3,652.9],[1085.5,673],[1085.5,673],[1085.6,690.6],[1100.8,692.3],[1078.4,704],[1078.4,697.8],[1053.9,690],[1053.9,690],[1018,683],[1004.3,654.3],[1005.6,655.2],[1005.6,655.2],[1016.2,644.1],[1024.3,612.2],[1022.2,604],[1020.1,595.8],[1042.3,582.4],[1043,591.1],[1086.3,555.4],[1086.3,555.4],[1130.4,537.4],[1146,516.3],[1155,492.8],[1162.8,468.9],[1162.8,468.9],[1173.1,465.8],[1173.1,465.8],[1167.4,436.5],[1147.7,419.3],[1125.8,404.8],[1089.6,381.6],[1055.1,378.7],[997.4,371.4],[1005.1,384.1],[1014.4,397.7],[1024.9,411.7],[1024.9,411.7],[1030.8,430.4],[1029,443.3],[1041.2,444.1],[1058.3,443.2],[1089.7,451],[1136.4,475.9],[1186.1,485.7],[1168.6,485.4],[1154.8,479.4],[1116.5,492.4],[1116.5,492.4],[1071.8,499.3],[1062.2,505.6],[1052.6,511.9],[1038.1,519.9],[1021.9,530.3],[1003,530.2],[971.2,525.1],[952.4,536],[928.1,536.4],[949.9,521.7],[953.2,512.3],[941.7,516.4],[926.4,528.8],[911.1,541.2],[905.4,532.9],[887.1,518],[899.9,519.6],[891.1,522],[887.8,528.5],[862.9,531.1],[887.8,529.1],[904,533.9],[924,530.4],[953.5,525.9],[954.7,539.1],[967.2,560.5],[984.4,575.3],[1003.5,583],[1006.5,591.6],[1009.5,600.2],[1009.5,600.2],[994.6,610.8],[994.6,610.8],[1000,621.4],[1000,621.4],[1005.8,629.4],[1005.8,629.4],[996.5,627],[996.5,627],[1030.6,632],[1030.6,632],[1019.9,619],[974,602.1],[928.1,585.2],[935.1,575],[957.2,571.8],[976.9,567.3],[968.9,548.4],[963.3,543.3],[950.8,535.9],[906.5,521.4],[888.9,510.6],[977.5,510.5],[1050.1,505.1],[1045.8,495.5],[1026.4,478.9],[1013.2,474.5],[1055.4,475],[1052,452.8],[1068.4,438.1],[1068.4,438.1],[1073.9,433.4],[1073.9,433.4],[1080.5,442.4],[1024.1,418.3],[983.7,399.5],[965.1,408.8],[969.3,412],[974.3,404.7],[930.7,396],[925.5,395.5],[912.2,388.3],[920.9,381.7],[941.3,356.4],[946.6,356],[951.9,355.6],[962.8,345.2],[950.9,340.9],[941.2,329],[938.5,321],[950.4,338.2],[963.1,368.3],[956.4,381],[943.7,404.8],[919.5,428.6],[913.5,439.9],[921.6,447.8],[929.7,455.7],[917.5,449.7],[917.8,452.6],[920.2,440.4],[922.6,428.2],[931.7,414.9],[940.8,401.6],[970.4,404.3],[966.3,398.1],[965.7,387],[970.4,387.8],[986.2,408.4],[991.8,420.3],[977.9,436.1],[971.5,456.7],[990.4,463.6],[1009.3,470.5],[1021.9,467.3],[1050,485.5],[1047,484.9],[1038.7,472.4],[1037.9,460.4],[1030.8,451.7],[1031.1,428.3],[1023.9,400.1],[1009.6,387.9],[1010.8,372.3],[1002.3,356.9],[993.8,341.5],[994.1,338.7],[994.4,335.9],[994.4,335.9],[980.9,334.3],[968.9,336.2],[972.9,341.7],[976.9,347.2],[973.1,358.6],[975.1,383.5],[984.1,402.3],[1015,435.2],[1063.8,468.5],[1088,510.9],[1131.2,541.9],[1181.1,561.1],[1191.5,589.4],[1200.1,617.6],[1208.7,645.8],[1206.6,657.1],[1213,674],[1209.1,679.5],[1193.8,675.8],[1183.7,665.8],[1155.5,665.6],[1154.7,662.7],[1177.2,651.1],[1193.2,623.7],[1218.2,624.8],[1232.6,632.7],[1250.5,625.5],[1256.8,615.6],[1274,613.9],[1295.3,605.7],[1320.6,597.4],[1320.6,597.4],[1328.8,606],[1332.1,612.1],[1332.1,612.1],[1334.6,623.4],[1334.6,623.4],[1318.8,602.9],[1318.8,602.9],[1276.1,584.5],[1234.3,593.1],[1234.3,593.1]]","[0,0.3527331528]","[0.3527331528,0.3527331528]","[-0.3527331528,-0.3527331528]","[-0.3527331528,0]","[0,-0.3527331528]","[0.3527331528,-0.3527331528]","[0,0]","[0.3527331528,0]",0,0,0,0,1,3,Tablet,11,9,9,1
