inst1_resp.keys,inst1_resp.rt,calibrationMouse.x,calibrationMouse.y,calibrationMouse.leftButton,calibrationMouse.midButton,calibrationMouse.rightButton,calibrationClick.x,calibrationClick.y,calibrationClick.leftButton,calibrationClick.midButton,calibrationClick.rightButton,calibrationClick.clicked_name,trialsc.thisRepN,trialsc.thisTrialN,trialsc.thisN,trialsc.thisIndex,trialsc.ran,calibration_x,calibration_y,participant,session,date,expName,psychopyVersion,OS,frameRate,ScreenRes_pixels,Camera_pixels,mouse_2.x,mouse_2.y,mouse_2.leftButton,mouse_2.midButton,mouse_2.rightButton,mouse_2.time,mouse_2.clicked_name,mouse.x,mouse.y,mouse.leftButton,mouse.midButton,mouse.rightButton,mouse.time,mouse.clicked_name,Choice,Trial,TrialDuration,MOUSE_GAZE,ET_GAZE,ET_GAZE_x_T,time,unixTime,ET_GAZE_NF,Loc_Option1_label,Loc_Option2_label,Loc_Cost_label,Loc_Qual_label,Loc_Option1_cost,Loc_Option2_cost,Loc_Option1_quality,Loc_Option2_quality,trials.thisRepN,trials.thisTrialN,trials.thisN,trials.thisIndex,trials.ran,Block,Device,cost1,qual1,cost2,qual2
space,3.084,0.011458333,-0.203703704,1,0,0,0,-0.666666667,1,0,0,calibration_square,0,0,0,9,1,0,-0.67,46,001,2024-12-03_12h08.09.544,Attention_exp_legacy,2023.1.0,Win32,60.24096386,,,,,,,,,,,,,,,,,,,,,,,,,,,,,,,,,,,,,,,,,,,,
,,,,,,,0.327083333,-0.672222222,1,0,0,calibration_square,0,1,1,14,1,0.33,-0.67,46,001,2024-12-03_12h08.09.544,Attention_exp_legacy,2023.1.0,Win32,60.24096386,,,,,,,,,,,,,,,,,,,,,,,,,,,,,,,,,,,,,,,,,,,,
,,,,,,,0.3375,-0.324074074,1,0,0,calibration_square,0,2,2,15,1,0.33,-0.33,46,001,2024-12-03_12h08.09.544,Attention_exp_legacy,2023.1.0,Win32,60.24096386,,,,,,,,,,,,,,,,,,,,,,,,,,,,,,,,,,,,,,,,,,,,
,,,,,,,0.329166667,0.67962963,1,0,0,calibration_square,0,3,3,18,1,0.33,0.67,46,001,2024-12-03_12h08.09.544,Attention_exp_legacy,2023.1.0,Win32,60.24096386,,,,,,,,,,,,,,,,,,,,,,,,,,,,,,,,,,,,,,,,,,,,
,,,,,,,-0.00625,-0.314814815,1,0,0,,0,4,4,10,1,0,-0.33,46,001,2024-12-03_12h08.09.544,Attention_exp_legacy,2023.1.0,Win32,60.24096386,,,,,,,,,,,,,,,,,,,,,,,,,,,,,,,,,,,,,,,,,,,,
,,,,,,,0.00625,0.677777778,1,0,0,calibration_square,0,5,5,13,1,0,0.67,46,001,2024-12-03_12h08.09.544,Attention_exp_legacy,2023.1.0,Win32,60.24096386,,,,,,,,,,,,,,,,,,,,,,,,,,,,,,,,,,,,,,,,,,,,
,,,,,,,-0.336458333,0,1,0,0,calibration_square,0,6,6,6,1,-0.33,0,46,001,2024-12-03_12h08.09.544,Attention_exp_legacy,2023.1.0,Win32,60.24096386,,,,,,,,,,,,,,,,,,,,,,,,,,,,,,,,,,,,,,,,,,,,
,,,,,,,-0.326041667,-0.653703704,1,0,0,,0,7,7,4,1,-0.33,-0.67,46,001,2024-12-03_12h08.09.544,Attention_exp_legacy,2023.1.0,Win32,60.24096386,,,,,,,,,,,,,,,,,,,,,,,,,,,,,,,,,,,,,,,,,,,,
,,,,,,,-0.669791667,0.005555556,1,0,0,calibration_square,0,8,8,2,1,-0.67,0,46,001,2024-12-03_12h08.09.544,Attention_exp_legacy,2023.1.0,Win32,60.24096386,,,,,,,,,,,,,,,,,,,,,,,,,,,,,,,,,,,,,,,,,,,,
,,,,,,,0.671875,-0.672222222,1,0,0,calibration_square,0,9,9,20,1,0.67,-0.67,46,001,2024-12-03_12h08.09.544,Attention_exp_legacy,2023.1.0,Win32,60.24096386,,,,,,,,,,,,,,,,,,,,,,,,,,,,,,,,,,,,,,,,,,,,
,,,,,,,-0.322916667,0.664814815,1,0,0,calibration_square,0,10,10,8,1,-0.33,0.67,46,001,2024-12-03_12h08.09.544,Attention_exp_legacy,2023.1.0,Win32,60.24096386,,,,,,,,,,,,,,,,,,,,,,,,,,,,,,,,,,,,,,,,,,,,
,,,,,,,-0.670833333,-0.685185185,1,0,0,,0,11,11,0,1,-0.67,-0.67,46,001,2024-12-03_12h08.09.544,Attention_exp_legacy,2023.1.0,Win32,60.24096386,,,,,,,,,,,,,,,,,,,,,,,,,,,,,,,,,,,,,,,,,,,,
,,,,,,,-0.003125,0.327777778,1,0,0,calibration_square,0,12,12,12,1,0,0.33,46,001,2024-12-03_12h08.09.544,Attention_exp_legacy,2023.1.0,Win32,60.24096386,,,,,,,,,,,,,,,,,,,,,,,,,,,,,,,,,,,,,,,,,,,,
,,,,,,,-0.66875,-0.325925926,1,0,0,calibration_square,0,13,13,1,1,-0.67,-0.33,46,001,2024-12-03_12h08.09.544,Attention_exp_legacy,2023.1.0,Win32,60.24096386,,,,,,,,,,,,,,,,,,,,,,,,,,,,,,,,,,,,,,,,,,,,
,,,,,,,0.007291667,-0.012962963,1,0,0,,0,14,14,11,1,0,0,46,001,2024-12-03_12h08.09.544,Attention_exp_legacy,2023.1.0,Win32,60.24096386,,,,,,,,,,,,,,,,,,,,,,,,,,,,,,,,,,,,,,,,,,,,
,,,,,,,0.325,0.338888889,1,0,0,calibration_square,0,15,15,17,1,0.33,0.33,46,001,2024-12-03_12h08.09.544,Attention_exp_legacy,2023.1.0,Win32,60.24096386,,,,,,,,,,,,,,,,,,,,,,,,,,,,,,,,,,,,,,,,,,,,
,,,,,,,-0.327083333,-0.333333333,1,0,0,calibration_square,0,16,16,5,1,-0.33,-0.33,46,001,2024-12-03_12h08.09.544,Attention_exp_legacy,2023.1.0,Win32,60.24096386,,,,,,,,,,,,,,,,,,,,,,,,,,,,,,,,,,,,,,,,,,,,
,,,,,,,0.339583333,0.001851852,1,0,0,calibration_square,0,17,17,16,1,0.33,0,46,001,2024-12-03_12h08.09.544,Attention_exp_legacy,2023.1.0,Win32,60.24096386,,,,,,,,,,,,,,,,,,,,,,,,,,,,,,,,,,,,,,,,,,,,
,,,,,,,-0.325,0.346296296,1,0,0,,0,18,18,7,1,-0.33,0.33,46,001,2024-12-03_12h08.09.544,Attention_exp_legacy,2023.1.0,Win32,60.24096386,,,,,,,,,,,,,,,,,,,,,,,,,,,,,,,,,,,,,,,,,,,,
,,,,,,,0.673958333,0.681481481,1,0,0,,0,19,19,19,1,0.67,0.67,46,001,2024-12-03_12h08.09.544,Attention_exp_legacy,2023.1.0,Win32,60.24096386,,,,,,,,,,,,,,,,,,,,,,,,,,,,,,,,,,,,,,,,,,,,
,,,,,,,-0.670833333,0.337037037,1,0,0,calibration_square,0,20,20,3,1,-0.67,0.33,46,001,2024-12-03_12h08.09.544,Attention_exp_legacy,2023.1.0,Win32,60.24096386,,,,,,,,,,,,,,,,,,,,,,,,,,,,,,,,,,,,,,,,,,,,
,,,,,,,,,,,,,,,,,,,,46,001,2024-12-03_12h08.09.544,Attention_exp_legacy,2023.1.0,Win32,60.24096386,"[1920,1080]","[640,480]",[0.05416666666666667],[-0.5074074074074074],[1],[0],[0],[10.046900000005962],"[""StartButton""]",[0],[0.5796296296296296],[1],[0],[0],[4.087000000000003],"[""Option1_label""]",Option1_label,1,5.096,"[[0.06145833333333333,-0.16296296296296298],[0.06145833333333333,-0.16296296296296298],[0.06145833333333333,-0.16296296296296298],[0.06145833333333333,-0.16296296296296298],[0.06145833333333333,-0.16296296296296298],[0.06145833333333333,-0.16296296296296298],[0.06145833333333333,-0.16296296296296298],[0.06145833333333333,-0.16296296296296298],[0.06145833333333333,-0.16296296296296298],[0.06145833333333333,-0.16296296296296298],[0.06145833333333333,-0.16296296296296298],[0.06145833333333333,-0.16296296296296298],[0.06145833333333333,-0.16296296296296298],[0.06145833333333333,-0.16296296296296298],[0.06145833333333333,-0.16296296296296298],[0.06145833333333333,-0.16296296296296298],[0.06145833333333333,-0.16296296296296298],[0.06145833333333333,-0.16296296296296298],[0.06145833333333333,-0.16296296296296298],[0.06145833333333333,-0.16296296296296298],[0.06145833333333333,-0.16296296296296298],[0.06145833333333333,-0.16296296296296298],[0.06145833333333333,-0.16296296296296298],[0.06145833333333333,-0.16296296296296298],[0.06145833333333333,-0.16296296296296298],[0.06145833333333333,-0.16296296296296298],[0.06145833333333333,-0.16296296296296298],[0.06145833333333333,-0.16296296296296298],[0.06145833333333333,-0.16296296296296298],[0.06145833333333333,-0.16296296296296298],[0.06145833333333333,-0.16296296296296298],[0.06145833333333333,-0.16296296296296298],[0.06145833333333333,-0.16296296296296298],[0.06145833333333333,-0.16296296296296298],[0.06145833333333333,-0.16296296296296298],[0.06145833333333333,-0.16296296296296298],[0.06145833333333333,-0.16296296296296298],[0.06145833333333333,-0.16296296296296298],[0.06145833333333333,-0.16296296296296298],[0.06145833333333333,-0.16296296296296298],[0.06145833333333333,-0.16296296296296298],[0.06145833333333333,-0.16296296296296298],[0.06145833333333333,-0.16296296296296298],[0.06145833333333333,-0.16296296296296298],[0.06145833333333333,-0.16296296296296298],[0.06145833333333333,-0.16296296296296298],[0.06145833333333333,-0.16296296296296298],[0.06145833333333333,-0.16296296296296298],[0.06145833333333333,-0.16296296296296298],[0.06145833333333333,-0.16296296296296298],[0.06145833333333333,-0.16296296296296298],[0.06145833333333333,-0.16296296296296298],[0.06145833333333333,-0.16296296296296298],[0.06145833333333333,-0.16296296296296298],[0.06145833333333333,-0.16296296296296298],[0.06145833333333333,-0.16296296296296298],[0.06145833333333333,-0.16296296296296298],[0.06145833333333333,-0.16296296296296298],[0.06145833333333333,-0.16296296296296298],[0.06145833333333333,-0.16296296296296298],[0.06145833333333333,-0.16296296296296298],[0.06145833333333333,-0.16296296296296298],[0.06145833333333333,-0.16296296296296298],[0.06145833333333333,-0.16296296296296298],[0.06145833333333333,-0.16296296296296298],[0.06145833333333333,-0.16296296296296298],[0.06145833333333333,-0.16296296296296298],[0.06145833333333333,-0.16296296296296298],[0.06145833333333333,-0.16296296296296298],[0.06145833333333333,-0.16296296296296298],[0.06145833333333333,-0.16296296296296298],[0.06145833333333333,-0.16296296296296298],[0.06145833333333333,-0.16296296296296298],[0.06145833333333333,-0.16296296296296298],[0.06145833333333333,-0.16296296296296298],[0.06145833333333333,-0.16296296296296298],[0.06145833333333333,-0.16296296296296298],[0.06145833333333333,-0.16296296296296298],[0.06145833333333333,-0.16296296296296298],[0.06145833333333333,-0.16296296296296298],[0.06145833333333333,-0.16296296296296298],[0.06145833333333333,-0.16296296296296298],[0.06145833333333333,-0.16296296296296298],[0.06145833333333333,-0.16296296296296298],[0.06145833333333333,-0.16296296296296298],[0.06145833333333333,-0.16296296296296298],[0.06145833333333333,-0.16296296296296298],[0.06145833333333333,-0.16296296296296298],[0.06145833333333333,-0.16296296296296298],[0.06145833333333333,-0.16296296296296298],[0.06145833333333333,-0.16296296296296298],[0.06145833333333333,-0.16296296296296298],[0.06145833333333333,-0.16296296296296298],[0.06145833333333333,-0.16296296296296298],[0.06145833333333333,-0.16296296296296298],[0.06145833333333333,-0.16296296296296298],[0.06145833333333333,-0.16296296296296298],[0.06145833333333333,-0.16296296296296298],[0.06145833333333333,-0.16296296296296298],[0.06145833333333333,-0.16296296296296298],[0.06145833333333333,-0.16296296296296298],[0.06145833333333333,-0.16296296296296298],[0.06145833333333333,-0.16296296296296298],[0.06145833333333333,-0.16296296296296298],[0.06145833333333333,-0.16296296296296298],[0.06145833333333333,-0.16296296296296298],[0.06145833333333333,-0.16296296296296298],[0.06145833333333333,-0.16296296296296298],[0.06145833333333333,-0.16296296296296298],[0.06145833333333333,-0.16296296296296298],[0.06145833333333333,-0.16296296296296298],[0.06145833333333333,-0.16296296296296298],[0.06145833333333333,-0.16296296296296298],[0.06145833333333333,-0.16296296296296298],[0.06145833333333333,-0.16296296296296298],[0.06145833333333333,-0.16296296296296298],[0.06145833333333333,-0.16296296296296298],[0.06145833333333333,-0.16296296296296298],[0.06145833333333333,-0.16296296296296298],[0.06145833333333333,-0.16296296296296298],[0.06145833333333333,-0.16296296296296298],[0.06145833333333333,-0.16296296296296298],[0.06145833333333333,-0.16296296296296298],[0.06145833333333333,-0.16296296296296298],[0.06145833333333333,-0.16296296296296298],[0.06145833333333333,-0.16296296296296298],[0.06145833333333333,-0.16296296296296298],[0.06145833333333333,-0.16296296296296298],[0.06145833333333333,-0.16296296296296298],[0.06145833333333333,-0.16296296296296298],[0.06145833333333333,-0.16296296296296298],[0.06145833333333333,-0.16296296296296298],[0.06145833333333333,-0.16296296296296298],[0.06145833333333333,-0.16296296296296298],[0.06145833333333333,-0.16296296296296298],[0.06145833333333333,-0.16296296296296298],[0.06145833333333333,-0.16296296296296298],[0.06145833333333333,-0.16296296296296298],[0.06145833333333333,-0.16296296296296298],[0.06145833333333333,-0.16296296296296298],[0.06145833333333333,-0.16296296296296298],[0.06145833333333333,-0.16296296296296298],[0.06145833333333333,-0.16296296296296298],[0.06145833333333333,-0.16296296296296298],[0.06145833333333333,-0.16296296296296298],[0.06145833333333333,-0.16296296296296298],[0.06145833333333333,-0.16296296296296298],[0.06145833333333333,-0.16296296296296298],[0.06145833333333333,-0.16296296296296298],[0.06145833333333333,-0.16296296296296298],[0.06145833333333333,-0.16296296296296298],[0.06145833333333333,-0.16296296296296298],[0.06145833333333333,-0.16296296296296298],[0.06145833333333333,-0.16296296296296298],[0.06145833333333333,-0.16296296296296298],[0.06145833333333333,-0.16296296296296298],[0.06145833333333333,-0.16296296296296298],[0.06145833333333333,-0.16296296296296298],[0.06145833333333333,-0.16296296296296298],[0.06145833333333333,-0.16296296296296298],[0.06145833333333333,-0.16296296296296298],[0.06145833333333333,-0.16296296296296298],[0.06145833333333333,-0.16296296296296298],[0.06145833333333333,-0.16296296296296298],[0.06145833333333333,-0.16296296296296298],[0.06145833333333333,-0.16296296296296298],[0.06145833333333333,-0.16296296296296298],[0.06145833333333333,-0.16296296296296298],[0.06145833333333333,-0.16296296296296298],[0.06145833333333333,-0.16296296296296298],[0.06145833333333333,-0.16296296296296298],[0.06145833333333333,-0.16296296296296298],[0.06145833333333333,-0.16296296296296298],[0.06145833333333333,-0.16296296296296298],[0.06145833333333333,-0.16296296296296298],[0.06145833333333333,-0.16296296296296298],[0.06145833333333333,-0.16296296296296298],[0.06145833333333333,-0.16296296296296298],[0.06145833333333333,-0.16296296296296298],[0.06145833333333333,-0.16296296296296298],[0.06145833333333333,-0.16296296296296298],[0.06145833333333333,-0.16296296296296298],[0.06145833333333333,-0.16111111111111112],[0.06145833333333333,-0.16111111111111112],[0.06145833333333333,-0.16111111111111112],[0.06145833333333333,-0.16111111111111112],[0.06145833333333333,-0.16111111111111112],[0.06145833333333333,-0.16111111111111112],[0.06145833333333333,-0.16111111111111112],[0.06145833333333333,-0.16111111111111112],[0.06145833333333333,-0.16111111111111112],[0.06145833333333333,-0.16111111111111112],[0.06145833333333333,-0.16111111111111112],[0.06145833333333333,-0.16111111111111112],[0.06145833333333333,-0.16111111111111112],[0.06145833333333333,-0.16111111111111112],[0.06145833333333333,-0.16111111111111112],[0.06145833333333333,-0.16111111111111112],[0.06145833333333333,-0.16111111111111112],[0.06145833333333333,-0.16111111111111112],[0.06145833333333333,-0.16111111111111112],[0.06145833333333333,-0.15925925925925927],[0.06145833333333333,-0.15925925925925927],[0.06145833333333333,-0.15925925925925927],[0.06145833333333333,-0.15925925925925927],[0.06145833333333333,-0.15925925925925927],[0.06145833333333333,-0.15925925925925927],[0.06145833333333333,-0.15925925925925927],[0.06145833333333333,-0.15925925925925927],[0.06145833333333333,-0.15],[0.06145833333333333,-0.13518518518518519],[0.06145833333333333,-0.1037037037037037],[0.058333333333333334,-0.053703703703703705],[0.05,0.06851851851851852],[0.040625,0.2037037037037037],[0.030208333333333334,0.3351851851851852],[0.016666666666666666,0.48703703703703705],[0.005208333333333333,0.6277777777777778],[0,0.7074074074074074],[0,0.7462962962962963],[0,0.7833333333333333],[0,0.8037037037037037],[0,0.812962962962963],[0,0.8148148148148148],[0,0.8148148148148148],[0,0.8148148148148148],[0,0.8148148148148148],[0,0.8148148148148148],[0,0.8148148148148148],[0,0.7777777777777778],[0,0.7],[0,0.6425925925925926],[0,0.6074074074074074],[0,0.587037037037037],[0,0.5796296296296296],[0,0.5796296296296296],[0,0.5796296296296296],[0,0.5796296296296296],[0,0.5796296296296296],[0,0.5796296296296296],[0,0.5796296296296296],[0,0.5796296296296296],[0,0.5796296296296296],[0,0.5796296296296296],[0,0.5796296296296296],[0,0.5796296296296296],[0,0.5796296296296296],[0,0.5796296296296296],[0,0.5796296296296296],[0,0.5796296296296296],[0,0.5796296296296296],[0,0.5796296296296296],[0,0.5796296296296296],[0,0.5796296296296296],[0,0.5796296296296296],[0,0.5796296296296296],[0,0.5796296296296296],[0,0.5796296296296296],[0,0.5796296296296296],[0,0.5796296296296296],[0,0.5796296296296296],[0,0.5796296296296296],[0,0.5777777777777777],[0.0020833333333333333,0.5574074074074075],[0.008333333333333333,0.5333333333333333],[0.013541666666666667,0.5148148148148148],[0.015625,0.5037037037037037],[0.01875,0.49444444444444446],[0.021875,0.48333333333333334],[0.022916666666666665,0.4703703703703704],[0.023958333333333335,0.4444444444444444],[0.026041666666666668,0.4388888888888889],[0.026041666666666668,0.43703703703703706],[0.026041666666666668,0.43703703703703706],[0.026041666666666668,0.43703703703703706],[0.026041666666666668,0.43703703703703706],[0.026041666666666668,0.43703703703703706],[0.026041666666666668,0.43703703703703706],[0.026041666666666668,0.43703703703703706],[0.026041666666666668,0.43703703703703706],[0.026041666666666668,0.43703703703703706],[0.026041666666666668,0.43703703703703706],[0.026041666666666668,0.43703703703703706],[0.025,0.44074074074074077],[0.021875,0.44814814814814813],[0.01875,0.45555555555555555],[0.017708333333333333,0.45740740740740743],[0.017708333333333333,0.45740740740740743],[0.017708333333333333,0.45740740740740743],[0.017708333333333333,0.45740740740740743],[0.01875,0.45],[0.021875,0.40370370370370373],[0.025,0.3537037037037037],[0.025,0.3055555555555556],[0.027083333333333334,0.2611111111111111],[0.027083333333333334,0.2537037037037037],[0.027083333333333334,0.23703703703703705],[0.027083333333333334,0.19814814814814816],[0.027083333333333334,0.16111111111111112],[0.027083333333333334,0.12777777777777777],[0.027083333333333334,0.10185185185185185],[0.027083333333333334,0.08888888888888889],[0.027083333333333334,0.08148148148148149],[0.027083333333333334,0.07592592592592592],[0.026041666666666668,0.07037037037037037],[0.025,0.06111111111111111]]","[[0.07604166666666666,-0.06574074074074074],[0.07604166666666666,-0.06574074074074074],[0.08687500000000009,-0.08518518518518518],[0.09583333333333334,-0.08592592592592588],[0.1196875000000001,-0.11981481481481479],[0.11760416666666676,-0.11037037037037041],[0.09208333333333343,-0.0948148148148148],[0.07354166666666657,-0.06777777777777783],[0.04906250000000002,0.0014814814814813973],[0.036354166666666646,0.022777777777777692],[0.036354166666666646,0.022777777777777692],[0.04739583333333333,-0.03185185185185194],[0.04739583333333333,-0.03185185185185194],[0.03083333333333336,-0.005555555555555556],[0.03083333333333336,-0.005555555555555556],[0.03718750000000005,-0.04259259259259259],[0.03718750000000005,-0.04259259259259259],[0.03104166666666662,-0.06129629629629634],[0.03104166666666662,-0.06129629629629634],[-0.016354166666666715,-0.05851851851851856],[-0.044062499999999956,-0.02907407407407416],[-0.044062499999999956,-0.02907407407407416],[-0.04104166666666664,-0.018333333333333292],[-0.03312499999999995,-0.03555555555555564],[-0.018124999999999978,-0.051111111111111156],[-0.003125,-0.06666666666666667],[-0.013125000000000024,-0.039074074074074115],[-0.008333333333333333,-0.05055555555555547],[-0.034166666666666616,-0.018333333333333292],[-0.04354166666666662,-0.002962962962963005],[0.027604166666666666,0.007037037037036953],[0.06114583333333338,0.0031481481481482323],[0.12312500000000005,0.00592592592592601],[0.18020833333333333,0.036666666666666584],[0.18020833333333333,0.036666666666666584],[0.22406249999999991,0.02240740740740745],[0.28187499999999993,-0.026666666666666623],[0.32958333333333345,-0.04222222222222214],[0.37739583333333326,-0.09592592592592594],[0.42520833333333335,-0.14962962962962964],[0.43760416666666657,-0.18333333333333332],[0.42083333333333334,-0.23055555555555557],[0.39479166666666665,-0.22740740740740742],[0.39479166666666665,-0.22740740740740742],[0.3541666666666667,-0.24962962962962965],[0.303125,-0.27314814814814814],[0.24854166666666658,-0.2796296296296296],[0.184375,-0.20629629629629626],[0.1319791666666667,-0.2],[0.0900000000000001,-0.12092592592592595],[0.04802083333333336,-0.0418518518518519],[0.030624999999999975,0.020555555555555598],[0.003125,0.08037037037037033],[-0.04125000000000002,0.05925925925925926],[-0.10718749999999998,0.07296296296296292],[-0.153125,0.07907407407407416],[-0.18239583333333337,0.10796296296296289],[-0.21604166666666663,0.09185185185185189],[-0.2625,0.12111111111111107],[-0.31354166666666666,0.12074074074074083],[-0.3578125,0.122037037037037],[-0.39520833333333333,0.11851851851851852],[-0.4423958333333334,0.09759259259259268],[-0.4452083333333333,0.14240740740740737],[-0.44406249999999997,0.14962962962962956],[-0.4530208333333333,0.17518518518518522],[-0.4717708333333333,0.1844444444444445],[-0.4717708333333333,0.1844444444444445],[-0.4905208333333333,0.19370370370370374],[-0.5068750000000001,0.19166666666666668],[-0.5129166666666667,0.19370370370370374],[-0.5129166666666667,0.19370370370370374],[-0.5257291666666667,0.19407407407407398],[-0.5119791666666667,0.17111111111111107],[-0.48843749999999997,0.1655555555555555],[-0.43427083333333333,0.1270370370370371],[-0.3763541666666666,0.10999999999999996],[-0.31656249999999997,0.07555555555555547],[-0.2515625,0.055740740740740785],[-0.1814583333333334,0.052407407407407326],[-0.10520833333333333,0.028888888888888933],[-0.03927083333333338,0.0012962962962963806],[0.04833333333333331,-0.002407407407407323],[0.109375,0.01722222222222214],[0.1787499999999999,0.0012962962962963806],[0.22062499999999996,-0.014814814814814815],[0.2526041666666667,-0.034444444444444486],[0.28322916666666675,-0.04611111111111107],[0.2972916666666668,-0.05703703703703706],[0.30625,-0.08444444444444449],[0.3182291666666667,-0.07555555555555557],[0.3302083333333333,-0.06666666666666667],[0.3146874999999999,-0.10092592592592593],[0.2991666666666667,-0.13518518518518519],[0.2640625,-0.06129629629629634],[0.2289583333333333,0.012592592592592508],[0.22218749999999995,0.06722222222222214],[0.20812499999999995,0.13148148148148148],[0.20989583333333334,0.1787037037037037],[0.19385416666666658,0.1638888888888889],[0.17739583333333328,0.13240740740740742],[0.17395833333333333,0.12296296296296293],[0.1765625,0.17481481481481478],[0.17916666666666667,0.22666666666666663],[0.19208333333333344,0.2022222222222223],[0.20499999999999996,0.17777777777777778],[0.19385416666666658,0.17111111111111107],[0.19000000000000009,0.15481481481481485],[0.18114583333333342,0.1646296296296296],[0.19010416666666666,0.23648148148148157],[0.19927083333333329,0.3088888888888888],[0.19541666666666657,0.3592592592592593],[0.2009375000000001,0.3827777777777779],[0.20645833333333338,0.40629629629629627],[0.21520833333333325,0.4142592592592593],[0.22395833333333334,0.4222222222222222],[0.22125000000000009,0.4359259259259259],[0.20895833333333325,0.4468518518518518],[0.1951041666666666,0.4401851851851853],[0.18125,0.4335185185185186],[0.1662499999999999,0.4105555555555556],[0.15125000000000005,0.3875925925925925],[0.1146874999999999,0.34666666666666673],[0.078125,0.30574074074074076],[0.03927083333333338,0.28407407407407403],[0.005520833333333286,0.25],[-0.00791666666666669,0.19796296296296292],[-0.028125,0.15240740740740732],[-0.03229166666666667,0.1527777777777778],[-0.01395833333333331,0.12462962962962955],[-0.01072916666666662,0.10722222222222218],[-0.01072916666666662,0.10722222222222218],[-0.007500000000000047,0.08981481481481482],[-0.007500000000000047,0.08981481481481482],[0.030624999999999975,0.10851851851851856],[0.030624999999999975,0.10851851851851856],[0.09583333333333334,0.10425925925925918],[0.09583333333333334,0.10425925925925918],[0.14656250000000004,0.07740740740740733],[0.14656250000000004,0.07740740740740733],[0.1943749999999999,0.08407407407407404],[0.1943749999999999,0.08407407407407404],[0.23468749999999997,0.10314814814814824],[0.28927083333333337,0.10722222222222218],[0.3385416666666667,0.062037037037037036],[0.36531250000000004,0.04537037037037037],[0.40812499999999996,0.03370370370370379],[0.4484375,0.01518518518518527],[0.4658333333333334,-0.036666666666666584],[0.4547916666666666,-0.028703703703703703],[0.4548958333333334,0.009444444444444486],[0.4506249999999999,0.0257407407407407],[0.4575000000000001,0.04222222222222214],[0.4601041666666667,0.0911111111111112],[0.4535416666666668,0.12981481481481486],[0.4491666666666667,0.1853703703703704],[0.42729166666666674,0.24092592592592596],[0.4079166666666666,0.30333333333333323],[0.40437500000000004,0.3574074074074074],[0.40437500000000004,0.3574074074074074],[0.4045833333333334,0.3651851851851853],[0.4027083333333332,0.36870370370370376],[0.41218750000000004,0.35],[0.4147916666666667,0.3359259259259259],[0.4382291666666667,0.30037037037037045],[0.459375,0.2794444444444444],[0.4535416666666668,0.24666666666666676],[0.4652083333333332,0.21388888888888888],[0.47666666666666657,0.15314814814814823],[0.4722916666666668,0.1007407407407407],[0.46552083333333344,0.057777777777777865],[0.45760416666666665,0.026851851851851852],[0.4405208333333334,0.018888888888888972],[0.4133333333333333,-0.01592592592592597],[0.37166666666666665,-0.050370370370370454],[0.32270833333333326,-0.05851851851851856],[0.28270833333333345,-0.03481481481481473],[0.24270833333333333,-0.011111111111111112],[0.2040625000000001,0.006296296296296254],[0.16541666666666663,0.02370370370370362],[0.1234375,0.05018518518518523],[0.08802083333333334,0.06129629629629634],[0.052187500000000026,0.09944444444444453],[0.033958333333333354,0.1259259259259259],[0.033958333333333354,0.1259259259259259],[0.007604166666666619,0.15203703703703708],[0.0140625,0.1814814814814815],[0.04833333333333331,0.13666666666666658],[0.09197916666666663,0.14981481481481476],[0.13447916666666657,0.19722222222222222],[0.18177083333333333,0.22777777777777777],[0.23239583333333325,0.2492592592592593],[0.26843750000000005,0.2551851851851851],[0.30489583333333337,0.23407407407407405],[0.3338541666666667,0.2514814814814814],[0.3776041666666667,0.28833333333333344],[0.3958333333333333,0.29555555555555557],[0.3988541666666668,0.32629629629629636],[0.40562500000000007,0.2825925925925926],[0.4007291666666667,0.25759259259259265],[0.3772916666666667,0.26481481481481484],[0.3712500000000001,0.26500000000000007],[0.3663541666666667,0.26796296296296307],[0.3614583333333333,0.27092592592592585],[0.3538541666666667,0.2699999999999999],[0.32395833333333335,0.2824074074074074],[0.3333333333333333,0.2681481481481481],[0.3459374999999999,0.26777777777777784],[0.3085416666666667,0.29000000000000004],[0.28885416666666663,0.285],[0.27677083333333335,0.2418518518518519],[0.24729166666666677,0.20574074074074078],[0.2287499999999999,0.18000000000000008],[0.20614583333333342,0.16351851851851842],[0.18333333333333332,0.19425925925925921],[0.17614583333333325,0.1925925925925926],[0.13395833333333323,0.09759259259259268],[0.09177083333333323,0.0025925925925925505],[0.08645833333333333,-0.09851851851851849],[0.07333333333333343,-0.1655555555555555],[0.0609375,-0.23851851851851855],[0.03968750000000002,-0.2833333333333333],[0.020937500000000022,-0.3257407407407407],[-0.0006250000000000236,-0.4035185185185185],[-0.022083333333333382,-0.49018518518518517],[-0.04354166666666662,-0.5768518518518518],[-0.049374999999999974,-0.5792592592592593],[-0.05520833333333333,-0.5816666666666667],[-0.06104166666666669,-0.5618518518518518],[-0.06802083333333328,-0.5525925925925925],[-0.06625000000000002,-0.5611111111111111],[-0.05562499999999997,-0.5977777777777779],[-0.04541666666666669,-0.6303703703703704],[-0.0296875,-0.6187037037037038],[-0.022083333333333382,-0.6525925925925925],[-0.014479166666666644,-0.6864814814814815],[-0.00458333333333331,-0.6785185185185185],[0.005312500000000024,-0.6705555555555556],[0,-0.7022222222222222],[0,-0.7022222222222222],[-0.002395833333333286,-0.7488888888888888],[-0.011770833333333286,-0.7407407407407407],[-0.021145833333333287,-0.7325925925925927],[-0.021354166666666667,-0.7607407407407407],[-0.02020833333333331,-0.8070370370370371],[-0.016875000000000046,-0.8348148148148148],[0.0036458333333333334,-0.8005555555555556],[-0.017916666666666713,-0.8233333333333334],[-0.02322916666666662,-0.8011111111111111],[-0.013333333333333286,-0.7614814814814814],[-0.014583333333333334,-0.7837037037037037],[-0.014583333333333334,-0.7837037037037037],[-0.007083333333333286,-0.7668518518518519],[-0.007083333333333286,-0.7668518518518519],[-0.005312500000000024,-0.7044444444444444],[-0.005312500000000024,-0.7044444444444444],[0.017812500000000023,-0.6588888888888889],[0.017812500000000023,-0.6588888888888889],[0.022708333333333285,-0.6261111111111112],[0.022708333333333285,-0.6261111111111112],[0.03572916666666662,-0.5925925925925926],[0.03572916666666662,-0.5925925925925926],[0.0140625,-0.6207407407407407],[0.0140625,-0.6207407407407407],[0.033854166666666664,-0.5816666666666667],[0.05531250000000002,-0.5755555555555556],[0.07677083333333339,-0.5694444444444444],[0.078125,-0.5153703703703704],[0.0743750000000001,-0.5087037037037037],[0.07718749999999991,-0.571111111111111],[0.06520833333333335,-0.5605555555555556],[0.06760416666666676,-0.5209259259259259],[0.05666666666666664,-0.5062962962962962],[0.07125000000000009,-0.4842592592592593],[0.065625,-0.5168518518518519],[0.04208333333333331,-0.5614814814814815],[0.03083333333333336,-0.5761111111111111],[0.050833333333333286,-0.5768518518518518],[0.05583333333333336,-0.6062962962962962],[0.060000000000000026,-0.6122222222222222],[0.058749999999999976,-0.6075925925925927],[0.065625,-0.6109259259259259],[0.06114583333333338,-0.6327777777777778],[0.049270833333333285,-0.665],[0.044270833333333336,-0.6596296296296296],[0.06583333333333338,-0.6203703703703703],[0.03312499999999995,-0.6207407407407407],[0.025625000000000023,-0.5764814814814815],[0.03270833333333331,-0.4905555555555555],[0.03875000000000005,-0.4294444444444444],[0.03354166666666671,-0.4075925925925926],[0.019895833333333356,-0.41444444444444445],[0.035104166666666714,-0.4],[0.05437500000000005,-0.37351851851851847],[0.06364583333333336,-0.3403703703703704],[0.04635416666666667,-0.3411111111111111],[0.0546875,-0.31592592592592594],[0.03781249999999995,-0.33537037037037043],[0.03781249999999995,-0.33537037037037043],[0.03937499999999995,-0.3809259259259259],[0.04354166666666662,-0.3955555555555556],[0.04041666666666662,-0.38129629629629624],[0.028125,-0.3787037037037037],[0.01229166666666662,-0.36203703703703705],[0.008333333333333333,-0.32814814814814813],[0.00614583333333331,-0.3001851851851852]]","[[0.07604166666666666,-0.06574074074074074,0.00020000000297670795],[0.07604166666666666,-0.06574074074074074,0.04180000001191786],[0.08687500000000009,-0.08518518518518518,0.04790000000595285],[0.09583333333333334,-0.08592592592592588,0.06160000000893717],[0.1196875000000001,-0.11981481481481479,0.07800000000000296],[0.11760416666666676,-0.11037037037037041,0.09470000000297318],[0.09208333333333343,-0.0948148148148148,0.11120000000298091],[0.07354166666666657,-0.06777777777777783,0.12790000000595114],[0.04906250000000002,0.0014814814814813973,0.14510000000893797],[0.036354166666666646,0.022777777777777692,0.16120000000297807],[0.036354166666666646,0.022777777777777692,0.17799999999999727],[0.04739583333333333,-0.03185185185185194,0.19460000000893274],[0.04739583333333333,-0.03185185185185194,0.21120000000297523],[0.03083333333333336,-0.005555555555555556,0.22790000000595967],[0.03083333333333336,-0.005555555555555556,0.2446000000089299],[0.03718750000000005,-0.04259259259259259,0.26130000001191434],[0.03718750000000005,-0.04259259259259259,0.2779000000059568],[0.03104166666666662,-0.06129629629629634,0.2944999999999993],[0.03104166666666662,-0.06129629629629634,0.3113000000119115],[-0.016354166666666715,-0.05851851851851856,0.32800000000000296],[-0.044062499999999956,-0.02907407407407416,0.3482000000029757],[-0.044062499999999956,-0.02907407407407416,0.3612000000029809],[-0.04104166666666664,-0.018333333333333292,0.37810000000894206],[-0.03312499999999995,-0.03555555555555564,0.3946000000089356],[-0.018124999999999978,-0.051111111111111156,0.41120000000297807],[-0.003125,-0.06666666666666667,0.4279000000059625],[-0.013125000000000024,-0.039074074074074115,0.44460000000893274],[-0.008333333333333333,-0.05055555555555547,0.4619000000059543],[-0.034166666666666616,-0.018333333333333292,0.47799999999999443],[-0.04354166666666662,-0.002962962962963005,0.4946000000089299],[0.027604166666666666,0.007037037037036953,0.5112000000029724],[0.06114583333333338,0.0031481481481482323,0.5303000000119198],[0.12312500000000005,0.00592592592592601,0.5446000000089413],[0.18020833333333333,0.036666666666666584,0.5613000000119115],[0.18020833333333333,0.036666666666666584,0.578000000000003],[0.22406249999999991,0.02240740740740745,0.5946000000089384],[0.28187499999999993,-0.026666666666666623,0.6112000000029809],[0.32958333333333345,-0.04222222222222214,0.6279000000059511],[0.37739583333333326,-0.09592592592592594,0.6446000000089356],[0.42520833333333335,-0.14962962962962964,0.6612000000029781],[0.43760416666666657,-0.18333333333333332,0.6779999999999973],[0.42083333333333334,-0.23055555555555557,0.6946000000089327],[0.39479166666666665,-0.22740740740740742,0.7112000000029752],[0.39479166666666665,-0.22740740740740742,0.7279000000059597],[0.3541666666666667,-0.24962962962962965,0.7446000000089299],[0.303125,-0.27314814814814814,0.7612000000029724],[0.24854166666666658,-0.2796296296296296,0.7814999999999941],[0.184375,-0.20629629629629626,0.7949000000059527],[0.1319791666666667,-0.2,0.8113000000119115],[0.0900000000000001,-0.12092592592592595,0.827900000005954],[0.04802083333333336,-0.0418518518518519,0.8446000000089384],[0.030624999999999975,0.020555555555555598,0.8612000000029809],[0.003125,0.08037037037037033,0.8779000000059511],[-0.04125000000000002,0.05925925925925926,0.8946000000089356],[-0.10718749999999998,0.07296296296296292,0.91130000001192],[-0.153125,0.07907407407407416,0.9279000000059625],[-0.18239583333333337,0.10796296296296289,0.9446000000089327],[-0.21604166666666663,0.09185185185185189,0.9612000000029752],[-0.2625,0.12111111111111107,0.9779999999999944],[-0.31354166666666666,0.12074074074074083,0.9947000000029789],[-0.3578125,0.122037037037037,1.0113000000119143],[-0.39520833333333333,0.11851851851851852,1.027800000011922],[-0.4423958333333334,0.09759259259259268,1.0446000000089413],[-0.4452083333333333,0.14240740740740737,1.0612000000029695],[-0.44406249999999997,0.14962962962962956,1.0781000000089307],[-0.4530208333333333,0.17518518518518522,1.0946000000089384],[-0.4717708333333333,0.1844444444444445,1.1113000000119229],[-0.4717708333333333,0.1844444444444445,1.1279000000059511],[-0.4905208333333333,0.19370370370370374,1.1446000000089356],[-0.5068750000000001,0.19166666666666668,1.161200000002978],[-0.5129166666666667,0.19370370370370374,1.1779999999999973],[-0.5129166666666667,0.19370370370370374,1.1944999999999908],[-0.5257291666666667,0.19407407407407398,1.2112000000029752],[-0.5119791666666667,0.17111111111111107,1.2278000000119107],[-0.48843749999999997,0.1655555555555555,1.2445000000000022],[-0.43427083333333333,0.1270370370370371,1.2612000000029724],[-0.3763541666666666,0.10999999999999996,1.2779999999999916],[-0.31656249999999997,0.07555555555555547,1.294800000011918],[-0.2515625,0.055740740740740785,1.3118000000119139],[-0.1814583333333334,0.052407407407407326,1.327900000005954],[-0.10520833333333333,0.028888888888888933,1.3444999999999965],[-0.03927083333333338,0.0012962962962963806,1.361200000002981],[0.04833333333333331,-0.002407407407407323,1.3780000000000001],[0.109375,0.01722222222222214,1.3944999999999936],[0.1787499999999999,0.0012962962962963806,1.41130000001192],[0.22062499999999996,-0.014814814814814815,1.4278000000119135],[0.2526041666666667,-0.034444444444444486,1.4446000000089327],[0.28322916666666675,-0.04611111111111107,1.4612000000029752],[0.2972916666666668,-0.05703703703703706,1.4779000000059597],[0.30625,-0.08444444444444449,1.4974000000059533],[0.3182291666666667,-0.07555555555555557,1.5125000000000028],[0.3302083333333333,-0.06666666666666667,1.5279000000059568],[0.3146874999999999,-0.10092592592592593,1.5444999999999993],[0.2991666666666667,-0.13518518518518519,1.5613000000119115],[0.2640625,-0.06129629629629634,1.5781000000089307],[0.2289583333333333,0.012592592592592508,1.5946000000089384],[0.22218749999999995,0.06722222222222214,1.6147000000029834],[0.20812499999999995,0.13148148148148148,1.6279000000059511],[0.20989583333333334,0.1787037037037037,1.6446000000089356],[0.19385416666666658,0.1638888888888889,1.66130000001192],[0.17739583333333328,0.13240740740740742,1.6779999999999973],[0.17395833333333333,0.12296296296296293,1.6944999999999908],[0.1765625,0.17481481481481478,1.7112000000029752],[0.17916666666666667,0.22666666666666663,1.7279000000059597],[0.19208333333333344,0.2022222222222223,1.7445000000000022],[0.20499999999999996,0.17777777777777778,1.7612000000029724],[0.19385416666666658,0.17111111111111107,1.7779999999999916],[0.19000000000000009,0.15481481481481485,1.7946000000089413],[0.18114583333333342,0.1646296296296296,1.8113000000119115],[0.19010416666666666,0.23648148148148157,1.8298000000119146],[0.19927083333333329,0.3088888888888888,1.8446000000089384],[0.19541666666666657,0.3592592592592593,1.861200000002981],[0.2009375000000001,0.3827777777777779,1.8780000000000001],[0.20645833333333338,0.40629629629629627,1.8944999999999936],[0.21520833333333325,0.4142592592592593,1.911200000002978],[0.22395833333333334,0.4222222222222222,1.9278000000119135],[0.22125000000000009,0.4359259259259259,1.9446000000089327],[0.20895833333333325,0.4468518518518518,1.9612000000029752],[0.1951041666666666,0.4401851851851853,1.9779999999999944],[0.18125,0.4335185185185186,1.99460000000893],[0.1662499999999999,0.4105555555555556,2.0112000000029724],[0.15125000000000005,0.3875925925925925,2.0318000000119127],[0.1146874999999999,0.34666666666666673,2.0474000000059505],[0.078125,0.30574074074074076,2.061600000008937],[0.03927083333333338,0.28407407407407403,2.078000000000003],[0.005520833333333286,0.25,2.0946000000089384],[-0.00791666666666669,0.19796296296296292,2.111200000002981],[-0.028125,0.15240740740740732,2.127900000005951],[-0.03229166666666667,0.1527777777777778,2.1444999999999936],[-0.01395833333333331,0.12462962962962955,2.16130000001192],[-0.01072916666666662,0.10722222222222218,2.1779999999999973],[-0.01072916666666662,0.10722222222222218,2.194499999999991],[-0.007500000000000047,0.08981481481481482,2.2112000000029752],[-0.007500000000000047,0.08981481481481482,2.2279000000059597],[0.030624999999999975,0.10851851851851856,2.244500000000002],[0.030624999999999975,0.10851851851851856,2.2612000000029724],[0.09583333333333334,0.10425925925925918,2.2779999999999916],[0.09583333333333334,0.10425925925925918,2.2946000000089413],[0.14656250000000004,0.07740740740740733,2.3112000000029695],[0.14656250000000004,0.07740740740740733,2.327900000005954],[0.1943749999999999,0.08407407407407404,2.3446000000089384],[0.1943749999999999,0.08407407407407404,2.361200000002981],[0.23468749999999997,0.10314814814814824,2.378],[0.28927083333333337,0.10722222222222218,2.3944999999999936],[0.3385416666666667,0.062037037037037036,2.411200000002978],[0.36531250000000004,0.04537037037037037,2.4279000000059625],[0.40812499999999996,0.03370370370370379,2.444499999999991],[0.4484375,0.01518518518518527,2.4612000000029752],[0.4658333333333334,-0.036666666666666584,2.4779999999999944],[0.4547916666666666,-0.028703703703703703,2.49460000000893],[0.4548958333333334,0.009444444444444486,2.5113000000119143],[0.4506249999999999,0.0257407407407407,2.527900000005957],[0.4575000000000001,0.04222222222222214,2.5446000000089413],[0.4601041666666667,0.0911111111111112,2.5612000000029695],[0.4535416666666668,0.12981481481481486,2.577900000005954],[0.4491666666666667,0.1853703703703704,2.5944999999999965],[0.42729166666666674,0.24092592592592596,2.611200000002981],[0.4079166666666666,0.30333333333333323,2.627900000005951],[0.40437500000000004,0.3574074074074074,2.6593000000119105],[0.40437500000000004,0.3574074074074074,2.6723000000119157],[0.4045833333333334,0.3651851851851853,2.6807000000029717],[0.4027083333333332,0.36870370370370376,2.694499999999991],[0.41218750000000004,0.35,2.711400000005952],[0.4147916666666667,0.3359259259259259,2.7279000000059597],[0.4382291666666667,0.30037037037037045,2.744500000000002],[0.459375,0.2794444444444444,2.7612000000029724],[0.4535416666666668,0.24666666666666676,2.777900000005957],[0.4652083333333332,0.21388888888888888,2.7944999999999993],[0.47666666666666657,0.15314814814814823,2.8136000000089325],[0.4722916666666668,0.1007407407407407,2.827900000005954],[0.46552083333333344,0.057777777777777865,2.8444999999999965],[0.45760416666666665,0.026851851851851852,2.861200000002981],[0.4405208333333334,0.018888888888888972,2.878100000008942],[0.4133333333333333,-0.01592592592592597,2.8944999999999936],[0.37166666666666665,-0.050370370370370454,2.9111000000089433],[0.32270833333333326,-0.05851851851851856,2.9279000000059625],[0.28270833333333345,-0.03481481481481473,2.944499999999991],[0.24270833333333333,-0.011111111111111112,2.9612000000029752],[0.2040625000000001,0.006296296296296254,2.9779000000059597],[0.16541666666666663,0.02370370370370362,2.994500000000002],[0.1234375,0.05018518518518523,3.0112000000029724],[0.08802083333333334,0.06129629629629634,3.027900000005957],[0.052187500000000026,0.09944444444444453,3.04640000000596],[0.033958333333333354,0.1259259259259259,3.0612000000029695],[0.033958333333333354,0.1259259259259259,3.077900000005954],[0.007604166666666619,0.15203703703703708,3.0944999999999965],[0.0140625,0.1814814814814815,3.111100000008932],[0.04833333333333331,0.13666666666666658,3.1278000000119164],[0.09197916666666663,0.14981481481481476,3.1444999999999936],[0.13447916666666657,0.19722222222222222,3.161200000002978],[0.18177083333333333,0.22777777777777777,3.1779000000059625],[0.23239583333333325,0.2492592592592593,3.1970000000000027],[0.26843750000000005,0.2551851851851851,3.2112000000029752],[0.30489583333333337,0.23407407407407405,3.2279000000059597],[0.3338541666666667,0.2514814814814814,3.24460000000893],[0.3776041666666667,0.28833333333333344,3.2612000000029724],[0.3958333333333333,0.29555555555555557,3.2811000000089336],[0.3988541666666668,0.32629629629629636,3.2944999999999993],[0.40562500000000007,0.2825925925925926,3.311100000008935],[0.4007291666666667,0.25759259259259265,3.327900000005954],[0.3772916666666667,0.26481481481481484,3.3444999999999965],[0.3712500000000001,0.26500000000000007,3.363300000011918],[0.3663541666666667,0.26796296296296307,3.377900000005951],[0.3614583333333333,0.27092592592592585,3.3944999999999936],[0.3538541666666667,0.2699999999999999,3.411200000002978],[0.32395833333333335,0.2824074074074074,3.4279000000059625],[0.3333333333333333,0.2681481481481481,3.4446000000089327],[0.3459374999999999,0.26777777777777784,3.461300000011917],[0.3085416666666667,0.29000000000000004,3.4779000000059597],[0.28885416666666663,0.285,3.4963000000119138],[0.27677083333333335,0.2418518518518519,3.5113000000119143],[0.24729166666666677,0.20574074074074078,3.5281000000089335],[0.2287499999999999,0.18000000000000008,3.5469000000059623],[0.20614583333333342,0.16351851851851842,3.5614000000059605],[0.18333333333333332,0.19425925925925921,3.5781000000089307],[0.17614583333333325,0.1925925925925926,3.5963000000119223],[0.13395833333333323,0.09759259259259268,3.6114000000059576],[0.09177083333333323,0.0025925925925925505,3.628],[0.08645833333333333,-0.09851851851851849,3.6446000000089356],[0.07333333333333343,-0.1655555555555555,3.6629999999999967],[0.0609375,-0.23851851851851855,3.678100000008939],[0.03968750000000002,-0.2833333333333333,3.6946000000089327],[0.020937500000000022,-0.3257407407407407,3.713600000008938],[-0.0006250000000000236,-0.4035185185185185,3.7281000000089364],[-0.022083333333333382,-0.49018518518518517,3.744500000000002],[-0.04354166666666662,-0.5768518518518518,3.7612000000029724],[-0.049374999999999974,-0.5792592592592593,3.777900000005957],[-0.05520833333333333,-0.5816666666666667,3.7944999999999993],[-0.06104166666666669,-0.5618518518518518,3.811100000008935],[-0.06802083333333328,-0.5525925925925925,3.8298000000119146],[-0.06625000000000002,-0.5611111111111111,3.844700000002973],[-0.05562499999999997,-0.5977777777777779,3.8614000000059576],[-0.04541666666666669,-0.6303703703703704,3.8815000000000026],[-0.0296875,-0.6187037037037038,3.895700000002975],[-0.022083333333333382,-0.6525925925925925,3.911400000005955],[-0.014479166666666644,-0.6864814814814815,3.9278000000119135],[-0.00458333333333331,-0.6785185185185185,3.944499999999991],[0.005312500000000024,-0.6705555555555556,3.9626000000089334],[0,-0.7022222222222222,3.978200000002971],[0,-0.7022222222222222,3.99460000000893],[-0.002395833333333286,-0.7488888888888888,4.011300000011914],[-0.011770833333333286,-0.7407407407407407,4.027900000005957],[-0.021145833333333287,-0.7325925925925927,4.044499999999999],[-0.021354166666666667,-0.7607407407407407,4.0612000000029695],[-0.02020833333333331,-0.8070370370370371,4.078000000000003],[-0.016875000000000046,-0.8348148148148148,4.0944999999999965],[0.0036458333333333334,-0.8005555555555556,4.111200000002981],[-0.017916666666666713,-0.8233333333333334,4.127800000011916],[-0.02322916666666662,-0.8011111111111111,4.144499999999994],[-0.013333333333333286,-0.7614814814814814,4.1617000000029805],[-0.014583333333333334,-0.7837037037037037,4.177999999999997],[-0.014583333333333334,-0.7837037037037037,4.2017000000029725],[-0.007083333333333286,-0.7668518518518519,4.211200000002975],[-0.007083333333333286,-0.7668518518518519,4.22790000000596],[-0.005312500000000024,-0.7044444444444444,4.244500000000002],[-0.005312500000000024,-0.7044444444444444,4.261200000002972],[0.017812500000000023,-0.6588888888888889,4.2781000000089335],[0.017812500000000023,-0.6588888888888889,4.294499999999999],[0.022708333333333285,-0.6261111111111112,4.3112000000029695],[0.022708333333333285,-0.6261111111111112,4.327900000005954],[0.03572916666666662,-0.5925925925925926,4.3444999999999965],[0.03572916666666662,-0.5925925925925926,4.361200000002981],[0.0140625,-0.6207407407407407,4.380900000005951],[0.0140625,-0.6207407407407407,4.39470000000297],[0.033854166666666664,-0.5816666666666667,4.411400000005955],[0.05531250000000002,-0.5755555555555556,4.427999999999997],[0.07677083333333339,-0.5694444444444444,4.446600000008942],[0.078125,-0.5153703703703704,4.461400000005952],[0.0743750000000001,-0.5087037037037037,4.4796000000089435],[0.07718749999999991,-0.571111111111111,4.498100000008932],[0.06520833333333335,-0.5605555555555556,4.513600000008935],[0.06760416666666676,-0.5209259259259259,4.53070000000298],[0.05666666666666664,-0.5062962962962962,4.547100000008939],[0.07125000000000009,-0.4842592592592593,4.561499999999995],[0.065625,-0.5168518518518519,4.578000000000003],[0.04208333333333331,-0.5614814814814815,4.594600000008938],[0.03083333333333336,-0.5761111111111111,4.611100000008932],[0.050833333333333286,-0.5768518518518518,4.627800000011916],[0.05583333333333336,-0.6062962962962962,4.644499999999994],[0.060000000000000026,-0.6122222222222222,4.661200000002978],[0.058749999999999976,-0.6075925925925927,4.6779000000059625],[0.065625,-0.6109259259259259,4.694499999999991],[0.06114583333333338,-0.6327777777777778,4.711200000002975],[0.049270833333333285,-0.665,4.731300000011913],[0.044270833333333336,-0.6596296296296296,4.744900000005956],[0.06583333333333338,-0.6203703703703703,4.761400000005963],[0.03312499999999995,-0.6207407407407407,4.7828000000119175],[0.025625000000000023,-0.5764814814814815,4.797300000011916],[0.03270833333333331,-0.4905555555555555,4.812300000011916],[0.03875000000000005,-0.4294444444444444,4.827800000011919],[0.03354166666666671,-0.4075925925925926,4.8468000000119105],[0.019895833333333356,-0.41444444444444445,4.861400000005958],[0.035104166666666714,-0.4,4.878300000011919],[0.05437500000000005,-0.37351851851851847,4.898300000011915],[0.06364583333333336,-0.3403703703703704,4.913800000011918],[0.04635416666666667,-0.3411111111111111,4.927999999999997],[0.0546875,-0.31592592592592594,4.944700000002982],[0.03781249999999995,-0.33537037037037043,4.964500000000001],[0.03781249999999995,-0.33537037037037043,4.977999999999994],[0.03937499999999995,-0.3809259259259259,4.99460000000893],[0.04354166666666662,-0.3955555555555556,5.013499999999993],[0.04041666666666662,-0.38129629629629624,5.027999999999992],[0.028125,-0.3787037037037037,5.044700000002976],[0.01229166666666662,-0.36203703703703705,5.064600000008937],[0.008333333333333333,-0.32814814814814813,5.080900000005954],[0.00614583333333331,-0.3001851851851852,5.095999999999989]]","[0.00020000000297670795,0.04180000001191786,0.04790000000595285,0.06160000000893717,0.07800000000000296,0.09470000000297318,0.11120000000298091,0.12790000000595114,0.14510000000893797,0.16120000000297807,0.17799999999999727,0.19460000000893274,0.21120000000297523,0.22790000000595967,0.2446000000089299,0.26130000001191434,0.2779000000059568,0.2944999999999993,0.3113000000119115,0.32800000000000296,0.3482000000029757,0.3612000000029809,0.37810000000894206,0.3946000000089356,0.41120000000297807,0.4279000000059625,0.44460000000893274,0.4619000000059543,0.47799999999999443,0.4946000000089299,0.5112000000029724,0.5303000000119198,0.5446000000089413,0.5613000000119115,0.578000000000003,0.5946000000089384,0.6112000000029809,0.6279000000059511,0.6446000000089356,0.6612000000029781,0.6779999999999973,0.6946000000089327,0.7112000000029752,0.7279000000059597,0.7446000000089299,0.7612000000029724,0.7814999999999941,0.7949000000059527,0.8113000000119115,0.827900000005954,0.8446000000089384,0.8612000000029809,0.8779000000059511,0.8946000000089356,0.91130000001192,0.9279000000059625,0.9446000000089327,0.9612000000029752,0.9779999999999944,0.9947000000029789,1.0113000000119143,1.027800000011922,1.0446000000089413,1.0612000000029695,1.0781000000089307,1.0946000000089384,1.1113000000119229,1.1279000000059511,1.1446000000089356,1.161200000002978,1.1779999999999973,1.1944999999999908,1.2112000000029752,1.2278000000119107,1.2445000000000022,1.2612000000029724,1.2779999999999916,1.294800000011918,1.3118000000119139,1.327900000005954,1.3444999999999965,1.361200000002981,1.3780000000000001,1.3944999999999936,1.41130000001192,1.4278000000119135,1.4446000000089327,1.4612000000029752,1.4779000000059597,1.4974000000059533,1.5125000000000028,1.5279000000059568,1.5444999999999993,1.5613000000119115,1.5781000000089307,1.5946000000089384,1.6147000000029834,1.6279000000059511,1.6446000000089356,1.66130000001192,1.6779999999999973,1.6944999999999908,1.7112000000029752,1.7279000000059597,1.7445000000000022,1.7612000000029724,1.7779999999999916,1.7946000000089413,1.8113000000119115,1.8298000000119146,1.8446000000089384,1.861200000002981,1.8780000000000001,1.8944999999999936,1.911200000002978,1.9278000000119135,1.9446000000089327,1.9612000000029752,1.9779999999999944,1.99460000000893,2.0112000000029724,2.0318000000119127,2.0474000000059505,2.061600000008937,2.078000000000003,2.0946000000089384,2.111200000002981,2.127900000005951,2.1444999999999936,2.16130000001192,2.1779999999999973,2.194499999999991,2.2112000000029752,2.2279000000059597,2.244500000000002,2.2612000000029724,2.2779999999999916,2.2946000000089413,2.3112000000029695,2.327900000005954,2.3446000000089384,2.361200000002981,2.378,2.3944999999999936,2.411200000002978,2.4279000000059625,2.444499999999991,2.4612000000029752,2.4779999999999944,2.49460000000893,2.5113000000119143,2.527900000005957,2.5446000000089413,2.5612000000029695,2.577900000005954,2.5944999999999965,2.611200000002981,2.627900000005951,2.6593000000119105,2.6723000000119157,2.6807000000029717,2.694499999999991,2.711400000005952,2.7279000000059597,2.744500000000002,2.7612000000029724,2.777900000005957,2.7944999999999993,2.8136000000089325,2.827900000005954,2.8444999999999965,2.861200000002981,2.878100000008942,2.8944999999999936,2.9111000000089433,2.9279000000059625,2.944499999999991,2.9612000000029752,2.9779000000059597,2.994500000000002,3.0112000000029724,3.027900000005957,3.04640000000596,3.0612000000029695,3.077900000005954,3.0944999999999965,3.111100000008932,3.1278000000119164,3.1444999999999936,3.161200000002978,3.1779000000059625,3.1970000000000027,3.2112000000029752,3.2279000000059597,3.24460000000893,3.2612000000029724,3.2811000000089336,3.2944999999999993,3.311100000008935,3.327900000005954,3.3444999999999965,3.363300000011918,3.377900000005951,3.3944999999999936,3.411200000002978,3.4279000000059625,3.4446000000089327,3.461300000011917,3.4779000000059597,3.4963000000119138,3.5113000000119143,3.5281000000089335,3.5469000000059623,3.5614000000059605,3.5781000000089307,3.5963000000119223,3.6114000000059576,3.628,3.6446000000089356,3.6629999999999967,3.678100000008939,3.6946000000089327,3.713600000008938,3.7281000000089364,3.744500000000002,3.7612000000029724,3.777900000005957,3.7944999999999993,3.811100000008935,3.8298000000119146,3.844700000002973,3.8614000000059576,3.8815000000000026,3.895700000002975,3.911400000005955,3.9278000000119135,3.944499999999991,3.9626000000089334,3.978200000002971,3.99460000000893,4.011300000011914,4.027900000005957,4.044499999999999,4.0612000000029695,4.078000000000003,4.0944999999999965,4.111200000002981,4.127800000011916,4.144499999999994,4.1617000000029805,4.177999999999997,4.2017000000029725,4.211200000002975,4.22790000000596,4.244500000000002,4.261200000002972,4.2781000000089335,4.294499999999999,4.3112000000029695,4.327900000005954,4.3444999999999965,4.361200000002981,4.380900000005951,4.39470000000297,4.411400000005955,4.427999999999997,4.446600000008942,4.461400000005952,4.4796000000089435,4.498100000008932,4.513600000008935,4.53070000000298,4.547100000008939,4.561499999999995,4.578000000000003,4.594600000008938,4.611100000008932,4.627800000011916,4.644499999999994,4.661200000002978,4.6779000000059625,4.694499999999991,4.711200000002975,4.731300000011913,4.744900000005956,4.761400000005963,4.7828000000119175,4.797300000011916,4.812300000011916,4.827800000011919,4.8468000000119105,4.861400000005958,4.878300000011919,4.898300000011915,4.913800000011918,4.927999999999997,4.944700000002982,4.964500000000001,4.977999999999994,4.99460000000893,5.013499999999993,5.027999999999992,5.044700000002976,5.064600000008937,5.080900000005954,5.095999999999989]","[1733198952239,1733198952273,1733198952280,1733198952293,1733198952310,1733198952326,1733198952343,1733198952360,1733198952377,1733198952393,1733198952410,1733198952426,1733198952443,1733198952460,1733198952476,1733198952493,1733198952510,1733198952526,1733198952543,1733198952560,1733198952580,1733198952593,1733198952610,1733198952626,1733198952643,1733198952660,1733198952676,1733198952694,1733198952710,1733198952726,1733198952743,1733198952762,1733198952776,1733198952793,1733198952810,1733198952826,1733198952843,1733198952860,1733198952876,1733198952893,1733198952910,1733198952926,1733198952943,1733198952960,1733198952976,1733198952993,1733198953013,1733198953027,1733198953043,1733198953060,1733198953076,1733198953093,1733198953110,1733198953126,1733198953143,1733198953160,1733198953176,1733198953193,1733198953210,1733198953226,1733198953243,1733198953260,1733198953276,1733198953293,1733198953310,1733198953326,1733198953343,1733198953360,1733198953376,1733198953393,1733198953410,1733198953426,1733198953443,1733198953460,1733198953476,1733198953493,1733198953510,1733198953526,1733198953543,1733198953560,1733198953576,1733198953593,1733198953610,1733198953626,1733198953643,1733198953660,1733198953676,1733198953693,1733198953710,1733198953729,1733198953744,1733198953760,1733198953776,1733198953793,1733198953810,1733198953826,1733198953846,1733198953860,1733198953876,1733198953893,1733198953910,1733198953926,1733198953943,1733198953960,1733198953976,1733198953993,1733198954010,1733198954026,1733198954043,1733198954061,1733198954076,1733198954093,1733198954110,1733198954126,1733198954143,1733198954160,1733198954176,1733198954193,1733198954210,1733198954226,1733198954243,1733198954263,1733198954279,1733198954293,1733198954310,1733198954326,1733198954343,1733198954360,1733198954376,1733198954393,1733198954410,1733198954426,1733198954443,1733198954460,1733198954476,1733198954493,1733198954510,1733198954526,1733198954543,1733198954560,1733198954576,1733198954593,1733198954610,1733198954626,1733198954643,1733198954660,1733198954676,1733198954693,1733198954710,1733198954726,1733198954743,1733198954760,1733198954776,1733198954793,1733198954810,1733198954826,1733198954843,1733198954859,1733198954891,1733198954904,1733198954912,1733198954926,1733198954943,1733198954959,1733198954976,1733198954993,1733198955010,1733198955026,1733198955045,1733198955059,1733198955076,1733198955093,1733198955110,1733198955126,1733198955143,1733198955160,1733198955176,1733198955193,1733198955210,1733198955226,1733198955243,1733198955260,1733198955278,1733198955293,1733198955310,1733198955326,1733198955343,1733198955359,1733198955376,1733198955393,1733198955410,1733198955429,1733198955443,1733198955459,1733198955476,1733198955493,1733198955513,1733198955526,1733198955543,1733198955560,1733198955576,1733198955595,1733198955610,1733198955626,1733198955643,1733198955660,1733198955676,1733198955693,1733198955710,1733198955728,1733198955743,1733198955760,1733198955779,1733198955793,1733198955810,1733198955828,1733198955843,1733198955860,1733198955876,1733198955895,1733198955910,1733198955926,1733198955945,1733198955960,1733198955976,1733198955993,1733198956010,1733198956026,1733198956043,1733198956061,1733198956076,1733198956093,1733198956113,1733198956127,1733198956143,1733198956159,1733198956176,1733198956194,1733198956210,1733198956226,1733198956243,1733198956260,1733198956276,1733198956293,1733198956310,1733198956326,1733198956343,1733198956360,1733198956376,1733198956393,1733198956410,1733198956433,1733198956443,1733198956459,1733198956476,1733198956493,1733198956510,1733198956526,1733198956543,1733198956560,1733198956576,1733198956593,1733198956613,1733198956626,1733198956643,1733198956660,1733198956678,1733198956693,1733198956711,1733198956730,1733198956745,1733198956762,1733198956779,1733198956793,1733198956810,1733198956826,1733198956843,1733198956859,1733198956876,1733198956893,1733198956910,1733198956926,1733198956943,1733198956963,1733198956977,1733198956993,1733198957014,1733198957029,1733198957044,1733198957059,1733198957078,1733198957093,1733198957110,1733198957130,1733198957145,1733198957160,1733198957176,1733198957196,1733198957210,1733198957226,1733198957245,1733198957260,1733198957276,1733198957296,1733198957313,1733198957328]","[[1033,504.5],[1033,504.5],[1043.4,494],[1052,493.6],[1074.9,475.3],[1072.9,480.4],[1048.4,488.8],[1030.6,503.4],[1007.1,540.8],[994.9,552.3],[994.9,552.3],[1005.5,522.8],[1005.5,522.8],[989.6,537],[989.6,537],[995.7,517],[995.7,517],[989.8,506.9],[989.8,506.9],[944.3,508.4],[917.7,524.3],[917.7,524.3],[920.6,530.1],[928.2,520.8],[942.6,512.4],[957,504],[947.4,518.9],[952,512.7],[927.2,530.1],[918.2,538.4],[986.5,543.8],[1018.7,541.7],[1078.2,543.2],[1133,559.8],[1133,559.8],[1175.1,552.1],[1230.6,525.6],[1276.4,517.2],[1322.3,488.2],[1368.2,459.2],[1380.1,441],[1364,415.5],[1339,417.2],[1339,417.2],[1300,405.2],[1251,392.5],[1198.6,389],[1137,428.6],[1086.7,432],[1046.4,474.7],[1006.1,517.4],[989.4,551.1],[963,583.4],[920.4,572],[857.1,579.4],[813,582.7],[784.9,598.3],[752.6,589.6],[708,605.4],[659,605.2],[616.5,605.9],[580.6,604],[535.3,592.7],[532.6,616.9],[533.7,620.8],[525.1,634.6],[507.1,639.6],[507.1,639.6],[489.1,644.6],[473.4,643.5],[467.6,644.6],[467.6,644.6],[455.3,644.8],[468.5,632.4],[491.1,629.4],[543.1,608.6],[598.7,599.4],[656.1,580.8],[718.5,570.1],[785.8,568.3],[859,555.6],[922.3,540.7],[1006.4,538.7],[1065,549.3],[1131.6,540.7],[1171.8,532],[1202.5,521.4],[1231.9,515.1],[1245.4,509.2],[1254,494.4],[1265.5,499.2],[1277,504],[1262.1,485.5],[1247.2,467],[1213.5,506.9],[1179.8,546.8],[1173.3,576.3],[1159.8,611],[1161.5,636.5],[1146.1,628.5],[1130.3,611.5],[1127,606.4],[1129.5,634.4],[1132,662.4],[1144.4,649.2],[1156.8,636],[1146.1,632.4],[1142.4,623.6],[1133.9,628.9],[1142.5,667.7],[1151.3,706.8],[1147.6,734],[1152.9,746.7],[1158.2,759.4],[1166.6,763.7],[1175,768],[1172.4,775.4],[1160.6,781.3],[1147.3,777.7],[1134,774.1],[1119.6,761.7],[1105.2,749.3],[1070.1,727.2],[1035,705.1],[997.7,693.4],[965.3,675],[952.4,646.9],[933,622.3],[929,622.5],[946.6,607.3],[949.7,597.9],[949.7,597.9],[952.8,588.5],[952.8,588.5],[989.4,598.6],[989.4,598.6],[1052,596.3],[1052,596.3],[1100.7,581.8],[1100.7,581.8],[1146.6,585.4],[1146.6,585.4],[1185.3,595.7],[1237.7,597.9],[1285,573.5],[1310.7,564.5],[1351.8,558.2],[1390.5,548.2],[1407.2,520.2],[1396.6,524.5],[1396.7,545.1],[1392.6,553.9],[1399.2,562.8],[1401.7,589.2],[1395.4,610.1],[1391.2,640.1],[1370.2,670.1],[1351.6,703.8],[1348.2,733],[1348.2,733],[1348.4,737.2],[1346.6,739.1],[1355.7,729],[1358.2,721.4],[1380.7,702.2],[1401,690.9],[1395.4,673.2],[1406.6,655.5],[1417.6,622.7],[1413.4,594.4],[1406.9,571.2],[1399.3,554.5],[1382.9,550.2],[1356.8,531.4],[1316.8,512.8],[1269.8,508.4],[1231.4,521.2],[1193,534],[1155.9,543.4],[1118.8,552.8],[1078.5,567.1],[1044.5,573.1],[1010.1,593.7],[992.6,608],[992.6,608],[967.3,622.1],[973.5,638],[1006.4,613.8],[1048.3,620.9],[1089.1,646.5],[1134.5,663],[1183.1,674.6],[1217.7,677.8],[1252.7,666.4],[1280.5,675.8],[1322.5,695.7],[1340,699.6],[1342.9,716.2],[1349.4,692.6],[1344.7,679.1],[1322.2,683],[1316.4,683.1],[1311.7,684.7],[1307,686.3],[1299.7,685.8],[1271,692.5],[1280,684.8],[1292.1,684.6],[1256.2,696.6],[1237.3,693.9],[1225.7,670.6],[1197.4,651.1],[1179.6,637.2],[1157.9,628.3],[1136,644.9],[1129.1,644],[1088.6,592.7],[1048.1,541.4],[1043,486.8],[1030.4,450.6],[1018.5,411.2],[998.1,387],[980.1,364.1],[959.4,322.1],[938.8,275.3],[918.2,228.5],[912.6,227.2],[907,225.9],[901.4,236.6],[894.7,241.6],[896.4,237],[906.6,217.2],[916.4,199.6],[931.5,205.9],[938.8,187.6],[946.1,169.3],[955.6,173.6],[965.1,177.9],[960,160.8],[960,160.8],[957.7,135.6],[948.7,140],[939.7,144.4],[939.5,129.2],[940.6,104.2],[943.8,89.2],[963.5,107.7],[942.8,95.4],[937.7,107.4],[947.2,128.8],[946,116.8],[946,116.8],[953.2,125.9],[953.2,125.9],[954.9,159.6],[954.9,159.6],[977.1,184.2],[977.1,184.2],[981.8,201.9],[981.8,201.9],[994.3,220],[994.3,220],[973.5,204.8],[973.5,204.8],[992.5,225.9],[1013.1,229.2],[1033.7,232.5],[1035,261.7],[1031.4,265.3],[1034.1,231.6],[1022.6,237.3],[1024.9,258.7],[1014.4,266.6],[1028.4,278.5],[1023,260.9],[1000.4,236.8],[989.6,228.9],[1008.8,228.5],[1013.6,212.6],[1017.6,209.4],[1016.4,211.9],[1023,210.1],[1018.7,198.3],[1007.3,180.9],[1002.5,183.8],[1023.2,205],[991.8,204.8],[984.6,228.7],[991.4,275.1],[997.2,308.1],[992.2,319.9],[979.1,316.2],[993.7,324],[1012.2,338.3],[1021.1,356.2],[1004.5,355.8],[1012.5,369.4],[996.3,358.9],[996.3,358.9],[997.8,334.3],[1001.8,326.4],[998.8,334.1],[987,335.5],[971.8,344.5],[968,362.8],[965.9,377.9]]","[0,0.5333]","[0.5333,0.5333]","[-0.5333,-0.5333]","[-0.5333,0]","[0,-0.5333]","[0.5333,-0.5333]","[0,0]","[0.5333,0]",0,0,0,0,1,1,Monitor,7,7,15,9
