inst1_resp.keys,inst1_resp.rt,calibrationMouse.x,calibrationMouse.y,calibrationMouse.leftButton,calibrationMouse.midButton,calibrationMouse.rightButton,calibrationClick.x,calibrationClick.y,calibrationClick.leftButton,calibrationClick.midButton,calibrationClick.rightButton,calibrationClick.clicked_name,trialsc.thisRepN,trialsc.thisTrialN,trialsc.thisN,trialsc.thisIndex,trialsc.ran,calibration_x,calibration_y,participant,session,date,expName,psychopyVersion,OS,frameRate,ScreenRes_pixels,Camera_pixels,mouse_2.x,mouse_2.y,mouse_2.leftButton,mouse_2.midButton,mouse_2.rightButton,mouse_2.time,mouse_2.clicked_name,mouse.x,mouse.y,mouse.leftButton,mouse.midButton,mouse.rightButton,mouse.time,mouse.clicked_name,Choice,Trial,TrialDuration,MOUSE_GAZE,ET_GAZE,ET_GAZE_x_T,time,unixTime,ET_GAZE_NF,Loc_Option1_label,Loc_Option2_label,Loc_Cost_label,Loc_Qual_label,Loc_Option1_cost,Loc_Option2_cost,Loc_Option1_quality,Loc_Option2_quality,trials.thisRepN,trials.thisTrialN,trials.thisN,trials.thisIndex,trials.ran,Block,Device,cost1,qual1,cost2,qual2
space,2.3014,0.130208333,0,1,0,0,0.334375,0.338888889,1,0,0,calibration_square,0,0,0,17,1,0.33,0.33,39,001,2024-12-03_12h12.25.813,Attention_exp_legacy,2023.1.0,Win32,59.88023952,,,,,,,,,,,,,,,,,,,,,,,,,,,,,,,,,,,,,,,,,,,,
,,,,,,,-0.321875,0.001851852,1,0,0,calibration_square,0,1,1,6,1,-0.33,0,39,001,2024-12-03_12h12.25.813,Attention_exp_legacy,2023.1.0,Win32,59.88023952,,,,,,,,,,,,,,,,,,,,,,,,,,,,,,,,,,,,,,,,,,,,
,,,,,,,0.0125,-0.340740741,1,0,0,,0,2,2,10,1,0,-0.33,39,001,2024-12-03_12h12.25.813,Attention_exp_legacy,2023.1.0,Win32,59.88023952,,,,,,,,,,,,,,,,,,,,,,,,,,,,,,,,,,,,,,,,,,,,
,,,,,,,-0.328125,-0.325925926,1,0,0,calibration_square,0,3,3,5,1,-0.33,-0.33,39,001,2024-12-03_12h12.25.813,Attention_exp_legacy,2023.1.0,Win32,59.88023952,,,,,,,,,,,,,,,,,,,,,,,,,,,,,,,,,,,,,,,,,,,,
,,,,,,,0.00625,0.344444444,1,0,0,,0,4,4,12,1,0,0.33,39,001,2024-12-03_12h12.25.813,Attention_exp_legacy,2023.1.0,Win32,59.88023952,,,,,,,,,,,,,,,,,,,,,,,,,,,,,,,,,,,,,,,,,,,,
,,,,,,,0.3375,-0.65,1,0,0,,0,5,5,14,1,0.33,-0.67,39,001,2024-12-03_12h12.25.813,Attention_exp_legacy,2023.1.0,Win32,59.88023952,,,,,,,,,,,,,,,,,,,,,,,,,,,,,,,,,,,,,,,,,,,,
,,,,,,,-0.326041667,0.672222222,1,0,0,calibration_square,0,6,6,8,1,-0.33,0.67,39,001,2024-12-03_12h12.25.813,Attention_exp_legacy,2023.1.0,Win32,59.88023952,,,,,,,,,,,,,,,,,,,,,,,,,,,,,,,,,,,,,,,,,,,,
,,,,,,,0.00625,-0.677777778,1,0,0,calibration_square,0,7,7,9,1,0,-0.67,39,001,2024-12-03_12h12.25.813,Attention_exp_legacy,2023.1.0,Win32,59.88023952,,,,,,,,,,,,,,,,,,,,,,,,,,,,,,,,,,,,,,,,,,,,
,,,,,,,0.339583333,0.681481481,1,0,0,,0,8,8,18,1,0.33,0.67,39,001,2024-12-03_12h12.25.813,Attention_exp_legacy,2023.1.0,Win32,59.88023952,,,,,,,,,,,,,,,,,,,,,,,,,,,,,,,,,,,,,,,,,,,,
,,,,,,,0.326041667,-0.005555556,1,0,0,calibration_square,0,9,9,16,1,0.33,0,39,001,2024-12-03_12h12.25.813,Attention_exp_legacy,2023.1.0,Win32,59.88023952,,,,,,,,,,,,,,,,,,,,,,,,,,,,,,,,,,,,,,,,,,,,
,,,,,,,-0.322916667,-0.664814815,1,0,0,calibration_square,0,10,10,4,1,-0.33,-0.67,39,001,2024-12-03_12h12.25.813,Attention_exp_legacy,2023.1.0,Win32,59.88023952,,,,,,,,,,,,,,,,,,,,,,,,,,,,,,,,,,,,,,,,,,,,
,,,,,,,-0.321875,0.327777778,1,0,0,calibration_square,0,11,11,7,1,-0.33,0.33,39,001,2024-12-03_12h12.25.813,Attention_exp_legacy,2023.1.0,Win32,59.88023952,,,,,,,,,,,,,,,,,,,,,,,,,,,,,,,,,,,,,,,,,,,,
,,,,,,,0.00625,0,1,0,0,calibration_square,0,12,12,11,1,0,0,39,001,2024-12-03_12h12.25.813,Attention_exp_legacy,2023.1.0,Win32,59.88023952,,,,,,,,,,,,,,,,,,,,,,,,,,,,,,,,,,,,,,,,,,,,
,,,,,,,0.671875,-0.664814815,1,0,0,calibration_square,0,13,13,20,1,0.67,-0.67,39,001,2024-12-03_12h12.25.813,Attention_exp_legacy,2023.1.0,Win32,59.88023952,,,,,,,,,,,,,,,,,,,,,,,,,,,,,,,,,,,,,,,,,,,,
,,,,,,,-0.009375,0.666666667,1,0,0,calibration_square,0,14,14,13,1,0,0.67,39,001,2024-12-03_12h12.25.813,Attention_exp_legacy,2023.1.0,Win32,59.88023952,,,,,,,,,,,,,,,,,,,,,,,,,,,,,,,,,,,,,,,,,,,,
,,,,,,,0.675,0.666666667,1,0,0,calibration_square,0,15,15,19,1,0.67,0.67,39,001,2024-12-03_12h12.25.813,Attention_exp_legacy,2023.1.0,Win32,59.88023952,,,,,,,,,,,,,,,,,,,,,,,,,,,,,,,,,,,,,,,,,,,,
,,,,,,,-0.670833333,0.316666667,1,0,0,,0,16,16,3,1,-0.67,0.33,39,001,2024-12-03_12h12.25.813,Attention_exp_legacy,2023.1.0,Win32,59.88023952,,,,,,,,,,,,,,,,,,,,,,,,,,,,,,,,,,,,,,,,,,,,
,,,,,,,-0.658333333,0.005555556,1,0,0,,0,17,17,2,1,-0.67,0,39,001,2024-12-03_12h12.25.813,Attention_exp_legacy,2023.1.0,Win32,59.88023952,,,,,,,,,,,,,,,,,,,,,,,,,,,,,,,,,,,,,,,,,,,,
,,,,,,,-0.675,-0.338888889,1,0,0,calibration_square,0,18,18,1,1,-0.67,-0.33,39,001,2024-12-03_12h12.25.813,Attention_exp_legacy,2023.1.0,Win32,59.88023952,,,,,,,,,,,,,,,,,,,,,,,,,,,,,,,,,,,,,,,,,,,,
,,,,,,,-0.661458333,-0.687037037,1,0,0,,0,19,19,0,1,-0.67,-0.67,39,001,2024-12-03_12h12.25.813,Attention_exp_legacy,2023.1.0,Win32,59.88023952,,,,,,,,,,,,,,,,,,,,,,,,,,,,,,,,,,,,,,,,,,,,
,,,,,,,0.330208333,-0.316666667,1,0,0,,0,20,20,15,1,0.33,-0.33,39,001,2024-12-03_12h12.25.813,Attention_exp_legacy,2023.1.0,Win32,59.88023952,,,,,,,,,,,,,,,,,,,,,,,,,,,,,,,,,,,,,,,,,,,,
,,,,,,,,,,,,,,,,,,,,39,001,2024-12-03_12h12.25.813,Attention_exp_legacy,2023.1.0,Win32,59.88023952,"[1920,1080]","[640,480]",[0.065625],[-0.48518518518518516],[1],[0],[0],[2.697499999999998],"[""StartButton""]",[0.16354166666666667],[0.14444444444444443],[1],[0],[0],[2.9800999999940387],"[""Option2_label""]",Option2_label,1,4.0037,"[[0.04479166666666667,0.412962962962963],[0.04479166666666667,0.412962962962963],[0.04479166666666667,0.412962962962963],[0.04479166666666667,0.412962962962963],[0.04479166666666667,0.412962962962963],[0.04479166666666667,0.412962962962963],[0.04479166666666667,0.412962962962963],[0.04479166666666667,0.412962962962963],[0.04479166666666667,0.412962962962963],[0.04479166666666667,0.412962962962963],[0.04479166666666667,0.412962962962963],[0.04479166666666667,0.412962962962963],[0.04479166666666667,0.412962962962963],[0.04479166666666667,0.412962962962963],[0.04479166666666667,0.412962962962963],[0.04479166666666667,0.412962962962963],[0.04479166666666667,0.412962962962963],[0.04583333333333333,0.4148148148148148],[0.04583333333333333,0.4148148148148148],[0.04583333333333333,0.4148148148148148],[0.04791666666666667,0.4148148148148148],[0.052083333333333336,0.412962962962963],[0.05416666666666667,0.40925925925925927],[0.057291666666666664,0.40185185185185185],[0.059375,0.3962962962962963],[0.06041666666666667,0.3907407407407407],[0.06145833333333333,0.3851851851851852],[0.06354166666666666,0.3814814814814815],[0.06354166666666666,0.37592592592592594],[0.06354166666666666,0.37222222222222223],[0.06458333333333334,0.3648148148148148],[0.06458333333333334,0.3592592592592593],[0.06458333333333334,0.3574074074074074],[0.06458333333333334,0.35185185185185186],[0.06458333333333334,0.34814814814814815],[0.06458333333333334,0.34629629629629627],[0.06458333333333334,0.34074074074074073],[0.06458333333333334,0.34074074074074073],[0.06458333333333334,0.3388888888888889],[0.06458333333333334,0.337037037037037],[0.06458333333333334,0.3351851851851852],[0.06354166666666666,0.3333333333333333],[0.06354166666666666,0.3333333333333333],[0.06354166666666666,0.3333333333333333],[0.0625,0.3314814814814815],[0.0625,0.3314814814814815],[0.0625,0.3314814814814815],[0.0625,0.3314814814814815],[0.0625,0.3296296296296296],[0.0625,0.3296296296296296],[0.0625,0.3296296296296296],[0.0625,0.3296296296296296],[0.0625,0.3296296296296296],[0.0625,0.3296296296296296],[0.0625,0.3296296296296296],[0.0625,0.3296296296296296],[0.0625,0.3296296296296296],[0.0625,0.3296296296296296],[0.0625,0.3296296296296296],[0.0625,0.3296296296296296],[0.0625,0.3296296296296296],[0.0625,0.3296296296296296],[0.0625,0.3296296296296296],[0.0625,0.3296296296296296],[0.0625,0.3296296296296296],[0.0625,0.3296296296296296],[0.0625,0.3296296296296296],[0.0625,0.3296296296296296],[0.0625,0.3296296296296296],[0.0625,0.3296296296296296],[0.0625,0.3296296296296296],[0.0625,0.3296296296296296],[0.0625,0.3296296296296296],[0.0625,0.3296296296296296],[0.0625,0.3296296296296296],[0.0625,0.3296296296296296],[0.0625,0.3296296296296296],[0.0625,0.3296296296296296],[0.0625,0.3296296296296296],[0.0625,0.3296296296296296],[0.0625,0.3296296296296296],[0.0625,0.3296296296296296],[0.0625,0.3296296296296296],[0.0625,0.3296296296296296],[0.0625,0.3296296296296296],[0.0625,0.3296296296296296],[0.0625,0.3296296296296296],[0.0625,0.3296296296296296],[0.0625,0.3296296296296296],[0.0625,0.3296296296296296],[0.0625,0.3296296296296296],[0.0625,0.3296296296296296],[0.0625,0.3296296296296296],[0.0625,0.3296296296296296],[0.0625,0.3296296296296296],[0.0625,0.3296296296296296],[0.0625,0.3296296296296296],[0.0625,0.3296296296296296],[0.0625,0.3296296296296296],[0.0625,0.3296296296296296],[0.0625,0.3296296296296296],[0.0625,0.3296296296296296],[0.0625,0.3296296296296296],[0.0625,0.3296296296296296],[0.0625,0.3296296296296296],[0.0625,0.3296296296296296],[0.0625,0.3296296296296296],[0.0625,0.3296296296296296],[0.0625,0.3296296296296296],[0.0625,0.3296296296296296],[0.0625,0.3296296296296296],[0.0625,0.3296296296296296],[0.0625,0.3296296296296296],[0.0625,0.3296296296296296],[0.0625,0.3296296296296296],[0.0625,0.3296296296296296],[0.0625,0.3296296296296296],[0.0625,0.3296296296296296],[0.0625,0.3296296296296296],[0.0625,0.3277777777777778],[0.0625,0.32037037037037036],[0.0625,0.3148148148148148],[0.0625,0.31296296296296294],[0.0625,0.30925925925925923],[0.0625,0.3074074074074074],[0.0625,0.3074074074074074],[0.0625,0.3055555555555556],[0.0625,0.30185185185185187],[0.0625,0.3],[0.0625,0.2962962962962963],[0.0625,0.2962962962962963],[0.0625,0.29444444444444445],[0.0625,0.29444444444444445],[0.0625,0.29444444444444445],[0.0625,0.29444444444444445],[0.0625,0.29444444444444445],[0.0625,0.29444444444444445],[0.0625,0.29444444444444445],[0.0625,0.29074074074074074],[0.0625,0.29074074074074074],[0.0625,0.28888888888888886],[0.06041666666666667,0.2851851851851852],[0.06041666666666667,0.2814814814814815],[0.059375,0.2796296296296296],[0.059375,0.2777777777777778],[0.059375,0.2722222222222222],[0.059375,0.26851851851851855],[0.059375,0.26481481481481484],[0.059375,0.2611111111111111],[0.059375,0.25555555555555554],[0.059375,0.24814814814814815],[0.059375,0.23703703703703705],[0.059375,0.22777777777777777],[0.059375,0.20555555555555555],[0.071875,0.17592592592592593],[0.08229166666666667,0.15185185185185185],[0.08854166666666667,0.14629629629629629],[0.1,0.1425925925925926],[0.109375,0.1388888888888889],[0.121875,0.13518518518518519],[0.134375,0.12962962962962962],[0.14375,0.12962962962962962],[0.153125,0.1259259259259259],[0.16041666666666668,0.1259259259259259],[0.16875,0.12777777777777777],[0.16875,0.12777777777777777],[0.16875,0.12777777777777777],[0.16875,0.12777777777777777],[0.16875,0.12777777777777777],[0.16875,0.12777777777777777],[0.16875,0.12777777777777777],[0.16875,0.12777777777777777],[0.16875,0.12777777777777777],[0.16770833333333332,0.13518518518518519],[0.16458333333333333,0.14074074074074075],[0.16354166666666667,0.1425925925925926],[0.16354166666666667,0.14444444444444443],[0.16354166666666667,0.14444444444444443],[0.16354166666666667,0.14444444444444443],[0.16354166666666667,0.14444444444444443],[0.16354166666666667,0.14444444444444443],[0.16354166666666667,0.14444444444444443],[0.16354166666666667,0.14444444444444443],[0.16354166666666667,0.14444444444444443],[0.1625,0.14629629629629629],[0.1625,0.14629629629629629],[0.1625,0.14629629629629629],[0.1625,0.14629629629629629],[0.1625,0.14629629629629629],[0.1625,0.14629629629629629],[0.1625,0.14629629629629629],[0.1625,0.14629629629629629],[0.1625,0.14629629629629629],[0.16145833333333334,0.14629629629629629],[0.16145833333333334,0.14629629629629629],[0.16145833333333334,0.14629629629629629],[0.16145833333333334,0.14629629629629629],[0.16145833333333334,0.14629629629629629],[0.16145833333333334,0.14629629629629629],[0.16145833333333334,0.14629629629629629],[0.16145833333333334,0.14629629629629629],[0.16145833333333334,0.14629629629629629],[0.16145833333333334,0.14629629629629629],[0.16145833333333334,0.14629629629629629],[0.16145833333333334,0.14629629629629629],[0.16145833333333334,0.14814814814814814],[0.16145833333333334,0.14814814814814814],[0.16145833333333334,0.15],[0.16145833333333334,0.15],[0.16145833333333334,0.15],[0.16145833333333334,0.15],[0.16145833333333334,0.15],[0.16145833333333334,0.15],[0.16145833333333334,0.15],[0.16145833333333334,0.15],[0.16145833333333334,0.15],[0.16145833333333334,0.15],[0.16145833333333334,0.15],[0.16145833333333334,0.15],[0.16145833333333334,0.15],[0.16145833333333334,0.15],[0.16145833333333334,0.15],[0.16145833333333334,0.15],[0.16145833333333334,0.15185185185185185],[0.16145833333333334,0.15185185185185185],[0.16145833333333334,0.15185185185185185],[0.16145833333333334,0.15185185185185185],[0.16145833333333334,0.15185185185185185],[0.16145833333333334,0.15185185185185185],[0.16145833333333334,0.15185185185185185],[0.16145833333333334,0.15185185185185185],[0.16145833333333334,0.15185185185185185],[0.16145833333333334,0.15185185185185185],[0.16145833333333334,0.15185185185185185],[0.16145833333333334,0.15185185185185185],[0.16145833333333334,0.15185185185185185],[0.16145833333333334,0.15185185185185185],[0.16145833333333334,0.15185185185185185],[0.16145833333333334,0.15185185185185185],[0.16145833333333334,0.15185185185185185],[0.16145833333333334,0.15185185185185185]]","[[-0.030416666666666713,-0.37518518518518523],[-0.029791666666666692,-0.3538888888888889],[-0.029791666666666692,-0.3538888888888889],[-0.03208333333333328,-0.34592592592592597],[-0.0125,-0.32703703703703707],[-0.005624999999999976,-0.32833333333333337],[0.010000000000000024,-0.3316666666666667],[-0.00302083333333331,-0.3031481481481481],[-0.01260416666666669,-0.2748148148148148],[-0.008124999999999953,-0.23055555555555557],[-0.0003124999999999526,-0.21296296296296297],[0.01593749999999995,-0.19870370370370372],[0.025937499999999978,-0.19166666666666668],[0.02802083333333331,-0.18574074074074076],[0.030416666666666713,-0.18499999999999997],[0.028437499999999952,-0.16222222222222227],[0.03177083333333333,-0.1537037037037037],[0.03093750000000005,-0.15648148148148147],[0.041666666666666664,-0.2168518518518519],[0.04500000000000005,-0.2846296296296296],[0.04760416666666671,-0.3212962962962963],[0.04760416666666671,-0.3212962962962963],[0.049479166666666664,-0.34518518518518515],[0.05010416666666669,-0.3785185185185185],[0.050937499999999976,-0.4140740740740741],[0.04812500000000005,-0.4455555555555556],[0.0453125,-0.4770370370370371],[0.03718750000000005,-0.48407407407407405],[0.04916666666666671,-0.509074074074074],[0.044479166666666715,-0.47685185185185186],[0.03979166666666671,-0.44462962962962965],[0.04781249999999997,-0.40981481481481485],[0.058229166666666644,-0.3792592592592593],[0.06145833333333333,-0.34685185185185186],[0.058124999999999954,-0.3235185185185185],[0.06020833333333329,-0.30759259259259264],[0.05656249999999995,-0.29981481481481476],[0.05291666666666662,-0.3022222222222222],[0.059791666666666646,-0.3012962962962963],[0.06604166666666664,-0.29666666666666663],[0.07822916666666657,-0.28703703703703703],[0.07541666666666676,-0.305],[0.07541666666666676,-0.305],[0.06020833333333329,-0.31611111111111106],[0.06041666666666667,-0.2972222222222222],[0.06697916666666662,-0.267037037037037],[0.06083333333333331,-0.25555555555555554],[0.06197916666666667,-0.2161111111111111],[0.07125000000000009,-0.18796296296296297],[0.06437499999999995,-0.18351851851851855],[0.06416666666666669,-0.1824074074074074],[0.04781249999999997,-0.15555555555555556],[0.03916666666666669,-0.16925925925925922],[0.06041666666666667,-0.08425925925925926],[0.07416666666666671,-0.0242592592592593],[0.05447916666666662,0.12296296296296293],[0.04208333333333331,0.2962962962962963],[0.058541666666666714,0.44074074074074077],[0.06156250000000003,0.5953703703703703],[0.05520833333333333,0.7685185185185185],[0.06239583333333331,0.9553703703703705],[0.07979166666666657,1.1114814814814815],[0.09708333333333338,1.2559259259259261],[0.096875,1.2948148148148149],[0.096875,1.2948148148148149],[0.12572916666666673,1.2909259259259258],[0.1671875,1.2046296296296297],[0.1671875,1.2046296296296297],[0.20864583333333328,1.1183333333333334],[0.20864583333333328,1.1183333333333334],[0.20635416666666656,1.011851851851852],[0.20635416666666656,1.011851851851852],[0.21572916666666658,0.9298148148148146],[0.21572916666666658,0.9298148148148146],[0.21124999999999997,0.7800000000000001],[0.21124999999999997,0.7800000000000001],[0.19895833333333332,0.6070370370370369],[0.18937499999999996,0.44962962962962955],[0.17218749999999997,0.34518518518518515],[0.15354166666666677,0.23462962962962972],[0.10583333333333324,0.1668518518518519],[0.09552083333333337,0.07296296296296292],[0.07166666666666661,-0.0011111111111111532],[0.06114583333333338,-0.04592592592592584],[0.04906250000000002,-0.12185185185185188],[0.06385416666666661,-0.13037037037037033],[0.09093749999999995,-0.12999999999999998],[0.11531250000000005,-0.14518518518518514],[0.11770833333333333,-0.14740740740740746],[0.12156250000000005,-0.14351851851851852],[0.1321875000000001,-0.15981481481481483],[0.1258333333333333,-0.15481481481481485],[0.11947916666666672,-0.1514814814814815],[0.11947916666666672,-0.1514814814814815],[0.1131249999999999,-0.14814814814814814],[0.08885416666666662,-0.1301851851851852],[0.07166666666666661,-0.09074074074074075],[0.03979166666666671,-0.09055555555555551],[0.00458333333333331,-0.05055555555555547],[-0.019270833333333334,-0.04888888888888885],[-0.043124999999999976,-0.04722222222222222],[-0.058541666666666714,-0.05481481481481486],[-0.07406250000000002,-0.062037037037037036],[-0.08468749999999996,-0.07092592592592595],[-0.0953125,-0.07981481481481485],[-0.08187500000000002,-0.09129629629629632],[-0.07552083333333333,-0.1242592592592593],[-0.06822916666666666,-0.1307407407407408],[-0.06739583333333338,-0.17037037037037037],[-0.05583333333333336,-0.1742592592592593],[-0.0390625,-0.175],[-0.0375,-0.14629629629629629],[-0.026041666666666668,-0.12777777777777777],[-0.005937500000000048,-0.1257407407407407],[0.013437499999999976,-0.13092592592592592],[0.021875,-0.1403703703703704],[0.01875,-0.15833333333333333],[0.011354166666666643,-0.16296296296296298],[0.022291666666666644,-0.17444444444444443],[0.0359375,-0.18481481481481485],[0.04604166666666672,-0.21333333333333332],[0.05614583333333331,-0.2418518518518519],[0.05687500000000002,-0.26055555555555554],[0.05687500000000002,-0.26055555555555554],[0.0421875,-0.27907407407407403],[0.035416666666666666,-0.29370370370370374],[0.028645833333333332,-0.30833333333333335],[0.04031250000000005,-0.29981481481481476],[0.051979166666666646,-0.29129629629629633],[0.041770833333333354,-0.3014814814814815],[0.03687499999999998,-0.31796296296296295],[0.030312500000000023,-0.3194444444444444],[0.02354166666666669,-0.327962962962963],[0.016770833333333356,-0.33648148148148144],[0.020833333333333332,-0.34518518518518515],[0.017708333333333333,-0.35055555555555556],[0.01906249999999995,-0.3403703703703704],[0.013541666666666667,-0.3448148148148148],[0.002916666666666619,-0.35999999999999993],[0.014479166666666644,-0.3492592592592593],[0.022083333333333382,-0.3314814814814815],[0.029166666666666667,-0.32037037037037036],[0.03260416666666662,-0.3074074074074074],[0.050416666666666644,-0.2959259259259259],[0.06708333333333343,-0.2940740740740741],[0.07510416666666657,-0.2809259259259259],[0.07864583333333333,-0.2833333333333333],[0.09156250000000009,-0.2729629629629629],[0.10020833333333339,-0.2631481481481482],[0.09937500000000009,-0.2603703703703704],[0.0943749999999999,-0.2705555555555556],[0.0900000000000001,-0.27166666666666667],[0.08114583333333343,-0.26240740740740737],[0.05791666666666669,-0.25166666666666665],[0.050833333333333286,-0.23851851851851855],[0.052083333333333336,-0.22833333333333336],[0.034687499999999954,-0.20722222222222217],[0.00927083333333331,-0.19888888888888884],[0.0140625,-0.1766666666666666],[0.014791666666666713,-0.19388888888888886],[0.01729166666666669,-0.21388888888888888],[0.029166666666666667,-0.1787037037037037],[0.026145833333333358,-0.1742592592592593],[0.044166666666666646,-0.13407407407407404],[0.041666666666666664,-0.1259259259259259],[0.03947916666666664,-0.12611111111111115],[0.04635416666666667,-0.12481481481481477],[0.04635416666666667,-0.12481481481481477],[0.051874999999999956,-0.1235185185185185],[0.043229166666666666,-0.11851851851851852],[0.03927083333333338,-0.07407407407407407],[0.03781249999999995,-0.04759259259259268],[0.02000000000000005,-0.07537037037037035],[0.022291666666666644,-0.06222222222222226],[0.02385416666666664,-0.09703703703703699],[0.025416666666666643,-0.07148148148148152],[0.026979166666666644,-0.04592592592592584],[0.05583333333333336,-0.05259259259259255],[0.07354166666666657,-0.06185185185185181],[0.08458333333333339,-0.07740740740740742],[0.10187499999999995,-0.07999999999999997],[0.11489583333333328,-0.06185185185185181],[0.12458333333333324,-0.06129629629629634],[0.14375,-0.08703703703703704],[0.1482291666666666,-0.10555555555555556],[0.15791666666666657,-0.127962962962963],[0.15791666666666657,-0.127962962962963],[0.15552083333333327,-0.12907407407407406],[0.15552083333333327,-0.12907407407407406],[0.14520833333333344,-0.12018518518518514],[0.14520833333333344,-0.12018518518518514],[0.15593750000000003,-0.11648148148148144],[0.15593750000000003,-0.11648148148148144],[0.16520833333333323,-0.08740740740740739],[0.16197916666666667,-0.10018518518518522],[0.16197916666666667,-0.10018518518518522],[0.15395833333333328,-0.1190740740740741],[0.16833333333333325,-0.12777777777777777],[0.17635416666666662,-0.1255555555555556],[0.16072916666666662,-0.13574074074074077],[0.15,-0.16314814814814818],[0.15364583333333334,-0.18407407407407403],[0.1474999999999999,-0.19518518518518516],[0.1209374999999999,-0.18796296296296297],[0.11489583333333328,-0.19277777777777783],[0.11395833333333343,-0.1881481481481482],[0.11583333333333339,-0.17314814814814813],[0.10552083333333329,-0.15407407407407406],[0.07958333333333342,-0.14907407407407408],[0.07166666666666661,-0.12666666666666662],[0.09020833333333324,-0.10981481481481484],[0.1040625000000001,-0.12018518518518514],[0.12218749999999995,-0.12407407407407407],[0.15166666666666656,-0.11703703703703702],[0.16104166666666658,-0.10870370370370368],[0.17145833333333324,-0.0809259259259259],[0.1805208333333333,-0.10092592592592593],[0.18958333333333333,-0.12092592592592595],[0.21291666666666675,-0.12462962962962965],[0.22791666666666663,-0.09444444444444444],[0.21645833333333328,-0.05870370370370368],[0.23135416666666658,-0.0514814814814814],[0.24270833333333333,-0.04092592592592597],[0.2345833333333334,-0.06962962962962967],[0.225,-0.10277777777777777],[0.22666666666666657,-0.13092592592592592],[0.2163541666666667,-0.10499999999999998],[0.2195833333333333,-0.09277777777777782],[0.2029166666666666,-0.0824074074074074],[0.1865624999999999,-0.09814814814814815],[0.19208333333333344,-0.12629629629629627],[0.1818749999999999,-0.10277777777777777],[0.14385416666666656,-0.0787037037037037],[0.12979166666666658,-0.04740740740740745],[0.11687500000000005,0.0012962962962963806],[0.09281249999999991,0.044999999999999915],[0.07760416666666667,0.032037037037036954],[0.05020833333333338,0.03296296296296288],[0.05322916666666669,0.03129629629629625],[0.06427083333333337,0.021851851851851768],[0.04052083333333331,0.004444444444444402]]","[[-0.030416666666666713,-0.37518518518518523,0.0002999999970256795],[-0.029791666666666692,-0.3538888888888889,0.03669999998808038],[-0.029791666666666692,-0.3538888888888889,0.04450000000000642],[-0.03208333333333328,-0.34592592592592597,0.05519999998808345],[-0.0125,-0.32703703703703707,0.07009999999404215],[-0.005624999999999976,-0.32833333333333337,0.09039999999106385],[0.010000000000000024,-0.3316666666666667,0.10529999999702255],[-0.00302083333333331,-0.3031481481481481,0.12019999998808117],[-0.01260416666666669,-0.2748148148148148,0.1366999999880818],[-0.008124999999999953,-0.23055555555555557,0.15550000000000352],[-0.0003124999999999526,-0.21296296296296297,0.17039999999106215],[0.01593749999999995,-0.19870370370370372,0.18669999998807896],[0.025937499999999978,-0.19166666666666668,0.204500000000003],[0.02802083333333331,-0.18574074074074076,0.22000000000000597],[0.030416666666666713,-0.18499999999999997,0.23679999999702517],[0.028437499999999952,-0.16222222222222227,0.2532999999970258],[0.03177083333333333,-0.1537037037037037,0.2700000000000031],[0.03093750000000005,-0.15648148148148147,0.2890000000000015],[0.041666666666666664,-0.2168518518518519,0.30329999999702295],[0.04500000000000005,-0.2846296296296296,0.320199999988084],[0.04760416666666671,-0.3212962962962963,0.3413999999910615],[0.04760416666666671,-0.3212962962962963,0.3563999999910621],[0.049479166666666664,-0.34518518518518515,0.37069999998808356],[0.05010416666666669,-0.3785185185185185,0.39119999998808197],[0.050937499999999976,-0.4140740740740741,0.4053999999910616],[0.04812500000000005,-0.4455555555555556,0.42019999998808544],[0.0453125,-0.4770370370370371,0.43689999999106277],[0.03718750000000005,-0.48407407407407405,0.4556999999880844],[0.04916666666666671,-0.509074074074074,0.4701999999880826],[0.044479166666666715,-0.47685185185185186,0.48689999999105993],[0.03979166666666671,-0.44462962962962965,0.505500000000005],[0.04781249999999997,-0.40981481481481485,0.5201999999880798],[0.058229166666666644,-0.3792592592592593,0.5368999999910642],[0.06145833333333333,-0.34685185185185186,0.5534999999999997],[0.058124999999999954,-0.3235185185185185,0.5721999999880794],[0.06020833333333329,-0.30759259259259264,0.5870999999940452],[0.05656249999999995,-0.29981481481481476,0.6036999999880805],[0.05291666666666662,-0.3022222222222222,0.6200000000000045],[0.059791666666666646,-0.3012962962962963,0.638899999991061],[0.06604166666666664,-0.29666666666666663,0.6535000000000011],[0.07822916666666657,-0.28703703703703703,0.6700999999940436],[0.07541666666666676,-0.305,0.690599999994042],[0.07541666666666676,-0.305,0.7033999999910634],[0.06020833333333329,-0.31611111111111106,0.720000000000006],[0.06041666666666667,-0.2972222222222222,0.7368999999910599],[0.06697916666666662,-0.267037037037037,0.7532999999970258],[0.06083333333333331,-0.25555555555555554,0.770099999994045],[0.06197916666666667,-0.2161111111111111,0.7866999999880804],[0.07125000000000009,-0.18796296296296297,0.8051999999880834],[0.06437499999999995,-0.18351851851851855,0.8200000000000003],[0.06416666666666669,-0.1824074074074074,0.8366999999880846],[0.04781249999999997,-0.15555555555555556,0.855699999988083],[0.03916666666666669,-0.16925925925925922,0.8700999999940393],[0.06041666666666667,-0.08425925925925926,0.8866999999880818],[0.07416666666666671,-0.0242592592592593,0.9033999999910591],[0.05447916666666662,0.12296296296296293,0.9201999999880854],[0.04208333333333331,0.2962962962962963,0.9368999999910628],[0.058541666666666714,0.44074074074074077,0.9532999999970215],[0.06156250000000003,0.5953703703703703,0.9700999999940407],[0.05520833333333333,0.7685185185185185,0.9867999999970252],[0.06239583333333331,0.9553703703703705,1.0033999999910606],[0.07979166666666657,1.1114814814814815,1.0200000000000031],[0.09708333333333338,1.2559259259259261,1.0366999999880804],[0.096875,1.2948148148148149,1.0533999999910648],[0.096875,1.2948148148148149,1.0700000000000003],[0.12572916666666673,1.2909259259259258,1.0866999999880846],[0.1671875,1.2046296296296297,1.10329999999702],[0.1671875,1.2046296296296297,1.1200999999940393],[0.20864583333333328,1.1183333333333334,1.1366999999880818],[0.20864583333333328,1.1183333333333334,1.1532999999970244],[0.20635416666666656,1.011851851851852,1.1700000000000017],[0.20635416666666656,1.011851851851852,1.1865999999940442],[0.21572916666666658,0.9298148148148146,1.2032999999970215],[0.21572916666666658,0.9298148148148146,1.2200999999940407],[0.21124999999999997,0.7800000000000001,1.2367999999970252],[0.21124999999999997,0.7800000000000001,1.2535999999940444],[0.19895833333333332,0.6070370370370369,1.2700000000000031],[0.18937499999999996,0.44962962962962955,1.2865999999940456],[0.17218749999999997,0.34518518518518515,1.303299999997023],[0.15354166666666677,0.23462962962962972,1.3200000000000003],[0.10583333333333324,0.1668518518518519,1.3367999999970195],[0.09552083333333337,0.07296296296296292,1.353399999991062],[0.07166666666666661,-0.0011111111111111532,1.3700000000000045],[0.06114583333333338,-0.04592592592592584,1.3866999999880818],[0.04906250000000002,-0.12185185185185188,1.4032999999970244],[0.06385416666666661,-0.13037037037037033,1.4200999999940436],[0.09093749999999995,-0.12999999999999998,1.436699999988079],[0.11531250000000005,-0.14518518518518514,1.4535000000000053],[0.11770833333333333,-0.14740740740740746,1.470000000000006],[0.12156250000000005,-0.14351851851851852,1.4866999999880832],[0.1321875000000001,-0.15981481481481483,1.5033999999910606],[0.1258333333333333,-0.15481481481481485,1.5200000000000031],[0.11947916666666672,-0.1514814814814815,1.5366999999880804],[0.11947916666666672,-0.1514814814814815,1.553299999997023],[0.1131249999999999,-0.14814814814814814,1.5698999999910654],[0.08885416666666662,-0.1301851851851852,1.5866999999880846],[0.07166666666666661,-0.09074074074074075,1.60329999999702],[0.03979166666666671,-0.09055555555555551,1.6200000000000045],[0.00458333333333331,-0.05055555555555547,1.6367999999970237],[-0.019270833333333334,-0.04888888888888885,1.6538999999910615],[-0.043124999999999976,-0.04722222222222222,1.6698999999910598],[-0.058541666666666714,-0.05481481481481486,1.686699999988079],[-0.07406250000000002,-0.062037037037037036,1.7032999999970215],[-0.08468749999999996,-0.07092592592592595,1.7202999999970245],[-0.0953125,-0.07981481481481485,1.7367999999970252],[-0.08187500000000002,-0.09129629629629632,1.7533999999910606],[-0.07552083333333333,-0.1242592592592593,1.7700000000000031],[-0.06822916666666666,-0.1307407407407408,1.7865999999940456],[-0.06739583333333338,-0.17037037037037037,1.803299999997023],[-0.05583333333333336,-0.1742592592592593,1.8200000000000003],[-0.0390625,-0.175,1.8373999999910637],[-0.0375,-0.14629629629629629,1.85329999999702],[-0.026041666666666668,-0.12777777777777777,1.8700000000000045],[-0.005937500000000048,-0.1257407407407407,1.88659999999404],[0.013437499999999976,-0.13092592592592592,1.9033999999910591],[0.021875,-0.1403703703703704,1.9200000000000017],[0.01875,-0.15833333333333333,1.936699999988079],[0.011354166666666643,-0.16296296296296298,1.9535000000000053],[0.022291666666666644,-0.17444444444444443,1.970000000000006],[0.0359375,-0.18481481481481485,1.9890000000000043],[0.04604166666666672,-0.21333333333333332,2.0035000000000025],[0.05614583333333331,-0.2418518518518519,2.020099999994045],[0.05687500000000002,-0.26055555555555554,2.042399999991062],[0.05687500000000002,-0.26055555555555554,2.053399999991065],[0.0421875,-0.27907407407407403,2.0703999999910607],[0.035416666666666666,-0.29370370370370374,2.0866999999880846],[0.028645833333333332,-0.30833333333333335,2.1053999999910644],[0.04031250000000005,-0.29981481481481476,2.120199999988081],[0.051979166666666646,-0.29129629629629633,2.1378999999910633],[0.041770833333333354,-0.3014814814814815,2.153399999991059],[0.03687499999999998,-0.31796296296296295,2.170599999994046],[0.030312500000000023,-0.3194444444444444,2.1903999999910653],[0.02354166666666669,-0.327962962962963,2.2035000000000053],[0.016770833333333356,-0.33648148148148144,2.220000000000006],[0.020833333333333332,-0.34518518518518515,2.236699999988083],[0.017708333333333333,-0.35055555555555556,2.2533999999910606],[0.01906249999999995,-0.3403703703703704,2.270000000000003],[0.013541666666666667,-0.3448148148148148,2.2865999999940456],[0.002916666666666619,-0.35999999999999993,2.30539999999106],[0.014479166666666644,-0.3492592592592593,2.3200000000000003],[0.022083333333333382,-0.3314814814814815,2.3367999999970195],[0.029166666666666667,-0.32037037037037036,2.3566999999880807],[0.03260416666666662,-0.3074074074074074,2.371299999997021],[0.050416666666666644,-0.2959259259259259,2.3868999999910656],[0.06708333333333343,-0.2940740740740741,2.40569999998808],[0.07510416666666657,-0.2809259259259259,2.4201999999880854],[0.07864583333333333,-0.2833333333333333,2.440599999994042],[0.09156250000000009,-0.2729629629629629,2.4580000000000055],[0.10020833333333339,-0.2631481481481482,2.471599999994041],[0.09937500000000009,-0.2603703703703704,2.4870999999940437],[0.0943749999999999,-0.2705555555555556,2.5033999999910606],[0.0900000000000001,-0.27166666666666667,2.5235000000000056],[0.08114583333333343,-0.26240740740740737,2.5381999999880804],[0.05791666666666669,-0.25166666666666665,2.5534999999999997],[0.050833333333333286,-0.23851851851851855,2.5720999999940446],[0.052083333333333336,-0.22833333333333336,2.5867999999970195],[0.034687499999999954,-0.20722222222222217,2.603599999994046],[0.00927083333333331,-0.19888888888888884,2.623399999991065],[0.0140625,-0.1766666666666666,2.63809999999404],[0.014791666666666713,-0.19388888888888886,2.653500000000001],[0.01729166666666669,-0.21388888888888888,2.6721999999880808],[0.029166666666666667,-0.1787037037037037,2.689],[0.026145833333333358,-0.1742592592592593,2.7033999999910634],[0.044166666666666646,-0.13407407407407404,2.723699999988085],[0.041666666666666664,-0.1259259259259259,2.7387999999970205],[0.03947916666666664,-0.12611111111111115,2.753299999997026],[0.04635416666666667,-0.12481481481481477,2.770000000000003],[0.04635416666666667,-0.12481481481481477,2.7866999999880804],[0.051874999999999956,-0.1235185185185185,2.803399999991065],[0.043229166666666666,-0.11851851851851852,2.8198999999910654],[0.03927083333333338,-0.07407407407407407,2.837899999991059],[0.03781249999999995,-0.04759259259259268,2.853599999994046],[0.02000000000000005,-0.07537037037037035,2.8700000000000045],[0.022291666666666644,-0.06222222222222226,2.8885999999940424],[0.02385416666666664,-0.09703703703703699,2.903500000000001],[0.025416666666666643,-0.07148148148148152,2.9208999999910645],[0.026979166666666644,-0.04592592592592584,2.940599999994042],[0.05583333333333336,-0.05259259259259255,2.9556999999880844],[0.07354166666666657,-0.06185185185185181,2.971599999994041],[0.08458333333333339,-0.07740740740740742,2.986699999988083],[0.10187499999999995,-0.07999999999999997,3.004599999994042],[0.11489583333333328,-0.06185185185185181,3.020000000000003],[0.12458333333333324,-0.06129629629629634,3.037899999991062],[0.14375,-0.08703703703703704,3.054099999994044],[0.1482291666666666,-0.10555555555555556,3.073399999991061],[0.15791666666666657,-0.127962962962963,3.0867999999970195],[0.15791666666666657,-0.127962962962963,3.103399999991062],[0.15552083333333327,-0.12907407407407406,3.1200999999940393],[0.15552083333333327,-0.12907407407407406,3.136699999988082],[0.14520833333333344,-0.12018518518518514,3.153399999991059],[0.14520833333333344,-0.12018518518518514,3.1700000000000017],[0.15593750000000003,-0.11648148148148144,3.186699999988079],[0.15593750000000003,-0.11648148148148144,3.2033999999910634],[0.16520833333333323,-0.08740740740740739,3.2247999999970247],[0.16197916666666667,-0.10018518518518522,3.242099999994039],[0.16197916666666667,-0.10018518518518522,3.253299999997026],[0.15395833333333328,-0.1190740740740741,3.270000000000003],[0.16833333333333325,-0.12777777777777777,3.287899999991062],[0.17635416666666662,-0.1255555555555556,3.303299999997023],[0.16072916666666662,-0.13574074074074077,3.3200000000000003],[0.15,-0.16314814814814818,3.3365999999940428],[0.15364583333333334,-0.18407407407407403,3.35329999999702],[0.1474999999999999,-0.19518518518518516,3.3700000000000045],[0.1209374999999999,-0.18796296296296297,3.3867999999970237],[0.11489583333333328,-0.19277777777777783,3.4032999999970244],[0.11395833333333343,-0.1881481481481482,3.422099999994046],[0.11583333333333339,-0.17314814814814813,3.436699999988079],[0.10552083333333329,-0.15407407407407406,3.453899999991066],[0.07958333333333342,-0.14907407407407408,3.469899999991064],[0.07166666666666661,-0.12666666666666662,3.4865999999940414],[0.09020833333333324,-0.10981481481481484,3.503299999997026],[0.1040625000000001,-0.12018518518518514,3.520000000000003],[0.12218749999999995,-0.12407407407407407,3.5367999999970223],[0.15166666666666656,-0.11703703703703702,3.553299999997023],[0.16104166666666658,-0.10870370370370368,3.5700000000000003],[0.17145833333333324,-0.0809259259259259,3.5866999999880846],[0.1805208333333333,-0.10092592592592593,3.60329999999702],[0.18958333333333333,-0.12092592592592595,3.6200000000000045],[0.21291666666666675,-0.12462962962962965,3.6370000000000005],[0.22791666666666663,-0.09444444444444444,3.653599999994043],[0.21645833333333328,-0.05870370370370368,3.6698999999910598],[0.23135416666666658,-0.0514814814814814,3.686599999994044],[0.24270833333333333,-0.04092592592592597,3.7032999999970215],[0.2345833333333334,-0.06962962962962967,3.7220000000000013],[0.225,-0.10277777777777777,3.7382999999970252],[0.22666666666666657,-0.13092592592592592,3.7555999999940397],[0.2163541666666667,-0.10499999999999998,3.770000000000003],[0.2195833333333333,-0.09277777777777782,3.7865999999940456],[0.2029166666666666,-0.0824074074074074,3.8035999999940415],[0.1865624999999999,-0.09814814814814815,3.8200000000000003],[0.19208333333333344,-0.12629629629629627,3.8366999999880846],[0.1818749999999999,-0.10277777777777777,3.8567999999970226],[0.14385416666666656,-0.0787037037037037,3.8705],[0.12979166666666658,-0.04740740740740745,3.886699999988082],[0.11687500000000005,0.0012962962962963806,3.9031999999880824],[0.09281249999999991,0.044999999999999915,3.9198999999910598],[0.07760416666666667,0.032037037037036954,3.936699999988079],[0.05020833333333338,0.03296296296296288,3.95359999999404],[0.05322916666666669,0.03129629629629625,3.970000000000006],[0.06427083333333337,0.021851851851851768,3.9865999999940414],[0.04052083333333331,0.004444444444444402,4.003699999988079]]","[0.0002999999970256795,0.03669999998808038,0.04450000000000642,0.05519999998808345,0.07009999999404215,0.09039999999106385,0.10529999999702255,0.12019999998808117,0.1366999999880818,0.15550000000000352,0.17039999999106215,0.18669999998807896,0.204500000000003,0.22000000000000597,0.23679999999702517,0.2532999999970258,0.2700000000000031,0.2890000000000015,0.30329999999702295,0.320199999988084,0.3413999999910615,0.3563999999910621,0.37069999998808356,0.39119999998808197,0.4053999999910616,0.42019999998808544,0.43689999999106277,0.4556999999880844,0.4701999999880826,0.48689999999105993,0.505500000000005,0.5201999999880798,0.5368999999910642,0.5534999999999997,0.5721999999880794,0.5870999999940452,0.6036999999880805,0.6200000000000045,0.638899999991061,0.6535000000000011,0.6700999999940436,0.690599999994042,0.7033999999910634,0.720000000000006,0.7368999999910599,0.7532999999970258,0.770099999994045,0.7866999999880804,0.8051999999880834,0.8200000000000003,0.8366999999880846,0.855699999988083,0.8700999999940393,0.8866999999880818,0.9033999999910591,0.9201999999880854,0.9368999999910628,0.9532999999970215,0.9700999999940407,0.9867999999970252,1.0033999999910606,1.0200000000000031,1.0366999999880804,1.0533999999910648,1.0700000000000003,1.0866999999880846,1.10329999999702,1.1200999999940393,1.1366999999880818,1.1532999999970244,1.1700000000000017,1.1865999999940442,1.2032999999970215,1.2200999999940407,1.2367999999970252,1.2535999999940444,1.2700000000000031,1.2865999999940456,1.303299999997023,1.3200000000000003,1.3367999999970195,1.353399999991062,1.3700000000000045,1.3866999999880818,1.4032999999970244,1.4200999999940436,1.436699999988079,1.4535000000000053,1.470000000000006,1.4866999999880832,1.5033999999910606,1.5200000000000031,1.5366999999880804,1.553299999997023,1.5698999999910654,1.5866999999880846,1.60329999999702,1.6200000000000045,1.6367999999970237,1.6538999999910615,1.6698999999910598,1.686699999988079,1.7032999999970215,1.7202999999970245,1.7367999999970252,1.7533999999910606,1.7700000000000031,1.7865999999940456,1.803299999997023,1.8200000000000003,1.8373999999910637,1.85329999999702,1.8700000000000045,1.88659999999404,1.9033999999910591,1.9200000000000017,1.936699999988079,1.9535000000000053,1.970000000000006,1.9890000000000043,2.0035000000000025,2.020099999994045,2.042399999991062,2.053399999991065,2.0703999999910607,2.0866999999880846,2.1053999999910644,2.120199999988081,2.1378999999910633,2.153399999991059,2.170599999994046,2.1903999999910653,2.2035000000000053,2.220000000000006,2.236699999988083,2.2533999999910606,2.270000000000003,2.2865999999940456,2.30539999999106,2.3200000000000003,2.3367999999970195,2.3566999999880807,2.371299999997021,2.3868999999910656,2.40569999998808,2.4201999999880854,2.440599999994042,2.4580000000000055,2.471599999994041,2.4870999999940437,2.5033999999910606,2.5235000000000056,2.5381999999880804,2.5534999999999997,2.5720999999940446,2.5867999999970195,2.603599999994046,2.623399999991065,2.63809999999404,2.653500000000001,2.6721999999880808,2.689,2.7033999999910634,2.723699999988085,2.7387999999970205,2.753299999997026,2.770000000000003,2.7866999999880804,2.803399999991065,2.8198999999910654,2.837899999991059,2.853599999994046,2.8700000000000045,2.8885999999940424,2.903500000000001,2.9208999999910645,2.940599999994042,2.9556999999880844,2.971599999994041,2.986699999988083,3.004599999994042,3.020000000000003,3.037899999991062,3.054099999994044,3.073399999991061,3.0867999999970195,3.103399999991062,3.1200999999940393,3.136699999988082,3.153399999991059,3.1700000000000017,3.186699999988079,3.2033999999910634,3.2247999999970247,3.242099999994039,3.253299999997026,3.270000000000003,3.287899999991062,3.303299999997023,3.3200000000000003,3.3365999999940428,3.35329999999702,3.3700000000000045,3.3867999999970237,3.4032999999970244,3.422099999994046,3.436699999988079,3.453899999991066,3.469899999991064,3.4865999999940414,3.503299999997026,3.520000000000003,3.5367999999970223,3.553299999997023,3.5700000000000003,3.5866999999880846,3.60329999999702,3.6200000000000045,3.6370000000000005,3.653599999994043,3.6698999999910598,3.686599999994044,3.7032999999970215,3.7220000000000013,3.7382999999970252,3.7555999999940397,3.770000000000003,3.7865999999940456,3.8035999999940415,3.8200000000000003,3.8366999999880846,3.8567999999970226,3.8705,3.886699999988082,3.9031999999880824,3.9198999999910598,3.936699999988079,3.95359999999404,3.970000000000006,3.9865999999940414,4.003699999988079]","[1733199192878,1733199192908,1733199192916,1733199192927,1733199192942,1733199192962,1733199192977,1733199192992,1733199193008,1733199193027,1733199193042,1733199193058,1733199193076,1733199193092,1733199193108,1733199193125,1733199193142,1733199193161,1733199193175,1733199193192,1733199193213,1733199193228,1733199193242,1733199193263,1733199193277,1733199193292,1733199193309,1733199193327,1733199193342,1733199193358,1733199193377,1733199193392,1733199193409,1733199193425,1733199193444,1733199193459,1733199193475,1733199193492,1733199193511,1733199193525,1733199193542,1733199193562,1733199193575,1733199193592,1733199193608,1733199193625,1733199193642,1733199193658,1733199193677,1733199193692,1733199193708,1733199193727,1733199193742,1733199193758,1733199193775,1733199193792,1733199193809,1733199193825,1733199193842,1733199193858,1733199193875,1733199193892,1733199193908,1733199193925,1733199193942,1733199193958,1733199193975,1733199193992,1733199194008,1733199194025,1733199194042,1733199194058,1733199194075,1733199194092,1733199194108,1733199194125,1733199194142,1733199194158,1733199194175,1733199194192,1733199194209,1733199194225,1733199194242,1733199194258,1733199194275,1733199194292,1733199194308,1733199194325,1733199194342,1733199194358,1733199194375,1733199194392,1733199194408,1733199194425,1733199194442,1733199194458,1733199194475,1733199194492,1733199194508,1733199194526,1733199194542,1733199194558,1733199194575,1733199194592,1733199194608,1733199194625,1733199194642,1733199194658,1733199194675,1733199194692,1733199194709,1733199194725,1733199194742,1733199194758,1733199194775,1733199194792,1733199194808,1733199194825,1733199194842,1733199194861,1733199194875,1733199194892,1733199194914,1733199194925,1733199194942,1733199194958,1733199194977,1733199194992,1733199195010,1733199195025,1733199195042,1733199195062,1733199195075,1733199195092,1733199195108,1733199195125,1733199195142,1733199195158,1733199195177,1733199195192,1733199195208,1733199195228,1733199195243,1733199195258,1733199195277,1733199195292,1733199195312,1733199195330,1733199195343,1733199195359,1733199195375,1733199195395,1733199195410,1733199195425,1733199195444,1733199195458,1733199195475,1733199195495,1733199195510,1733199195525,1733199195544,1733199195561,1733199195575,1733199195595,1733199195610,1733199195625,1733199195642,1733199195658,1733199195675,1733199195692,1733199195710,1733199195725,1733199195742,1733199195760,1733199195775,1733199195792,1733199195812,1733199195827,1733199195843,1733199195859,1733199195876,1733199195892,1733199195910,1733199195926,1733199195945,1733199195958,1733199195975,1733199195992,1733199196008,1733199196025,1733199196042,1733199196058,1733199196075,1733199196096,1733199196114,1733199196125,1733199196142,1733199196160,1733199196175,1733199196192,1733199196208,1733199196225,1733199196242,1733199196258,1733199196275,1733199196294,1733199196308,1733199196325,1733199196342,1733199196358,1733199196375,1733199196392,1733199196408,1733199196425,1733199196442,1733199196458,1733199196475,1733199196492,1733199196509,1733199196525,1733199196542,1733199196558,1733199196575,1733199196594,1733199196610,1733199196627,1733199196642,1733199196658,1733199196675,1733199196692,1733199196708,1733199196728,1733199196742,1733199196758,1733199196775,1733199196792,1733199196808,1733199196825,1733199196842,1733199196858,1733199196875]","[[930.8,337.4],[931.4,348.9],[931.4,348.9],[929.2,353.2],[948,363.4],[954.6,362.7],[969.6,360.9],[957.1,376.3],[947.9,391.6],[952.2,415.5],[959.7,425],[975.3,432.7],[984.9,436.5],[986.9,439.7],[989.2,440.1],[987.3,452.4],[990.5,457],[989.7,455.5],[1000,422.9],[1003.2,386.3],[1005.7,366.5],[1005.7,366.5],[1007.5,353.6],[1008.1,335.6],[1008.9,316.4],[1006.2,299.4],[1003.5,282.4],[995.7,278.6],[1007.2,265.1],[1002.7,282.5],[998.2,299.9],[1005.9,318.7],[1015.9,335.2],[1019,352.7],[1015.8,365.3],[1017.8,373.9],[1014.3,378.1],[1010.8,376.8],[1017.4,377.3],[1023.4,379.8],[1035.1,385],[1032.4,375.3],[1032.4,375.3],[1017.8,369.3],[1018,379.5],[1024.3,395.8],[1018.4,402],[1019.5,423.3],[1028.4,438.5],[1021.8,440.9],[1021.6,441.5],[1005.9,456],[997.6,448.6],[1018,494.5],[1031.2,526.9],[1012.3,606.4],[1000.4,700],[1016.2,778],[1019.1,861.5],[1013,955],[1019.9,1055.9],[1036.6,1140.2],[1053.2,1218.2],[1053,1239.2],[1053,1239.2],[1080.7,1237.1],[1120.5,1190.5],[1120.5,1190.5],[1160.3,1143.9],[1160.3,1143.9],[1158.1,1086.4],[1158.1,1086.4],[1167.1,1042.1],[1167.1,1042.1],[1162.8,961.2],[1162.8,961.2],[1151,867.8],[1141.8,782.8],[1125.3,726.4],[1107.4,666.7],[1061.6,630.1],[1051.7,579.4],[1028.8,539.4],[1018.7,515.2],[1007.1,474.2],[1021.3,469.6],[1047.3,469.8],[1070.7,461.6],[1073,460.4],[1076.7,462.5],[1086.9,453.7],[1080.8,456.4],[1074.7,458.2],[1074.7,458.2],[1068.6,460],[1045.3,469.7],[1028.8,491],[998.2,491.1],[964.4,512.7],[941.5,513.6],[918.6,514.5],[903.8,510.4],[888.9,506.5],[878.7,501.7],[868.5,496.9],[881.4,490.7],[887.5,472.9],[894.5,469.4],[895.3,448],[906.4,445.9],[922.5,445.5],[924,461],[935,471],[954.3,472.1],[972.9,469.3],[981,464.2],[978,454.5],[970.9,452],[981.4,445.8],[994.5,440.2],[1004.2,424.8],[1013.9,409.4],[1014.6,399.3],[1014.6,399.3],[1000.5,389.3],[994,381.4],[987.5,373.5],[998.7,378.1],[1009.9,382.7],[1000.1,377.2],[995.4,368.3],[989.1,367.5],[982.6,362.9],[976.1,358.3],[980,353.6],[977,350.7],[978.3,356.2],[973,353.8],[962.8,345.6],[973.9,351.4],[981.2,361],[988,367],[991.3,374],[1008.4,380.2],[1024.4,381.2],[1032.1,388.3],[1035.5,387],[1047.9,392.6],[1056.2,397.9],[1055.4,399.4],[1050.6,393.9],[1046.4,393.3],[1037.9,398.3],[1015.6,404.1],[1008.8,411.2],[1010,416.7],[993.3,428.1],[968.9,432.6],[973.5,444.6],[974.2,435.3],[976.6,424.5],[988,443.5],[985.1,445.9],[1002.4,467.6],[1000,472],[997.9,471.9],[1004.5,472.6],[1004.5,472.6],[1009.8,473.3],[1001.5,476],[997.7,500],[996.3,514.3],[979.2,499.3],[981.4,506.4],[982.9,487.6],[984.4,501.4],[985.9,515.2],[1013.6,511.6],[1030.6,506.6],[1041.2,498.2],[1057.8,496.8],[1070.3,506.6],[1079.6,506.9],[1098,493],[1102.3,483],[1111.6,470.9],[1111.6,470.9],[1109.3,470.3],[1109.3,470.3],[1099.4,475.1],[1099.4,475.1],[1109.7,477.1],[1109.7,477.1],[1118.6,492.8],[1115.5,485.9],[1115.5,485.9],[1107.8,475.7],[1121.6,471],[1129.3,472.2],[1114.3,466.7],[1104,451.9],[1107.5,440.6],[1101.6,434.6],[1076.1,438.5],[1070.3,435.9],[1069.4,438.4],[1071.2,446.5],[1061.3,456.8],[1036.4,459.5],[1028.8,471.6],[1046.6,480.7],[1059.9,475.1],[1077.3,473],[1105.6,476.8],[1114.6,481.3],[1124.6,496.3],[1133.3,485.5],[1142,474.7],[1164.4,472.7],[1178.8,489],[1167.8,508.3],[1182.1,512.2],[1193,517.9],[1185.2,502.4],[1176,484.5],[1177.6,469.3],[1167.7,483.3],[1170.8,489.9],[1154.8,495.5],[1139.1,487],[1144.4,471.8],[1134.6,484.5],[1098.1,497.5],[1084.6,514.4],[1072.2,540.7],[1049.1,564.3],[1034.5,557.3],[1008.2,557.8],[1011.1,556.9],[1021.7,551.8],[998.9,542.4]]","[0,0.151169218]","[0.151169218,0.151169218]","[-0.151169218,-0.151169218]","[-0.151169218,0]","[0,-0.151169218]","[0.151169218,-0.151169218]","[0,0]","[0.151169218,0]",0,0,0,0,1,4,Smartphone,11,5,13,9
,,,,,,,,,,,,,,,,,,,,39,001,2024-12-03_12h12.25.813,Attention_exp_legacy,2023.1.0,Win32,59.88023952,,,,,,,,,,[-0.013541666666666667],[0.14444444444444443],[1],[0],[0],[2.015499999999996],"[""Option1_label""]",Option1_label,2,3.0164,"[[0.16145833333333334,0.15185185185185185],[0.16145833333333334,0.15185185185185185],[0.16145833333333334,0.15185185185185185],[0.16145833333333334,0.15185185185185185],[0.16145833333333334,0.15185185185185185],[0.16145833333333334,0.15185185185185185],[0.16145833333333334,0.15185185185185185],[0.16145833333333334,0.15185185185185185],[0.16145833333333334,0.15185185185185185],[0.16145833333333334,0.15185185185185185],[0.16145833333333334,0.15185185185185185],[0.16145833333333334,0.15185185185185185],[0.16145833333333334,0.15185185185185185],[0.16145833333333334,0.15185185185185185],[0.16145833333333334,0.15185185185185185],[0.16145833333333334,0.15185185185185185],[0.16145833333333334,0.15185185185185185],[0.16145833333333334,0.15185185185185185],[0.16145833333333334,0.15185185185185185],[0.16145833333333334,0.15185185185185185],[0.16145833333333334,0.15185185185185185],[0.16145833333333334,0.15185185185185185],[0.16145833333333334,0.15185185185185185],[0.16145833333333334,0.15185185185185185],[0.16145833333333334,0.15185185185185185],[0.16145833333333334,0.15185185185185185],[0.16145833333333334,0.15185185185185185],[0.16145833333333334,0.15185185185185185],[0.16145833333333334,0.15185185185185185],[0.16145833333333334,0.15185185185185185],[0.16145833333333334,0.15185185185185185],[0.16145833333333334,0.15185185185185185],[0.16145833333333334,0.15185185185185185],[0.16145833333333334,0.15185185185185185],[0.16145833333333334,0.15185185185185185],[0.16145833333333334,0.15185185185185185],[0.16145833333333334,0.15185185185185185],[0.16145833333333334,0.15185185185185185],[0.16145833333333334,0.15185185185185185],[0.16145833333333334,0.15185185185185185],[0.16145833333333334,0.15185185185185185],[0.16145833333333334,0.15185185185185185],[0.16145833333333334,0.15185185185185185],[0.16145833333333334,0.15185185185185185],[0.16145833333333334,0.15185185185185185],[0.16145833333333334,0.15185185185185185],[0.16145833333333334,0.15185185185185185],[0.16145833333333334,0.15185185185185185],[0.16145833333333334,0.15185185185185185],[0.16145833333333334,0.15185185185185185],[0.16145833333333334,0.15185185185185185],[0.16145833333333334,0.15185185185185185],[0.16145833333333334,0.15185185185185185],[0.16145833333333334,0.15185185185185185],[0.16145833333333334,0.15185185185185185],[0.16145833333333334,0.15185185185185185],[0.16145833333333334,0.15185185185185185],[0.16145833333333334,0.15185185185185185],[0.16145833333333334,0.15185185185185185],[0.159375,0.15185185185185185],[0.15416666666666667,0.15555555555555556],[0.15104166666666666,0.15555555555555556],[0.14895833333333333,0.15555555555555556],[0.14479166666666668,0.1574074074074074],[0.14270833333333333,0.1574074074074074],[0.14166666666666666,0.15925925925925927],[0.13854166666666667,0.15925925925925927],[0.13645833333333332,0.15925925925925927],[0.13229166666666667,0.15925925925925927],[0.128125,0.15925925925925927],[0.11979166666666667,0.15925925925925927],[0.11145833333333334,0.15925925925925927],[0.10104166666666667,0.15925925925925927],[0.09270833333333334,0.15925925925925927],[0.08645833333333333,0.1574074074074074],[0.08229166666666667,0.1574074074074074],[0.07708333333333334,0.1574074074074074],[0.075,0.1574074074074074],[0.071875,0.1574074074074074],[0.06875,0.1574074074074074],[0.065625,0.1574074074074074],[0.06041666666666667,0.1574074074074074],[0.052083333333333336,0.1574074074074074],[0.035416666666666666,0.1574074074074074],[0.023958333333333335,0.1574074074074074],[0.0125,0.15555555555555556],[0.003125,0.15185185185185185],[-0.003125,0.15],[-0.008333333333333333,0.14814814814814814],[-0.010416666666666666,0.14814814814814814],[-0.0125,0.14629629629629629],[-0.0125,0.14629629629629629],[-0.013541666666666667,0.14629629629629629],[-0.013541666666666667,0.14444444444444443],[-0.013541666666666667,0.14444444444444443],[-0.013541666666666667,0.14444444444444443],[-0.013541666666666667,0.14444444444444443],[-0.013541666666666667,0.14444444444444443],[-0.013541666666666667,0.14444444444444443],[-0.013541666666666667,0.14444444444444443],[-0.013541666666666667,0.14444444444444443],[-0.013541666666666667,0.14444444444444443],[-0.013541666666666667,0.14444444444444443],[-0.013541666666666667,0.14444444444444443],[-0.013541666666666667,0.14444444444444443],[-0.013541666666666667,0.14444444444444443],[-0.013541666666666667,0.14444444444444443],[-0.013541666666666667,0.14444444444444443],[-0.013541666666666667,0.14444444444444443],[-0.013541666666666667,0.14444444444444443],[-0.013541666666666667,0.14444444444444443],[-0.013541666666666667,0.14444444444444443],[-0.013541666666666667,0.14444444444444443],[-0.013541666666666667,0.14444444444444443],[-0.013541666666666667,0.14444444444444443],[-0.013541666666666667,0.14444444444444443],[-0.013541666666666667,0.14444444444444443],[-0.013541666666666667,0.14444444444444443],[-0.013541666666666667,0.14444444444444443],[-0.013541666666666667,0.14444444444444443],[-0.013541666666666667,0.14444444444444443],[-0.013541666666666667,0.14444444444444443],[-0.013541666666666667,0.14444444444444443],[-0.013541666666666667,0.14444444444444443],[-0.013541666666666667,0.14444444444444443],[-0.013541666666666667,0.14444444444444443],[-0.013541666666666667,0.14444444444444443],[-0.013541666666666667,0.14444444444444443],[-0.013541666666666667,0.14444444444444443],[-0.013541666666666667,0.14444444444444443],[-0.013541666666666667,0.14444444444444443],[-0.013541666666666667,0.14444444444444443],[-0.013541666666666667,0.14444444444444443],[-0.013541666666666667,0.14444444444444443],[-0.013541666666666667,0.14444444444444443],[-0.013541666666666667,0.14444444444444443],[-0.013541666666666667,0.14444444444444443],[-0.013541666666666667,0.14444444444444443],[-0.013541666666666667,0.14444444444444443],[-0.013541666666666667,0.14444444444444443],[-0.013541666666666667,0.14444444444444443],[-0.013541666666666667,0.14444444444444443],[-0.013541666666666667,0.14444444444444443],[-0.013541666666666667,0.14444444444444443],[-0.013541666666666667,0.14444444444444443],[-0.013541666666666667,0.14444444444444443],[-0.011458333333333333,0.14629629629629629],[-0.009375,0.14629629629629629],[-0.007291666666666667,0.14814814814814814],[-0.005208333333333333,0.14814814814814814],[-0.0020833333333333333,0.15185185185185185],[0,0.15185185185185185],[0.005208333333333333,0.15185185185185185],[0.011458333333333333,0.15185185185185185],[0.023958333333333335,0.1574074074074074],[0.029166666666666667,0.15925925925925927],[0.035416666666666666,0.16111111111111112],[0.03958333333333333,0.16111111111111112],[0.04375,0.16111111111111112],[0.046875,0.16111111111111112],[0.04895833333333333,0.16296296296296298],[0.051041666666666666,0.1648148148148148],[0.051041666666666666,0.1648148148148148],[0.053125,0.1648148148148148],[0.053125,0.1648148148148148],[0.05416666666666667,0.1648148148148148],[0.05520833333333333,0.1648148148148148],[0.05625,0.1648148148148148],[0.05625,0.1648148148148148],[0.05625,0.1648148148148148],[0.05625,0.1648148148148148],[0.05625,0.16666666666666666],[0.05625,0.16666666666666666],[0.05625,0.16666666666666666],[0.05625,0.16666666666666666],[0.05625,0.16666666666666666],[0.05625,0.16666666666666666],[0.05625,0.16666666666666666],[0.05625,0.16666666666666666],[0.05625,0.16666666666666666],[0.05625,0.16666666666666666],[0.05625,0.16666666666666666]]","[[0.08833333333333329,0.1764814814814814],[0.11104166666666657,0.1766666666666666],[0.10593750000000005,0.2074074074074074],[0.10593750000000005,0.2074074074074074],[0.08947916666666676,0.21444444444444435],[0.10604166666666662,0.2081481481481481],[0.10604166666666662,0.2081481481481481],[0.11427083333333338,0.20111111111111116],[0.11427083333333338,0.20111111111111116],[0.09635416666666667,0.19148148148148145],[0.09635416666666667,0.19148148148148145],[0.10229166666666671,0.16518518518518527],[0.10333333333333337,0.0992592592592593],[0.10333333333333337,0.0992592592592593],[0.10947916666666657,0.053703703703703705],[0.115625,0.006296296296296254],[0.12750000000000009,-0.012592592592592508],[0.13937499999999994,-0.03148148148148148],[0.1568749999999999,-0.030555555555555555],[0.15958333333333338,-0.0794444444444444],[0.1584374999999999,-0.13185185185185183],[0.17614583333333325,-0.16666666666666666],[0.1560416666666666,-0.12537037037037035],[0.15427083333333325,-0.09722222222222222],[0.1525000000000001,-0.0690740740740741],[0.16906249999999995,-0.09611111111111106],[0.1710416666666667,-0.13425925925925927],[0.16843750000000005,-0.17888888888888893],[0.16854166666666662,-0.19740740740740745],[0.16479166666666673,-0.17537037037037034],[0.1648958333333333,-0.14981481481481476],[0.18260416666666662,-0.15],[0.20010416666666658,-0.1624074074074074],[0.22354166666666658,-0.1566666666666667],[0.24697916666666658,-0.15092592592592594],[0.23291666666666658,-0.13499999999999995],[0.21885416666666657,-0.1190740740740741],[0.209375,-0.09666666666666665],[0.2068749999999999,-0.10018518518518522],[0.21708333333333343,-0.147037037037037],[0.2241666666666667,-0.1537037037037037],[0.21364583333333323,-0.1346296296296296],[0.2007291666666667,-0.14203703703703702],[0.17697916666666677,-0.13518518518518519],[0.1632291666666667,-0.13629629629629633],[0.1618750000000001,-0.12370370370370372],[0.16572916666666657,-0.10833333333333334],[0.15041666666666675,-0.09203703703703701],[0.128125,-0.04981481481481477],[0.11229166666666662,-0.003703703703703704],[0.09958333333333323,0.0022222222222223064],[0.08937499999999995,0.016666666666666666],[0.0943749999999999,0.024814814814814772],[0.09541666666666657,0.029259259259259176],[0.08937499999999995,0.011666666666666582],[0.07760416666666667,-0.005000000000000084],[0.05666666666666664,0.0031481481481482323],[0.06760416666666676,-0.009444444444444486],[0.07854166666666676,-0.022037037037036994],[0.0734375,-0.022777777777777692],[0.08156249999999995,-0.04148148148148144],[0.084375,-0.0816666666666667],[0.07843749999999995,-0.04666666666666675],[0.08697916666666666,-0.0705555555555556],[0.09604166666666672,-0.07296296296296292],[0.11354166666666667,-0.09444444444444444],[0.13864583333333325,-0.1361111111111111],[0.1388541666666666,-0.17296296296296293],[0.1390625,-0.20981481481481484],[0.14885416666666676,-0.26240740740740737],[0.15270833333333325,-0.2712962962962963],[0.1618750000000001,-0.25203703703703706],[0.17979166666666657,-0.307962962962963],[0.17677083333333338,-0.3127777777777777],[0.1703125,-0.30907407407407406],[0.15656249999999997,-0.2698148148148148],[0.13916666666666658,-0.23796296296296296],[0.1337500000000001,-0.18703703703703703],[0.12833333333333338,-0.1361111111111111],[0.12083333333333333,-0.09666666666666665],[0.10791666666666658,-0.0883333333333333],[0.08135416666666657,-0.05055555555555547],[0.05479166666666669,-0.012777777777777735],[0.050416666666666644,-0.01314814814814819],[0.04666666666666662,-0.01518518518518527],[0.04750000000000002,-0.03462962962962971],[0.04750000000000002,-0.03462962962962971],[0.041562499999999974,-0.047037037037036995],[0.029375000000000047,-0.06740740740740736],[0.0171875,-0.08777777777777773],[0.012916666666666642,-0.09907407407407408],[0.0067708333333333336,-0.10499999999999998],[0.01854166666666662,-0.15055555555555558],[0.030312500000000023,-0.19611111111111107],[0.027708333333333356,-0.1537037037037037],[0.02010416666666662,-0.11185185185185181],[0.0125,-0.07000000000000002],[0.01552083333333331,-0.05388888888888893],[0.025,-0.0338888888888888],[0.024479166666666666,-0.009074074074074031],[0.018124999999999978,0.018148148148148063],[0.0265625,0.04425925925925922],[0.02822916666666669,0.06537037037037029],[0.03135416666666669,0.0477777777777777],[0.03708333333333336,-0.008148148148148106],[0.04781249999999997,-0.0668518518518519],[0.058541666666666714,-0.1255555555555556],[0.0609375,-0.1259259259259259],[0.06333333333333328,-0.12629629629629627],[0.07572916666666671,-0.13148148148148148],[0.08291666666666657,-0.147037037037037],[0.07531249999999995,-0.16148148148148145],[0.08416666666666663,-0.1603703703703704],[0.09156250000000009,-0.1205555555555556],[0.0931250000000001,-0.0992592592592593],[0.10437500000000005,-0.0794444444444444],[0.1087500000000001,-0.05499999999999998],[0.11760416666666676,-0.07018518518518514],[0.12895833333333329,-0.0977777777777778],[0.14093749999999997,-0.11851851851851852],[0.1540625000000001,-0.13537037037037042],[0.17677083333333338,-0.14018518518518516],[0.18302083333333338,-0.16055555555555553],[0.17083333333333334,-0.15388888888888894],[0.17083333333333334,-0.15388888888888894],[0.16447916666666676,-0.1287037037037037],[0.16447916666666676,-0.1287037037037037],[0.15593750000000003,-0.14759259259259258],[0.15593750000000003,-0.14759259259259258],[0.18312499999999995,-0.175],[0.18312499999999995,-0.175],[0.20447916666666663,-0.18499999999999997],[0.19208333333333344,-0.18777777777777774],[0.19208333333333344,-0.18777777777777774],[0.18093750000000006,-0.20111111111111116],[0.17520833333333338,-0.19222222222222224],[0.15520833333333334,-0.19870370370370372],[0.1352083333333333,-0.2051851851851852],[0.14343750000000005,-0.23129629629629625],[0.15166666666666656,-0.2574074074074074],[0.14520833333333344,-0.22907407407407404],[0.10989583333333333,-0.19685185185185186],[0.09197916666666663,-0.1801851851851852],[0.0962500000000001,-0.18740740740740738],[0.09864583333333338,-0.19092592592592597],[0.11489583333333328,-0.17833333333333334],[0.13562500000000005,-0.16370370370370366],[0.12604166666666666,-0.14907407407407408],[0.10364583333333334,-0.14222222222222225],[0.08708333333333323,-0.14870370370370373],[0.08052083333333329,-0.15925925925925927],[0.07447916666666667,-0.17537037037037034],[0.05687500000000002,-0.1933333333333333],[0.041770833333333354,-0.1809259259259259],[0.04229166666666669,-0.17592592592592593],[0.021562500000000047,-0.1905555555555555],[0.0010416666666666667,-0.20388888888888893],[0.010000000000000024,-0.21351851851851855],[0.022083333333333382,-0.22611111111111115],[0.02833333333333338,-0.22537037037037036],[0.03145833333333338,-0.22092592592592594],[0.034062500000000044,-0.21092592592592588],[0.03833333333333329,-0.19462962962962968],[0.04916666666666671,-0.17962962962962964],[0.025,-0.16777777777777783],[0.027499999999999976,-0.17518518518518522],[0.029999999999999954,-0.18259259259259264],[0.029999999999999954,-0.18259259259259264],[0.03208333333333328,-0.182962962962963],[0.03208333333333328,-0.182962962962963],[0.057083333333333285,-0.20851851851851855],[0.05343749999999995,-0.19425925925925921],[0.06322916666666671,-0.18888888888888888],[0.06145833333333333,-0.18796296296296297],[0.05802083333333338,-0.1933333333333333],[0.04572916666666664,-0.2101851851851852],[0.0546875,-0.21481481481481482],[0.04520833333333331,-0.23481481481481484],[0.03572916666666662,-0.2548148148148149],[0.033958333333333354,-0.2646296296296296],[0.00916666666666662,-0.24592592592592594],[0.013020833333333334,-0.267037037037037]]","[[0.08833333333333329,0.1764814814814814,0.0000999999940418661],[0.11104166666666657,0.1766666666666666,0.017700000002982108],[0.10593750000000005,0.2074074074074074,0.03350000000000364],[0.10593750000000005,0.2074074074074074,0.04959999999404374],[0.08947916666666676,0.21444444444444435,0.06639999999106294],[0.10604166666666662,0.2081481481481481,0.08639999999105896],[0.10604166666666662,0.2081481481481481,0.09970000000298285],[0.11427083333333338,0.20111111111111116,0.11629999999701823],[0.11427083333333338,0.20111111111111116,0.13300000000000267],[0.09635416666666667,0.19148148148148145,0.14959999999403806],[0.09635416666666667,0.19148148148148145,0.1662999999970225],[0.10229166666666671,0.16518518518518527,0.18320000000298364],[0.10333333333333337,0.0992592592592593,0.20159999999403766],[0.10333333333333337,0.0992592592592593,0.21639999999106152],[0.10947916666666657,0.053703703703703705,0.2330000000000041],[0.115625,0.006296296296296254,0.24959999999403948],[0.12750000000000009,-0.012592592592592508,0.2662999999970239],[0.13937499999999994,-0.03148148148148148,0.2828999999910593],[0.1568749999999999,-0.030555555555555555,0.2997000000029786],[0.15958333333333338,-0.0794444444444444,0.31639999999106294],[0.1584374999999999,-0.13185185185185183,0.3329999999999984],[0.17614583333333325,-0.16666666666666666,0.3495999999940409],[0.1560416666666666,-0.12537037037037035,0.36629999999701823],[0.15427083333333325,-0.09722222222222222,0.3828999999910607],[0.1525000000000001,-0.0690740740740741,0.39959999999403806],[0.16906249999999995,-0.09611111111111106,0.41639999999105726],[0.1710416666666667,-0.13425925925925927,0.43299999999999983],[0.16843750000000005,-0.17888888888888893,0.44970000000298427],[0.16854166666666662,-0.19740740740740745,0.46629999999701965],[0.16479166666666673,-0.17537037037037034,0.4830000000000041],[0.1648958333333333,-0.14981481481481476,0.4997000000029814],[0.18260416666666662,-0.15,0.5162999999970239],[0.20010416666666658,-0.1624074074074074,0.5330000000000013],[0.22354166666666658,-0.1566666666666667,0.5497000000029786],[0.24697916666666658,-0.15092592592592594,0.5662999999970211],[0.23291666666666658,-0.13499999999999995,0.5829999999999984],[0.21885416666666657,-0.1190740740740741,0.5995999999940409],[0.209375,-0.09666666666666665,0.6163999999910601],[0.2068749999999999,-0.10018518518518522,0.6328999999910607],[0.21708333333333343,-0.147037037037037,0.6522000000029777],[0.2241666666666667,-0.1537037037037037,0.6662999999970225],[0.21364583333333323,-0.1346296296296296,0.6829999999999998],[0.2007291666666667,-0.14203703703703702,0.6997000000029843],[0.17697916666666677,-0.13518518518518519,0.7165000000000035],[0.1632291666666667,-0.13629629629629633,0.7330999999940389],[0.1618750000000001,-0.12370370370370372,0.7497000000029814],[0.16572916666666657,-0.10833333333333334,0.7662999999970239],[0.15041666666666675,-0.09203703703703701,0.7830000000000013],[0.128125,-0.04981481481481477,0.7995999999940437],[0.11229166666666662,-0.003703703703703704,0.8163999999910629],[0.09958333333333323,0.0022222222222223064,0.8328999999910636],[0.08937499999999995,0.016666666666666666,0.8495999999940409],[0.0943749999999999,0.024814814814814772,0.8662999999970182],[0.09541666666666657,0.029259259259259176,0.8830000000000027],[0.08937499999999995,0.011666666666666582,0.89970000000298],[0.07760416666666667,-0.005000000000000084,0.9165999999940411],[0.05666666666666664,0.0031481481481482323,0.9329999999999998],[0.06760416666666676,-0.009444444444444486,0.9495999999940423],[0.07854166666666676,-0.022037037037036994,0.9662999999970197],[0.0734375,-0.022777777777777692,0.985299999997018],[0.08156249999999995,-0.04148148148148144,0.9997999999970233],[0.084375,-0.0816666666666667,1.0167000000029844],[0.07843749999999995,-0.04666666666666675,1.036200000002978],[0.08697916666666666,-0.0705555555555556,1.0497999999970204],[0.09604166666666672,-0.07296296296296292,1.069399999991063],[0.11354166666666667,-0.09444444444444444,1.0830999999940403],[0.13864583333333325,-0.1361111111111111,1.1030999999940434],[0.1388541666666666,-0.17296296296296293,1.1182000000029788],[0.1390625,-0.20981481481481484,1.1330999999940374],[0.14885416666666676,-0.26240740740740737,1.1517999999970243],[0.15270833333333325,-0.2712962962962963,1.1668999999910596],[0.1618750000000001,-0.25203703703703706,1.1832000000029836],[0.17979166666666657,-0.307962962962963,1.2030999999940377],[0.17677083333333338,-0.3127777777777777,1.2182000000029802],[0.1703125,-0.30907407407407406,1.2332000000029808],[0.15656249999999997,-0.2698148148148148,1.2497000000029814],[0.13916666666666658,-0.23796296296296296,1.2695999999940426],[0.1337500000000001,-0.18703703703703703,1.2832999999970198],[0.12833333333333338,-0.1361111111111111,1.2997000000029786],[0.12083333333333333,-0.09666666666666665,1.3192000000029793],[0.10791666666666658,-0.0883333333333333,1.3352000000029847],[0.08135416666666657,-0.05055555555555547,1.3497999999970176],[0.05479166666666669,-0.012777777777777735,1.3705999999940417],[0.050416666666666644,-0.01314814814814819,1.3845000000000027],[0.04666666666666662,-0.01518518518518527,1.39970000000298],[0.04750000000000002,-0.03462962962962971,1.4227000000029832],[0.04750000000000002,-0.03462962962962971,1.4330999999940417],[0.041562499999999974,-0.047037037037036995,1.449899999991061],[0.029375000000000047,-0.06740740740740736,1.4663999999910615],[0.0171875,-0.08777777777777773,1.4849999999999994],[0.012916666666666642,-0.09907407407407408,1.4997999999970233],[0.0067708333333333336,-0.10499999999999998,1.516299999997024],[0.01854166666666662,-0.15055555555555558,1.5330000000000013],[0.030312500000000023,-0.19611111111111107,1.5530000000000044],[0.027708333333333356,-0.1537037037037037,1.566299999997021],[0.02010416666666662,-0.11185185185185181,1.5828999999910636],[0.0125,-0.07000000000000002,1.599599999994041],[0.01552083333333331,-0.05388888888888893,1.6162999999970182],[0.025,-0.0338888888888888,1.6332000000029794],[0.024479166666666666,-0.009074074074074031,1.649599999994038],[0.018124999999999978,0.018148148148148063,1.6662000000029806],[0.0265625,0.04425925925925922,1.6829999999999998],[0.02822916666666669,0.06537037037037029,1.6997000000029843],[0.03135416666666669,0.0477777777777777,1.7162999999970197],[0.03708333333333336,-0.008148148148148106,1.733000000000004],[0.04781249999999997,-0.0668518518518519,1.7497000000029814],[0.058541666666666714,-0.1255555555555556,1.766299999997024],[0.0609375,-0.1259259259259259,1.7830000000000013],[0.06333333333333328,-0.12629629629629627,1.7997000000029786],[0.07572916666666671,-0.13148148148148148,1.817099999994042],[0.08291666666666657,-0.147037037037037,1.8367000000029847],[0.07531249999999995,-0.16148148148148145,1.8507999999970224],[0.08416666666666663,-0.1603703703703704,1.8662999999970182],[0.09156250000000009,-0.1205555555555556,1.8828999999910607],[0.0931250000000001,-0.0992592592592593,1.899599999994038],[0.10437500000000005,-0.0794444444444444,1.9163999999910573],[0.1087500000000001,-0.05499999999999998,1.9330999999940417],[0.11760416666666676,-0.07018518518518514,1.9495999999940423],[0.12895833333333329,-0.0977777777777778,1.9662000000029778],[0.14093749999999997,-0.11851851851851852,1.983000000000004],[0.1540625000000001,-0.13537037037037042,1.9997000000029814],[0.17677083333333338,-0.14018518518518516,2.016299999997024],[0.18302083333333338,-0.16055555555555553,2.036200000002978],[0.17083333333333334,-0.15388888888888894,2.0530000000000044],[0.17083333333333334,-0.15388888888888894,2.066299999997021],[0.16447916666666676,-0.1287037037037037,2.0829999999999984],[0.16447916666666676,-0.1287037037037037,2.099599999994041],[0.15593750000000003,-0.14759259259259258,2.1162999999970182],[0.15593750000000003,-0.14759259259259258,2.1328999999910607],[0.18312499999999995,-0.175,2.14970000000298],[0.18312499999999995,-0.175,2.166499999999999],[0.20447916666666663,-0.18499999999999997,2.183],[0.19208333333333344,-0.18777777777777774,2.20509999999404],[0.19208333333333344,-0.18777777777777774,2.2162999999970197],[0.18093750000000006,-0.20111111111111116,2.233000000000004],[0.17520833333333338,-0.19222222222222224,2.2495999999940395],[0.15520833333333334,-0.19870370370370372,2.266299999997024],[0.1352083333333333,-0.2051851851851852,2.2830000000000013],[0.14343750000000005,-0.23129629629629625,2.2995999999940437],[0.15166666666666656,-0.2574074074074074,2.316299999997021],[0.14520833333333344,-0.22907407407407404,2.3329999999999984],[0.10989583333333333,-0.19685185185185186,2.349599999994041],[0.09197916666666663,-0.1801851851851852,2.3662000000029835],[0.0962500000000001,-0.18740740740740738,2.3830000000000027],[0.09864583333333338,-0.19092592592592597,2.399599999994038],[0.11489583333333328,-0.17833333333333334,2.4163999999910573],[0.13562500000000005,-0.16370370370370366,2.435200000002979],[0.12604166666666666,-0.14907407407407408,2.4497000000029843],[0.10364583333333334,-0.14222222222222225,2.4665999999940382],[0.08708333333333323,-0.14870370370370373,2.483200000002981],[0.08052083333333329,-0.15925925925925927,2.501599999994042],[0.07447916666666667,-0.17537037037037034,2.5165000000000006],[0.05687500000000002,-0.1933333333333333,2.533200000002978],[0.041770833333333354,-0.1809259259259259,2.5530000000000044],[0.04229166666666669,-0.17592592592592593,2.5675000000000026],[0.021562500000000047,-0.1905555555555555,2.5830999999940403],[0.0010416666666666667,-0.20388888888888893,2.60179999999702],[0.010000000000000024,-0.21351851851851855,2.618099999994044],[0.022083333333333382,-0.22611111111111115,2.6345999999940375],[0.02833333333333338,-0.22537037037037036,2.652799999997022],[0.03145833333333338,-0.22092592592592594,2.666599999994041],[0.034062500000000044,-0.21092592592592588,2.6830999999940417],[0.03833333333333329,-0.19462962962962968,2.6995000000000005],[0.04916666666666671,-0.17962962962962964,2.720700000002978],[0.025,-0.16777777777777783,2.7363999999910575],[0.027499999999999976,-0.17518518518518522,2.7512999999970233],[0.029999999999999954,-0.18259259259259264,2.767000000000003],[0.029999999999999954,-0.18259259259259264,2.802500000000002],[0.03208333333333328,-0.182962962962963,2.808799999997021],[0.03208333333333328,-0.182962962962963,2.816499999999998],[0.057083333333333285,-0.20851851851851855,2.8328999999910636],[0.05343749999999995,-0.19425925925925921,2.8513999999910595],[0.06322916666666671,-0.18888888888888888,2.8662999999970182],[0.06145833333333333,-0.18796296296296297,2.8828999999910607],[0.05802083333333338,-0.1933333333333333,2.899599999994038],[0.04572916666666664,-0.2101851851851852,2.9162999999970225],[0.0546875,-0.21481481481481482,2.933],[0.04520833333333331,-0.23481481481481484,2.9495999999940423],[0.03572916666666662,-0.2548148148148149,2.9662999999970197],[0.033958333333333354,-0.2646296296296296,2.982899999991062],[0.00916666666666662,-0.24592592592592594,2.9995999999940466],[0.013020833333333334,-0.267037037037037,3.016399999991066]]","[0.0000999999940418661,0.017700000002982108,0.03350000000000364,0.04959999999404374,0.06639999999106294,0.08639999999105896,0.09970000000298285,0.11629999999701823,0.13300000000000267,0.14959999999403806,0.1662999999970225,0.18320000000298364,0.20159999999403766,0.21639999999106152,0.2330000000000041,0.24959999999403948,0.2662999999970239,0.2828999999910593,0.2997000000029786,0.31639999999106294,0.3329999999999984,0.3495999999940409,0.36629999999701823,0.3828999999910607,0.39959999999403806,0.41639999999105726,0.43299999999999983,0.44970000000298427,0.46629999999701965,0.4830000000000041,0.4997000000029814,0.5162999999970239,0.5330000000000013,0.5497000000029786,0.5662999999970211,0.5829999999999984,0.5995999999940409,0.6163999999910601,0.6328999999910607,0.6522000000029777,0.6662999999970225,0.6829999999999998,0.6997000000029843,0.7165000000000035,0.7330999999940389,0.7497000000029814,0.7662999999970239,0.7830000000000013,0.7995999999940437,0.8163999999910629,0.8328999999910636,0.8495999999940409,0.8662999999970182,0.8830000000000027,0.89970000000298,0.9165999999940411,0.9329999999999998,0.9495999999940423,0.9662999999970197,0.985299999997018,0.9997999999970233,1.0167000000029844,1.036200000002978,1.0497999999970204,1.069399999991063,1.0830999999940403,1.1030999999940434,1.1182000000029788,1.1330999999940374,1.1517999999970243,1.1668999999910596,1.1832000000029836,1.2030999999940377,1.2182000000029802,1.2332000000029808,1.2497000000029814,1.2695999999940426,1.2832999999970198,1.2997000000029786,1.3192000000029793,1.3352000000029847,1.3497999999970176,1.3705999999940417,1.3845000000000027,1.39970000000298,1.4227000000029832,1.4330999999940417,1.449899999991061,1.4663999999910615,1.4849999999999994,1.4997999999970233,1.516299999997024,1.5330000000000013,1.5530000000000044,1.566299999997021,1.5828999999910636,1.599599999994041,1.6162999999970182,1.6332000000029794,1.649599999994038,1.6662000000029806,1.6829999999999998,1.6997000000029843,1.7162999999970197,1.733000000000004,1.7497000000029814,1.766299999997024,1.7830000000000013,1.7997000000029786,1.817099999994042,1.8367000000029847,1.8507999999970224,1.8662999999970182,1.8828999999910607,1.899599999994038,1.9163999999910573,1.9330999999940417,1.9495999999940423,1.9662000000029778,1.983000000000004,1.9997000000029814,2.016299999997024,2.036200000002978,2.0530000000000044,2.066299999997021,2.0829999999999984,2.099599999994041,2.1162999999970182,2.1328999999910607,2.14970000000298,2.166499999999999,2.183,2.20509999999404,2.2162999999970197,2.233000000000004,2.2495999999940395,2.266299999997024,2.2830000000000013,2.2995999999940437,2.316299999997021,2.3329999999999984,2.349599999994041,2.3662000000029835,2.3830000000000027,2.399599999994038,2.4163999999910573,2.435200000002979,2.4497000000029843,2.4665999999940382,2.483200000002981,2.501599999994042,2.5165000000000006,2.533200000002978,2.5530000000000044,2.5675000000000026,2.5830999999940403,2.60179999999702,2.618099999994044,2.6345999999940375,2.652799999997022,2.666599999994041,2.6830999999940417,2.6995000000000005,2.720700000002978,2.7363999999910575,2.7512999999970233,2.767000000000003,2.802500000000002,2.808799999997021,2.816499999999998,2.8328999999910636,2.8513999999910595,2.8662999999970182,2.8828999999910607,2.899599999994038,2.9162999999970225,2.933,2.9495999999940423,2.9662999999970197,2.982899999991062,2.9995999999940466,3.016399999991066]","[1733199197893,1733199197910,1733199197925,1733199197942,1733199197958,1733199197978,1733199197992,1733199198008,1733199198025,1733199198042,1733199198058,1733199198075,1733199198094,1733199198108,1733199198125,1733199198142,1733199198158,1733199198175,1733199198192,1733199198208,1733199198225,1733199198242,1733199198258,1733199198275,1733199198292,1733199198308,1733199198325,1733199198342,1733199198358,1733199198375,1733199198392,1733199198408,1733199198425,1733199198442,1733199198458,1733199198475,1733199198492,1733199198508,1733199198525,1733199198544,1733199198558,1733199198575,1733199198592,1733199198608,1733199198625,1733199198642,1733199198658,1733199198675,1733199198692,1733199198708,1733199198725,1733199198742,1733199198758,1733199198775,1733199198792,1733199198809,1733199198825,1733199198842,1733199198858,1733199198877,1733199198892,1733199198909,1733199198928,1733199198942,1733199198961,1733199198975,1733199198995,1733199199010,1733199199025,1733199199044,1733199199059,1733199199075,1733199199095,1733199199110,1733199199125,1733199199142,1733199199161,1733199199175,1733199199192,1733199199211,1733199199227,1733199199242,1733199199262,1733199199276,1733199199292,1733199199315,1733199199325,1733199199342,1733199199358,1733199199377,1733199199392,1733199199408,1733199199425,1733199199445,1733199199458,1733199199475,1733199199492,1733199199508,1733199199525,1733199199542,1733199199558,1733199199575,1733199199592,1733199199608,1733199199625,1733199199642,1733199199658,1733199199675,1733199199692,1733199199709,1733199199729,1733199199743,1733199199758,1733199199775,1733199199792,1733199199808,1733199199825,1733199199842,1733199199858,1733199199875,1733199199892,1733199199908,1733199199928,1733199199945,1733199199958,1733199199975,1733199199992,1733199200008,1733199200025,1733199200042,1733199200058,1733199200075,1733199200097,1733199200108,1733199200125,1733199200142,1733199200158,1733199200175,1733199200192,1733199200208,1733199200225,1733199200241,1733199200258,1733199200275,1733199200292,1733199200308,1733199200327,1733199200342,1733199200358,1733199200375,1733199200394,1733199200408,1733199200425,1733199200445,1733199200459,1733199200475,1733199200494,1733199200510,1733199200526,1733199200545,1733199200558,1733199200575,1733199200591,1733199200613,1733199200628,1733199200643,1733199200659,1733199200694,1733199200701,1733199200708,1733199200725,1733199200743,1733199200758,1733199200775,1733199200792,1733199200808,1733199200825,1733199200841,1733199200858,1733199200875,1733199200892,1733199200908]","[[1044.8,635.3],[1066.6,635.4],[1061.7,652],[1061.7,652],[1045.9,655.8],[1061.8,652.4],[1061.8,652.4],[1069.7,648.6],[1069.7,648.6],[1052.5,643.4],[1052.5,643.4],[1058.2,629.2],[1059.2,593.6],[1059.2,593.6],[1065.1,569],[1071,543.4],[1082.4,533.2],[1093.8,523],[1110.6,523.5],[1113.2,497.1],[1112.1,468.8],[1129.1,450],[1109.8,472.3],[1108.1,487.5],[1106.4,502.7],[1122.3,488.1],[1124.2,467.5],[1121.7,443.4],[1121.8,433.4],[1118.2,445.3],[1118.3,459.1],[1135.3,459],[1152.1,452.3],[1174.6,455.4],[1197.1,458.5],[1183.6,467.1],[1170.1,475.7],[1161,487.8],[1158.6,485.9],[1168.4,460.6],[1175.2,457],[1165.1,467.3],[1152.7,463.3],[1129.9,467],[1116.7,466.4],[1115.4,473.2],[1119.1,481.5],[1104.4,490.3],[1083,513.1],[1067.8,538],[1055.6,541.2],[1045.8,549],[1050.6,553.4],[1051.6,555.8],[1045.8,546.3],[1034.5,537.3],[1014.4,541.7],[1024.9,534.9],[1035.4,528.1],[1030.5,527.7],[1038.3,517.6],[1041,495.9],[1035.3,514.8],[1043.5,501.9],[1052.2,500.6],[1069,489],[1093.1,466.5],[1093.3,446.6],[1093.5,426.7],[1102.9,398.3],[1106.6,393.5],[1115.4,403.9],[1132.6,373.7],[1129.7,371.1],[1123.5,373.1],[1110.3,394.3],[1093.6,411.5],[1088.4,439],[1083.2,466.5],[1076,487.8],[1063.6,492.3],[1038.1,512.7],[1012.6,533.1],[1008.4,532.9],[1004.8,531.8],[1005.6,521.3],[1005.6,521.3],[999.9,514.6],[988.2,503.6],[976.5,492.6],[972.4,486.5],[966.5,483.3],[977.8,458.7],[989.1,434.1],[986.6,457],[979.3,479.6],[972,502.2],[974.9,510.9],[984,521.7],[983.5,535.1],[977.4,549.8],[985.5,563.9],[987.1,575.3],[990.1,565.8],[995.6,535.6],[1005.9,503.9],[1016.2,472.2],[1018.5,472],[1020.8,471.8],[1032.7,469],[1039.6,460.6],[1032.3,452.8],[1040.8,453.4],[1047.9,474.9],[1049.4,486.4],[1060.2,497.1],[1064.4,510.3],[1072.9,502.1],[1083.8,487.2],[1095.3,476],[1107.9,466.9],[1129.7,464.3],[1135.7,453.3],[1124,456.9],[1124,456.9],[1117.9,470.5],[1117.9,470.5],[1109.7,460.3],[1109.7,460.3],[1135.8,445.5],[1135.8,445.5],[1156.3,440.1],[1144.4,438.6],[1144.4,438.6],[1133.7,431.4],[1128.2,436.2],[1109,432.7],[1089.8,429.2],[1097.7,415.1],[1105.6,401],[1099.4,416.3],[1065.5,433.7],[1048.3,442.7],[1052.4,438.8],[1054.7,436.9],[1070.3,443.7],[1090.2,451.6],[1081,459.5],[1059.5,463.2],[1043.6,459.7],[1037.3,454],[1031.5,445.3],[1014.6,435.6],[1000.1,442.3],[1000.6,445],[980.7,437.1],[961,429.9],[969.6,424.7],[981.2,417.9],[987.2,418.3],[990.2,420.7],[992.7,426.1],[996.8,434.9],[1007.2,443],[984,449.4],[986.4,445.4],[988.8,441.4],[988.8,441.4],[990.8,441.2],[990.8,441.2],[1014.8,427.4],[1011.3,435.1],[1020.7,438],[1019,438.5],[1015.7,435.6],[1003.9,426.5],[1012.5,424],[1003.4,413.2],[994.3,402.4],[992.6,397.1],[968.8,407.2],[972.5,395.8]]","[0,0.151169218]","[0.151169218,0.151169218]","[-0.151169218,-0.151169218]","[-0.151169218,0]","[0,-0.151169218]","[0.151169218,-0.151169218]","[0,0]","[0.151169218,0]",0,1,1,1,1,4,Smartphone,5,1,13,7
