inst1_resp.keys,inst1_resp.rt,calibrationMouse.x,calibrationMouse.y,calibrationMouse.leftButton,calibrationMouse.midButton,calibrationMouse.rightButton,calibrationClick.x,calibrationClick.y,calibrationClick.leftButton,calibrationClick.midButton,calibrationClick.rightButton,trialsc.thisRepN,trialsc.thisTrialN,trialsc.thisN,trialsc.thisIndex,trialsc.ran,calibration_x,calibration_y,participant,session,date,expName,psychopyVersion,OS,frameRate,calibrationClick.clicked_name,ScreenRes_pixels,Camera_pixels,mouse_2.x,mouse_2.y,mouse_2.leftButton,mouse_2.midButton,mouse_2.rightButton,mouse_2.time,mouse_2.clicked_name,mouse.x,mouse.y,mouse.leftButton,mouse.midButton,mouse.rightButton,mouse.time,mouse.clicked_name,Choice,Trial,TrialDuration,MOUSE_GAZE,ET_GAZE,ET_GAZE_x_T,time,unixTime,ET_GAZE_NF,Loc_Option1_label,Loc_Option2_label,Loc_Cost_label,Loc_Qual_label,Loc_Option1_cost,Loc_Option2_cost,Loc_Option1_quality,Loc_Option2_quality,trials.thisRepN,trials.thisTrialN,trials.thisN,trials.thisIndex,trials.ran,Block,Device,cost1,qual1,cost2,qual2
space,3.8173,-0.053125,-0.287037037,1,0,0,-0.004166667,-0.688888889,1,0,0,0,0,0,9,1,0,-0.67,34,001,2024-12-02_17h15.13.577,Attention_exp_legacy,2023.1.0,Win32,59.88023952,,,,,,,,,,,,,,,,,,,,,,,,,,,,,,,,,,,,,,,,,,,,,
,,,,,,,0.333333333,0.001851852,1,0,0,0,1,1,16,1,0.33,0,34,001,2024-12-02_17h15.13.577,Attention_exp_legacy,2023.1.0,Win32,59.88023952,calibration_square,,,,,,,,,,,,,,,,,,,,,,,,,,,,,,,,,,,,,,,,,,,,
,,,,,,,-0.678125,-0.331481481,1,0,0,0,2,2,1,1,-0.67,-0.33,34,001,2024-12-02_17h15.13.577,Attention_exp_legacy,2023.1.0,Win32,59.88023952,calibration_square,,,,,,,,,,,,,,,,,,,,,,,,,,,,,,,,,,,,,,,,,,,,
,,,,,,,-0.005208333,0.331481481,1,0,0,0,3,3,12,1,0,0.33,34,001,2024-12-02_17h15.13.577,Attention_exp_legacy,2023.1.0,Win32,59.88023952,calibration_square,,,,,,,,,,,,,,,,,,,,,,,,,,,,,,,,,,,,,,,,,,,,
,,,,,,,-0.005208333,0.664814815,1,0,0,0,4,4,13,1,0,0.67,34,001,2024-12-02_17h15.13.577,Attention_exp_legacy,2023.1.0,Win32,59.88023952,calibration_square,,,,,,,,,,,,,,,,,,,,,,,,,,,,,,,,,,,,,,,,,,,,
,,,,,,,0,-0.001851852,1,0,0,0,5,5,11,1,0,0,34,001,2024-12-02_17h15.13.577,Attention_exp_legacy,2023.1.0,Win32,59.88023952,calibration_square,,,,,,,,,,,,,,,,,,,,,,,,,,,,,,,,,,,,,,,,,,,,
,,,,,,,0.682291667,-0.675925926,1,0,0,0,6,6,20,1,0.67,-0.67,34,001,2024-12-02_17h15.13.577,Attention_exp_legacy,2023.1.0,Win32,59.88023952,,,,,,,,,,,,,,,,,,,,,,,,,,,,,,,,,,,,,,,,,,,,,
,,,,,,,-0.6625,-0.674074074,1,0,0,0,7,7,0,1,-0.67,-0.67,34,001,2024-12-02_17h15.13.577,Attention_exp_legacy,2023.1.0,Win32,59.88023952,calibration_square,,,,,,,,,,,,,,,,,,,,,,,,,,,,,,,,,,,,,,,,,,,,
,,,,,,,0.321875,-0.659259259,1,0,0,0,8,8,14,1,0.33,-0.67,34,001,2024-12-02_17h15.13.577,Attention_exp_legacy,2023.1.0,Win32,59.88023952,,,,,,,,,,,,,,,,,,,,,,,,,,,,,,,,,,,,,,,,,,,,,
,,,,,,,0.329166667,-0.331481481,1,0,0,0,9,9,15,1,0.33,-0.33,34,001,2024-12-02_17h15.13.577,Attention_exp_legacy,2023.1.0,Win32,59.88023952,calibration_square,,,,,,,,,,,,,,,,,,,,,,,,,,,,,,,,,,,,,,,,,,,,
,,,,,,,0.334375,0.662962963,1,0,0,0,10,10,18,1,0.33,0.67,34,001,2024-12-02_17h15.13.577,Attention_exp_legacy,2023.1.0,Win32,59.88023952,calibration_square,,,,,,,,,,,,,,,,,,,,,,,,,,,,,,,,,,,,,,,,,,,,
,,,,,,,-0.347916667,-0.333333333,1,0,0,0,11,11,5,1,-0.33,-0.33,34,001,2024-12-02_17h15.13.577,Attention_exp_legacy,2023.1.0,Win32,59.88023952,,,,,,,,,,,,,,,,,,,,,,,,,,,,,,,,,,,,,,,,,,,,,
,,,,,,,-0.660416667,0.009259259,1,0,0,0,12,12,2,1,-0.67,0,34,001,2024-12-02_17h15.13.577,Attention_exp_legacy,2023.1.0,Win32,59.88023952,calibration_square,,,,,,,,,,,,,,,,,,,,,,,,,,,,,,,,,,,,,,,,,,,,
,,,,,,,-0.680208333,0.333333333,1,0,0,0,13,13,3,1,-0.67,0.33,34,001,2024-12-02_17h15.13.577,Attention_exp_legacy,2023.1.0,Win32,59.88023952,,,,,,,,,,,,,,,,,,,,,,,,,,,,,,,,,,,,,,,,,,,,,
,,,,,,,-0.336458333,0.675925926,1,0,0,0,14,14,8,1,-0.33,0.67,34,001,2024-12-02_17h15.13.577,Attention_exp_legacy,2023.1.0,Win32,59.88023952,calibration_square,,,,,,,,,,,,,,,,,,,,,,,,,,,,,,,,,,,,,,,,,,,,
,,,,,,,0.664583333,0.668518519,1,0,0,0,15,15,19,1,0.67,0.67,34,001,2024-12-02_17h15.13.577,Attention_exp_legacy,2023.1.0,Win32,59.88023952,calibration_square,,,,,,,,,,,,,,,,,,,,,,,,,,,,,,,,,,,,,,,,,,,,
,,,,,,,-0.002083333,-0.32962963,1,0,0,0,16,16,10,1,0,-0.33,34,001,2024-12-02_17h15.13.577,Attention_exp_legacy,2023.1.0,Win32,59.88023952,calibration_square,,,,,,,,,,,,,,,,,,,,,,,,,,,,,,,,,,,,,,,,,,,,
,,,,,,,-0.339583333,-0.67962963,1,0,0,0,17,17,4,1,-0.33,-0.67,34,001,2024-12-02_17h15.13.577,Attention_exp_legacy,2023.1.0,Win32,59.88023952,calibration_square,,,,,,,,,,,,,,,,,,,,,,,,,,,,,,,,,,,,,,,,,,,,
,,,,,,,-0.326041667,-0.003703704,1,0,0,0,18,18,6,1,-0.33,0,34,001,2024-12-02_17h15.13.577,Attention_exp_legacy,2023.1.0,Win32,59.88023952,calibration_square,,,,,,,,,,,,,,,,,,,,,,,,,,,,,,,,,,,,,,,,,,,,
,,,,,,,-0.327083333,0.342592593,1,0,0,0,19,19,7,1,-0.33,0.33,34,001,2024-12-02_17h15.13.577,Attention_exp_legacy,2023.1.0,Win32,59.88023952,,,,,,,,,,,,,,,,,,,,,,,,,,,,,,,,,,,,,,,,,,,,,
,,,,,,,0.321875,0.346296296,1,0,0,0,20,20,17,1,0.33,0.33,34,001,2024-12-02_17h15.13.577,Attention_exp_legacy,2023.1.0,Win32,59.88023952,,,,,,,,,,,,,,,,,,,,,,,,,,,,,,,,,,,,,,,,,,,,,
,,,,,,,,,,,,,,,,,,,34,001,2024-12-02_17h15.13.577,Attention_exp_legacy,2023.1.0,Win32,59.88023952,,"[1920,1080]","[640,480]",[0.030208333333333334],[-0.5074074074074074],[1],[0],[0],[14.662000000000006],"[""StartButton""]","[0.16770833333333332,0.16770833333333332]","[0.1,0.1537037037037037]","[1,1]","[0,0]","[0,0]","[3.5886000000014917,4.004899999998514]","[""Option2_label""]",Option2_label,1,5.0184,"[[0.03229166666666667,-0.45555555555555555],[0.03229166666666667,-0.45555555555555555],[0.03229166666666667,-0.45555555555555555],[0.03229166666666667,-0.45555555555555555],[0.03229166666666667,-0.45555555555555555],[0.03229166666666667,-0.45555555555555555],[0.03229166666666667,-0.45555555555555555],[0.03229166666666667,-0.45555555555555555],[0.03229166666666667,-0.45555555555555555],[0.03229166666666667,-0.45555555555555555],[0.03229166666666667,-0.45555555555555555],[0.03229166666666667,-0.45555555555555555],[0.03229166666666667,-0.45555555555555555],[0.03229166666666667,-0.45555555555555555],[0.03229166666666667,-0.45555555555555555],[0.03229166666666667,-0.45555555555555555],[0.03229166666666667,-0.45555555555555555],[0.03229166666666667,-0.45555555555555555],[0.03229166666666667,-0.45555555555555555],[0.03229166666666667,-0.45555555555555555],[0.03229166666666667,-0.45555555555555555],[0.03229166666666667,-0.45555555555555555],[0.03229166666666667,-0.45555555555555555],[0.03229166666666667,-0.45555555555555555],[0.03229166666666667,-0.45555555555555555],[0.03229166666666667,-0.45555555555555555],[0.03229166666666667,-0.45555555555555555],[0.03229166666666667,-0.45555555555555555],[0.03229166666666667,-0.45555555555555555],[0.03229166666666667,-0.45555555555555555],[0.03229166666666667,-0.45555555555555555],[0.03229166666666667,-0.45555555555555555],[0.03229166666666667,-0.45555555555555555],[0.03229166666666667,-0.45555555555555555],[0.03229166666666667,-0.45555555555555555],[0.03229166666666667,-0.45555555555555555],[0.03229166666666667,-0.45555555555555555],[0.03229166666666667,-0.45555555555555555],[0.03229166666666667,-0.45555555555555555],[0.03229166666666667,-0.45555555555555555],[0.03229166666666667,-0.45555555555555555],[0.03229166666666667,-0.45555555555555555],[0.03229166666666667,-0.45555555555555555],[0.03229166666666667,-0.45555555555555555],[0.03229166666666667,-0.45555555555555555],[0.03229166666666667,-0.45555555555555555],[0.03229166666666667,-0.45555555555555555],[0.03229166666666667,-0.45555555555555555],[0.03229166666666667,-0.45555555555555555],[0.03229166666666667,-0.45555555555555555],[0.03229166666666667,-0.45555555555555555],[0.03229166666666667,-0.45555555555555555],[0.03229166666666667,-0.45555555555555555],[0.03229166666666667,-0.45555555555555555],[0.03229166666666667,-0.45555555555555555],[0.03229166666666667,-0.45555555555555555],[0.03229166666666667,-0.45555555555555555],[0.03229166666666667,-0.45555555555555555],[0.03229166666666667,-0.45555555555555555],[0.03229166666666667,-0.45555555555555555],[0.03229166666666667,-0.45555555555555555],[0.03229166666666667,-0.45555555555555555],[0.03229166666666667,-0.45555555555555555],[0.03229166666666667,-0.45555555555555555],[0.03229166666666667,-0.45555555555555555],[0.03229166666666667,-0.45555555555555555],[0.03229166666666667,-0.45555555555555555],[0.03229166666666667,-0.45555555555555555],[0.03229166666666667,-0.45555555555555555],[0.03229166666666667,-0.45555555555555555],[0.03229166666666667,-0.45555555555555555],[0.03229166666666667,-0.45555555555555555],[0.03229166666666667,-0.45555555555555555],[0.03229166666666667,-0.45555555555555555],[0.03229166666666667,-0.45555555555555555],[0.03229166666666667,-0.45555555555555555],[0.03229166666666667,-0.45555555555555555],[0.03229166666666667,-0.45555555555555555],[0.03229166666666667,-0.45555555555555555],[0.03229166666666667,-0.45555555555555555],[0.03229166666666667,-0.45555555555555555],[0.03229166666666667,-0.45555555555555555],[0.03229166666666667,-0.45555555555555555],[0.03229166666666667,-0.45555555555555555],[0.03229166666666667,-0.45555555555555555],[0.03229166666666667,-0.45555555555555555],[0.03229166666666667,-0.45555555555555555],[0.03229166666666667,-0.45555555555555555],[0.03229166666666667,-0.45555555555555555],[0.03229166666666667,-0.45555555555555555],[0.03229166666666667,-0.45555555555555555],[0.03229166666666667,-0.45555555555555555],[0.03229166666666667,-0.45555555555555555],[0.03229166666666667,-0.45555555555555555],[0.03229166666666667,-0.45555555555555555],[0.03229166666666667,-0.45555555555555555],[0.03229166666666667,-0.45555555555555555],[0.03229166666666667,-0.45555555555555555],[0.03229166666666667,-0.45555555555555555],[0.03229166666666667,-0.45555555555555555],[0.03229166666666667,-0.45555555555555555],[0.03229166666666667,-0.45555555555555555],[0.03229166666666667,-0.45555555555555555],[0.03229166666666667,-0.45555555555555555],[0.03229166666666667,-0.45555555555555555],[0.03229166666666667,-0.45555555555555555],[0.03229166666666667,-0.45555555555555555],[0.03229166666666667,-0.45555555555555555],[0.03229166666666667,-0.45555555555555555],[0.03229166666666667,-0.45555555555555555],[0.03229166666666667,-0.45555555555555555],[0.03229166666666667,-0.45555555555555555],[0.03229166666666667,-0.45555555555555555],[0.03229166666666667,-0.45555555555555555],[0.03229166666666667,-0.45555555555555555],[0.03229166666666667,-0.45555555555555555],[0.03229166666666667,-0.45555555555555555],[0.03229166666666667,-0.45555555555555555],[0.03229166666666667,-0.4537037037037037],[0.034375,-0.45185185185185184],[0.034375,-0.45185185185185184],[0.034375,-0.45185185185185184],[0.035416666666666666,-0.45185185185185184],[0.035416666666666666,-0.45185185185185184],[0.0375,-0.45],[0.0375,-0.45],[0.0375,-0.45],[0.0375,-0.45],[0.0375,-0.45],[0.0375,-0.45],[0.03854166666666667,-0.45],[0.03854166666666667,-0.44814814814814813],[0.03854166666666667,-0.44814814814814813],[0.03854166666666667,-0.44814814814814813],[0.03854166666666667,-0.44814814814814813],[0.03854166666666667,-0.44814814814814813],[0.03854166666666667,-0.44814814814814813],[0.03854166666666667,-0.44814814814814813],[0.03958333333333333,-0.44814814814814813],[0.03958333333333333,-0.44814814814814813],[0.03958333333333333,-0.44814814814814813],[0.040625,-0.44814814814814813],[0.040625,-0.44814814814814813],[0.040625,-0.44814814814814813],[0.040625,-0.44814814814814813],[0.041666666666666664,-0.44814814814814813],[0.041666666666666664,-0.44814814814814813],[0.041666666666666664,-0.44814814814814813],[0.042708333333333334,-0.44814814814814813],[0.042708333333333334,-0.44814814814814813],[0.042708333333333334,-0.44814814814814813],[0.04375,-0.44814814814814813],[0.04375,-0.44814814814814813],[0.04583333333333333,-0.44814814814814813],[0.04583333333333333,-0.44814814814814813],[0.04583333333333333,-0.44814814814814813],[0.046875,-0.44814814814814813],[0.04895833333333333,-0.44814814814814813],[0.04895833333333333,-0.44814814814814813],[0.05,-0.44814814814814813],[0.052083333333333336,-0.44814814814814813],[0.052083333333333336,-0.44814814814814813],[0.053125,-0.44814814814814813],[0.053125,-0.44814814814814813],[0.053125,-0.44814814814814813],[0.05520833333333333,-0.44814814814814813],[0.05520833333333333,-0.44814814814814813],[0.05625,-0.44814814814814813],[0.05625,-0.44814814814814813],[0.05625,-0.44814814814814813],[0.058333333333333334,-0.44814814814814813],[0.059375,-0.44814814814814813],[0.059375,-0.44814814814814813],[0.06041666666666667,-0.44814814814814813],[0.06145833333333333,-0.44814814814814813],[0.06145833333333333,-0.44814814814814813],[0.065625,-0.44814814814814813],[0.06770833333333333,-0.44814814814814813],[0.07395833333333333,-0.4462962962962963],[0.07708333333333334,-0.4425925925925926],[0.08333333333333333,-0.4388888888888889],[0.09479166666666666,-0.42777777777777776],[0.11041666666666666,-0.40925925925925927],[0.125,-0.37777777777777777],[0.13645833333333332,-0.3425925925925926],[0.146875,-0.2962962962962963],[0.15208333333333332,-0.2611111111111111],[0.15520833333333334,-0.22962962962962963],[0.15625,-0.20925925925925926],[0.15625,-0.19074074074074074],[0.15625,-0.1648148148148148],[0.15833333333333333,-0.1388888888888889],[0.1625,-0.11481481481481481],[0.16666666666666666,-0.09074074074074075],[0.16875,-0.07222222222222222],[0.17083333333333334,-0.05740740740740741],[0.17291666666666666,-0.03148148148148148],[0.175,-0.014814814814814815],[0.17604166666666668,0.007407407407407408],[0.17604166666666668,0.025925925925925925],[0.17604166666666668,0.040740740740740744],[0.17604166666666668,0.05185185185185185],[0.17604166666666668,0.06111111111111111],[0.175,0.06666666666666667],[0.17395833333333333,0.07407407407407407],[0.171875,0.08518518518518518],[0.17083333333333334,0.09444444444444444],[0.16979166666666667,0.09814814814814815],[0.16875,0.1],[0.16770833333333332,0.1],[0.16770833333333332,0.1],[0.16770833333333332,0.1],[0.16770833333333332,0.1],[0.16770833333333332,0.1],[0.16770833333333332,0.1],[0.16770833333333332,0.1],[0.16770833333333332,0.1],[0.16770833333333332,0.1],[0.16770833333333332,0.1],[0.16770833333333332,0.1],[0.16770833333333332,0.1],[0.16770833333333332,0.1],[0.16770833333333332,0.1],[0.16770833333333332,0.1],[0.16770833333333332,0.1],[0.16770833333333332,0.10555555555555556],[0.16770833333333332,0.11296296296296296],[0.16770833333333332,0.11666666666666667],[0.16770833333333332,0.12777777777777777],[0.16770833333333332,0.1388888888888889],[0.16770833333333332,0.14629629629629629],[0.16770833333333332,0.15],[0.16770833333333332,0.1537037037037037],[0.16770833333333332,0.1537037037037037],[0.16770833333333332,0.1537037037037037],[0.16770833333333332,0.1537037037037037],[0.16770833333333332,0.1537037037037037],[0.16770833333333332,0.1537037037037037],[0.16770833333333332,0.1537037037037037],[0.16770833333333332,0.1537037037037037],[0.16770833333333332,0.1537037037037037],[0.16770833333333332,0.1537037037037037],[0.16770833333333332,0.1537037037037037],[0.16770833333333332,0.1537037037037037],[0.16770833333333332,0.1537037037037037],[0.16770833333333332,0.1537037037037037],[0.16770833333333332,0.1537037037037037],[0.16770833333333332,0.1537037037037037],[0.16770833333333332,0.1537037037037037],[0.16770833333333332,0.1537037037037037],[0.16770833333333332,0.1537037037037037],[0.16770833333333332,0.1537037037037037],[0.16770833333333332,0.1537037037037037],[0.16770833333333332,0.1537037037037037],[0.16770833333333332,0.1537037037037037],[0.16770833333333332,0.1537037037037037],[0.16770833333333332,0.1537037037037037],[0.16770833333333332,0.1537037037037037],[0.16770833333333332,0.1537037037037037],[0.16770833333333332,0.1537037037037037],[0.16770833333333332,0.1537037037037037],[0.16770833333333332,0.1537037037037037],[0.16770833333333332,0.1537037037037037],[0.16770833333333332,0.1537037037037037],[0.16770833333333332,0.1537037037037037],[0.16770833333333332,0.1537037037037037],[0.16770833333333332,0.1537037037037037],[0.16770833333333332,0.1537037037037037],[0.16770833333333332,0.1537037037037037],[0.16770833333333332,0.1537037037037037],[0.16770833333333332,0.1537037037037037],[0.16770833333333332,0.1537037037037037],[0.16770833333333332,0.1537037037037037],[0.16770833333333332,0.1537037037037037],[0.16770833333333332,0.1537037037037037],[0.16770833333333332,0.1537037037037037],[0.16770833333333332,0.1537037037037037],[0.16770833333333332,0.1537037037037037],[0.16770833333333332,0.1537037037037037],[0.16770833333333332,0.1537037037037037],[0.16770833333333332,0.1537037037037037],[0.16770833333333332,0.1537037037037037],[0.16770833333333332,0.1537037037037037],[0.16770833333333332,0.1537037037037037],[0.16770833333333332,0.1537037037037037],[0.16770833333333332,0.1537037037037037],[0.16770833333333332,0.1537037037037037],[0.16770833333333332,0.1537037037037037],[0.16770833333333332,0.1537037037037037],[0.16770833333333332,0.1537037037037037],[0.16770833333333332,0.1537037037037037],[0.16770833333333332,0.1537037037037037],[0.16770833333333332,0.1537037037037037],[0.16770833333333332,0.1537037037037037],[0.16770833333333332,0.1537037037037037],[0.16770833333333332,0.1537037037037037],[0.16770833333333332,0.1537037037037037],[0.16770833333333332,0.1537037037037037]]","[[-0.08968750000000002,0.11722222222222214],[-0.08968750000000002,0.11722222222222214],[-0.11625000000000002,0.14425925925925923],[-0.11625000000000002,0.14425925925925923],[-0.13343750000000001,0.14740740740740746],[-0.13343750000000001,0.14740740740740746],[-0.13114583333333332,0.18592592592592588],[-0.13114583333333332,0.18592592592592588],[-0.12395833333333334,0.20777777777777787],[-0.12395833333333334,0.20777777777777787],[-0.11489583333333328,0.25629629629629624],[-0.11489583333333328,0.25629629629629624],[-0.11489583333333328,0.25629629629629624],[-0.1046875,0.32814814814814824],[-0.1046875,0.32814814814814824],[-0.10677083333333333,0.331111111111111],[-0.10677083333333333,0.331111111111111],[-0.07677083333333339,0.380925925925926],[-0.07677083333333339,0.380925925925926],[-0.07666666666666669,0.3859259259259259],[-0.07666666666666669,0.3859259259259259],[-0.07666666666666669,0.3859259259259259],[-0.051979166666666646,0.4118518518518518],[-0.051979166666666646,0.4118518518518518],[-0.05333333333333338,0.4087037037037038],[-0.05333333333333338,0.4087037037037038],[-0.02177083333333331,0.3942592592592592],[-0.02177083333333331,0.3942592592592592],[-0.00458333333333331,0.35796296296296287],[-0.00458333333333331,0.35796296296296287],[0.022500000000000023,0.32407407407407407],[0.022500000000000023,0.32407407407407407],[0.01885416666666669,0.33185185185185195],[0.01885416666666669,0.33185185185185195],[0.019791666666666666,0.31666666666666665],[0.019791666666666666,0.31666666666666665],[0.00010416666666669035,0.35981481481481475],[0.00010416666666669035,0.35981481481481475],[-0.018229166666666668,0.3487037037037036],[-0.018229166666666668,0.3487037037037036],[-0.03854166666666667,0.3827777777777779],[-0.03854166666666667,0.3827777777777779],[-0.035312499999999976,0.3646296296296296],[-0.035312499999999976,0.3646296296296296],[-0.0359375,0.3790740740740742],[-0.0359375,0.3790740740740742],[-0.03270833333333331,0.37592592592592594],[-0.03270833333333331,0.37592592592592594],[-0.029895833333333382,0.38555555555555565],[-0.029895833333333382,0.38555555555555565],[-0.04864583333333338,0.39592592592592585],[-0.04864583333333338,0.39592592592592585],[-0.05541666666666671,0.3983333333333334],[-0.05541666666666671,0.3983333333333334],[-0.034687499999999954,0.35592592592592603],[-0.034687499999999954,0.35592592592592603],[-0.03333333333333333,0.32944444444444443],[-0.03333333333333333,0.32944444444444443],[-0.04072916666666669,0.31555555555555553],[-0.04072916666666669,0.31555555555555553],[-0.04916666666666671,0.3111111111111111],[-0.04916666666666671,0.3111111111111111],[-0.04916666666666671,0.3111111111111111],[-0.04916666666666671,0.3111111111111111],[-0.07062499999999995,0.334074074074074],[-0.07062499999999995,0.334074074074074],[-0.06468750000000002,0.3287037037037037],[-0.06468750000000002,0.3287037037037037],[-0.09447916666666671,0.35907407407407405],[-0.09447916666666671,0.35907407407407405],[-0.09697916666666669,0.3568518518518519],[-0.09697916666666669,0.3568518518518519],[-0.09083333333333338,0.35537037037037034],[-0.09083333333333338,0.35537037037037034],[-0.08020833333333334,0.3416666666666667],[-0.08020833333333334,0.3416666666666667],[-0.08020833333333334,0.3416666666666667],[-0.08020833333333334,0.3416666666666667],[-0.08624999999999995,0.34388888888888897],[-0.08624999999999995,0.34388888888888897],[-0.05687500000000002,0.3140740740740741],[-0.05687500000000002,0.3140740740740741],[-0.04802083333333336,0.2862962962962963],[-0.04802083333333336,0.2862962962962963],[-0.0036458333333333334,0.2631481481481482],[-0.0036458333333333334,0.2631481481481482],[-0.0018749999999999527,0.24833333333333338],[-0.0018749999999999527,0.24833333333333338],[0.013333333333333286,0.24370370370370376],[0.013333333333333286,0.24370370370370376],[0.0140625,0.21814814814814806],[0.0140625,0.21814814814814806],[-0.005416666666666714,0.1977777777777777],[-0.005416666666666714,0.1977777777777777],[-0.03697916666666667,0.19407407407407398],[-0.03697916666666667,0.19407407407407398],[-0.027499999999999976,0.16925925925925922],[-0.027499999999999976,0.16925925925925922],[-0.027499999999999976,0.16925925925925922],[-0.027499999999999976,0.16925925925925922],[-0.05635416666666669,0.17481481481481478],[-0.05635416666666669,0.17481481481481478],[-0.05635416666666669,0.17481481481481478],[-0.05635416666666669,0.17481481481481478],[-0.06229166666666662,0.19000000000000003],[-0.06229166666666662,0.19000000000000003],[-0.04541666666666669,0.19574074074074083],[-0.04541666666666669,0.19574074074074083],[-0.05364583333333333,0.18074074074074079],[-0.05364583333333333,0.18074074074074079],[-0.05364583333333333,0.18074074074074079],[-0.05364583333333333,0.18074074074074079],[-0.04645833333333336,0.18851851851851845],[-0.04645833333333336,0.18851851851851845],[-0.03895833333333331,0.15685185185185194],[-0.03895833333333331,0.15685185185185194],[-0.02510416666666669,0.14648148148148152],[-0.02510416666666669,0.14648148148148152],[0.021249999999999977,0.14888888888888885],[0.021249999999999977,0.14888888888888885],[0.024583333333333356,0.18851851851851845],[0.024583333333333356,0.18851851851851845],[0.017812500000000023,0.2390740740740741],[0.017812500000000023,0.2390740740740741],[-0.004375000000000047,0.2814814814814815],[-0.004375000000000047,0.2814814814814815],[-0.004375000000000047,0.2814814814814815],[-0.04895833333333333,0.31962962962962965],[-0.04895833333333333,0.31962962962962965],[-0.04895833333333333,0.31962962962962965],[-0.04895833333333333,0.31962962962962965],[-0.06156250000000003,0.3501851851851852],[-0.06156250000000003,0.3501851851851852],[-0.06791666666666671,0.3888888888888889],[-0.06791666666666671,0.3888888888888889],[-0.06083333333333331,0.41814814814814805],[-0.06083333333333331,0.41814814814814805],[-0.050729166666666714,0.45092592592592595],[-0.050729166666666714,0.45092592592592595],[-0.043333333333333356,0.49166666666666664],[-0.043333333333333356,0.49166666666666664],[-0.06364583333333336,0.5318518518518519],[-0.06364583333333336,0.5318518518518519],[-0.041770833333333354,0.528888888888889],[-0.041770833333333354,0.528888888888889],[-0.03333333333333333,0.5111111111111111],[-0.03333333333333333,0.5111111111111111],[-0.004791666666666691,0.5064814814814815],[-0.004791666666666691,0.5064814814814815],[0.021458333333333357,0.4898148148148148],[0.021458333333333357,0.4898148148148148],[0.03937499999999995,0.4859259259259259],[0.03937499999999995,0.4859259259259259],[0.04541666666666669,0.48407407407407405],[0.04541666666666669,0.48407407407407405],[0.05697916666666671,0.46296296296296297],[0.05697916666666671,0.46296296296296297],[0.06666666666666667,0.46111111111111114],[0.07999999999999995,0.44074074074074077],[0.07229166666666677,0.4166666666666667],[0.07229166666666677,0.4166666666666667],[0.08406250000000005,0.40962962962962973],[0.08406250000000005,0.40962962962962973],[0.09197916666666663,0.397037037037037],[0.12020833333333343,0.36277777777777775],[0.17312500000000006,0.3077777777777779],[0.16635416666666672,0.3170370370370371],[0.16635416666666672,0.3170370370370371],[0.14249999999999996,0.3322222222222222],[0.11958333333333329,0.36018518518518516],[0.0978125000000001,0.37703703703703706],[0.05406249999999998,0.38333333333333336],[0.026145833333333358,0.3896296296296296],[0.005416666666666714,0.39962962962962956],[-0.01875,0.41999999999999993],[-0.05447916666666662,0.4722222222222222],[-0.11062500000000004,0.5553703703703703],[-0.12885416666666671,0.5790740740740742],[-0.103125,0.5607407407407407],[-0.07093750000000003,0.5481481481481482],[-0.05364583333333333,0.5275925925925925],[0.0026041666666666665,0.5409259259259259],[0.04624999999999998,0.5353703703703704],[0.07531249999999995,0.5053703703703704],[0.09093749999999995,0.49666666666666676],[0.09093749999999995,0.49666666666666676],[0.12666666666666657,0.45981481481481473],[0.15427083333333325,0.422037037037037],[0.15427083333333325,0.422037037037037],[0.1603125000000001,0.37407407407407406],[0.15510416666666677,0.3594444444444445],[0.1328125,0.3337037037037038],[0.13864583333333325,0.3148148148148148],[0.11791666666666671,0.2975925925925927],[0.10979166666666676,0.2992592592592593],[0.09145833333333328,0.30277777777777776],[0.10489583333333338,0.26055555555555565],[0.10604166666666662,0.24259259259259258],[0.10718750000000009,0.22462962962962954],[0.1365624999999999,0.1905555555555555],[0.15281250000000005,0.1557407407407408],[0.146875,0.2116666666666666],[0.13270833333333343,0.20259259259259255],[0.13479166666666675,0.22981481481481486],[0.14135416666666673,0.20037037037037045],[0.15364583333333334,0.2257407407407407],[0.15666666666666676,0.2155555555555555],[0.16020833333333329,0.19222222222222213],[0.1734375,0.18333333333333332],[0.1740624999999999,0.20092592592592592],[0.1740624999999999,0.20092592592592592],[0.1609375,0.20907407407407402],[0.17239583333333333,0.1566666666666667],[0.18541666666666667,0.17296296296296293],[0.1625,0.15462962962962962],[0.1578125,0.17166666666666675],[0.1650000000000001,0.1361111111111111],[0.17239583333333333,0.13555555555555565],[0.19031250000000005,0.17018518518518513],[0.1603125000000001,0.1714814814814815],[0.13416666666666663,0.17777777777777778],[0.11958333333333329,0.18555555555555564],[0.10968749999999995,0.16018518518518518],[0.0990624999999999,0.12981481481481486],[0.11979166666666667,0.08814814814814818],[0.11979166666666667,0.08814814814814818],[0.11843750000000004,0.06018518518518518],[0.11843750000000004,0.06018518518518518],[0.11145833333333334,0.05962962962962971],[0.10791666666666658,0.045740740740740825],[0.07729166666666672,0.01648148148148144],[0.08489583333333334,0.006111111111111027],[0.07906250000000009,0.012407407407407492],[0.09822916666666662,-0.006296296296296254],[0.10354166666666677,-0.01907407407407399],[0.10302083333333342,-0.0294444444444444],[0.09281249999999991,-0.036481481481481566],[0.10145833333333343,-0.01796296296296305],[0.10833333333333334,-0.03092592592592601],[0.10416666666666667,-0.0031481481481482323],[0.08760416666666657,0.0020370370370370794],[0.09458333333333328,-0.011111111111111112],[0.11500000000000009,-0.04092592592592597],[0.10458333333333343,-0.014814814814814815],[0.1009375000000001,0.008333333333333333],[0.10072916666666672,0.037037037037037035],[0.11020833333333328,0.062407407407407495],[0.10499999999999995,0.05925925925925926],[0.10499999999999995,0.05925925925925926],[0.09760416666666671,0.07796296296296301],[0.08364583333333328,0.06796296296296304],[0.09281249999999991,0.06277777777777774],[0.10374999999999991,0.05851851851851856],[0.1131249999999999,0.05962962962962971],[0.10989583333333333,0.056666666666666705],[0.10666666666666676,0.053703703703703705],[0.09874999999999995,0.041111111111111195],[0.09083333333333338,0.028518518518518478],[0.11166666666666672,0.018703703703703747],[0.1384375000000001,-0.01722222222222214],[0.18364583333333329,-0.01962962962962967],[0.22072916666666675,-0.034444444444444486],[0.25010416666666657,-0.03296296296296288],[0.28010416666666677,-0.06296296296296296],[0.31697916666666665,-0.10629629629629625],[0.36520833333333325,-0.1685185185185185],[0.40656249999999994,-0.19907407407407407],[0.43718750000000006,-0.22740740740740742],[0.4273958333333333,-0.2553703703703703],[0.4280208333333334,-0.27240740740740743],[0.41822916666666665,-0.28703703703703703],[0.38604166666666656,-0.2862962962962963],[0.33624999999999994,-0.2844444444444445],[0.33624999999999994,-0.2844444444444445],[0.33624999999999994,-0.2844444444444445],[0.3038541666666667,-0.25037037037037035],[0.3038541666666667,-0.25037037037037035],[0.2720833333333334,-0.18981481481481483],[0.2720833333333334,-0.18981481481481483],[0.24427083333333333,-0.14055555555555552],[0.24427083333333333,-0.14055555555555552],[0.196875,-0.10055555555555558],[0.196875,-0.10055555555555558],[0.15697916666666673,-0.06425925925925924],[0.15697916666666673,-0.06425925925925924],[0.13604166666666656,0.0003703703703704546],[0.13604166666666656,0.0003703703703704546],[0.0943749999999999,0.04685185185185177],[0.0943749999999999,0.04685185185185177],[0.06020833333333329,0.06962962962962967],[0.06020833333333329,0.06962962962962967],[0.08781249999999995,0.08537037037037042],[0.08781249999999995,0.08537037037037042],[0.08104166666666662,0.13740740740740748],[0.08104166666666662,0.13740740740740748],[0.06572916666666669,0.15222222222222231],[0.06572916666666669,0.15222222222222231],[0.07708333333333334,0.15092592592592594]]","[[-0.08968750000000002,0.11722222222222214,0.00020000000297670795],[-0.08968750000000002,0.11722222222222214,0.04080000000074335],[-0.11625000000000002,0.14425925925925923,0.06570000000297682],[-0.11625000000000002,0.14425925925925923,0.07280000000073983],[-0.13343750000000001,0.14740740740740746,0.10090000000222688],[-0.13343750000000001,0.14740740740740746,0.10940000000222483],[-0.13114583333333332,0.18592592592592588,0.13510000000148636],[-0.13114583333333332,0.18592592592592588,0.14230000000074483],[-0.12395833333333334,0.20777777777777787,0.1677000000029807],[-0.12395833333333334,0.20777777777777787,0.17499999999999716],[-0.11489583333333328,0.25629629629629624,0.20060000000148648],[-0.11489583333333328,0.25629629629629624,0.20770000000297273],[-0.11489583333333328,0.25629629629629624,0.21199999999998909],[-0.1046875,0.32814814814814824,0.2467000000029742],[-0.1046875,0.32814814814814824,0.2551000000014909],[-0.10677083333333333,0.331111111111111,0.27980000000073346],[-0.10677083333333333,0.331111111111111,0.28890000000222926],[-0.07677083333333339,0.380925925925926,0.31830000000074676],[-0.07677083333333339,0.380925925925926,0.3268000000007447],[-0.07666666666666669,0.3859259259259259,0.35190000000223165],[-0.07666666666666669,0.3859259259259259,0.35899999999999466],[-0.07666666666666669,0.3859259259259259,0.3669999999999902],[-0.051979166666666646,0.4118518518518518,0.3960000000000008],[-0.051979166666666646,0.4118518518518518,0.40480000000073346],[-0.05333333333333338,0.4087037037037038,0.42930000000073676],[-0.05333333333333338,0.4087037037037038,0.4377000000029767],[-0.02177083333333331,0.3942592592592592,0.4644000000022288],[-0.02177083333333331,0.3942592592592592,0.4714999999999918],[-0.00458333333333331,0.35796296296296287,0.4959999999999951],[-0.00458333333333331,0.35796296296296287,0.5041000000014861],[0.022500000000000023,0.32407407407407407,0.5306000000014848],[0.022500000000000023,0.32407407407407407,0.537700000002971],[0.01885416666666669,0.33185185185185195,0.5646000000014908],[0.01885416666666669,0.33185185185185195,0.5715000000000003],[0.019791666666666666,0.31666666666666665,0.5971000000014897],[0.019791666666666666,0.31666666666666665,0.6044000000022294],[0.00010416666666669035,0.35981481481481475,0.6293000000007396],[0.00010416666666669035,0.35981481481481475,0.6371000000014817],[-0.018229166666666668,0.3487037037037036,0.6646000000014851],[-0.018229166666666668,0.3487037037037036,0.6742000000029691],[-0.03854166666666667,0.3827777777777779,0.6979999999999933],[-0.03854166666666667,0.3827777777777779,0.7059000000022309],[-0.035312499999999976,0.3646296296296296,0.7313000000007435],[-0.035312499999999976,0.3646296296296296,0.7383000000007343],[-0.0359375,0.3790740740740742,0.7654000000022307],[-0.0359375,0.3790740740740742,0.7726000000014892],[-0.03270833333333331,0.37592592592592594,0.7959000000022343],[-0.03270833333333331,0.37592592592592594,0.8046000000014857],[-0.029895833333333382,0.38555555555555565,0.8311000000014843],[-0.029895833333333382,0.38555555555555565,0.8388000000007452],[-0.04864583333333338,0.39592592592592585,0.864200000002981],[-0.04864583333333338,0.39592592592592585,0.871300000000744],[-0.05541666666666671,0.3983333333333334,0.8960000000000008],[-0.05541666666666671,0.3983333333333334,0.9044999999999987],[-0.034687499999999954,0.35592592592592603,0.9312000000029741],[-0.034687499999999954,0.35592592592592603,0.9384999999999906],[-0.03333333333333333,0.32944444444444443,0.9628000000007404],[-0.03333333333333333,0.32944444444444443,0.9716000000014873],[-0.04072916666666669,0.31555555555555553,0.9959999999999951],[-0.04072916666666669,0.31555555555555553,1.004499999999993],[-0.04916666666666671,0.3111111111111111,1.0311000000014872],[-0.04916666666666671,0.3111111111111111,1.0386000000014803],[-0.04916666666666671,0.3111111111111111,1.0453000000007364],[-0.04916666666666671,0.3111111111111111,1.0630000000000024],[-0.07062499999999995,0.334074074074074,1.0979000000022268],[-0.07062499999999995,0.334074074074074,1.1048000000007363],[-0.06468750000000002,0.3287037037037037,1.131300000000735],[-0.06468750000000002,0.3287037037037037,1.1384999999999934],[-0.09447916666666671,0.35907407407407405,1.1641000000014827],[-0.09447916666666671,0.35907407407407405,1.1714999999999947],[-0.09697916666666669,0.3568518518518519,1.1979000000022353],[-0.09697916666666669,0.3568518518518519,1.2047000000029726],[-0.09083333333333338,0.35537037037037034,1.2294000000022294],[-0.09083333333333338,0.35537037037037034,1.237400000002225],[-0.08020833333333334,0.3416666666666667,1.2643000000007447],[-0.08020833333333334,0.3416666666666667,1.2728000000007427],[-0.08020833333333334,0.3416666666666667,1.2786000000014894],[-0.08020833333333334,0.3416666666666667,1.2978000000007341],[-0.08624999999999995,0.34388888888888897,1.3294000000022237],[-0.08624999999999995,0.34388888888888897,1.3381000000014893],[-0.05687500000000002,0.3140740740740741,1.3627000000029739],[-0.05687500000000002,0.3140740740740741,1.3712000000029718],[-0.04802083333333336,0.2862962962962963,1.3960000000000008],[-0.04802083333333336,0.2862962962962963,1.4054999999999893],[-0.0036458333333333334,0.2631481481481482,1.430800000000744],[-0.0036458333333333334,0.2631481481481482,1.4388000000007395],[-0.0018749999999999527,0.24833333333333338,1.4644000000022288],[-0.0018749999999999527,0.24833333333333338,1.4714999999999918],[0.013333333333333286,0.24370370370370376,1.4959999999999951],[0.013333333333333286,0.24370370370370376,1.5042000000029816],[0.0140625,0.21814814814814806,1.5293000000007453],[0.0140625,0.21814814814814806,1.5373000000007409],[-0.005416666666666714,0.1977777777777777,1.5626000000014812],[-0.005416666666666714,0.1977777777777777,1.5708000000007445],[-0.03697916666666667,0.19407407407407398,1.5959999999999894],[-0.03697916666666667,0.19407407407407398,1.605800000000741],[-0.027499999999999976,0.16925925925925922,1.6314999999999884],[-0.027499999999999976,0.16925925925925922,1.6397000000029749],[-0.027499999999999976,0.16925925925925922,1.645300000000745],[-0.027499999999999976,0.16925925925925922,1.6629999999999967],[-0.05635416666666669,0.17481481481481478,1.6983000000007422],[-0.05635416666666669,0.17481481481481478,1.7059999999999889],[-0.05635416666666669,0.17481481481481478,1.711900000002231],[-0.05635416666666669,0.17481481481481478,1.7297000000029783],[-0.06229166666666662,0.19000000000000003,1.7646000000014794],[-0.06229166666666662,0.19000000000000003,1.7723000000007403],[-0.04541666666666669,0.19574074074074083,1.798100000001483],[-0.04541666666666669,0.19574074074074083,1.8079999999999927],[-0.05364583333333333,0.18074074074074079,1.8312000000029798],[-0.05364583333333333,0.18074074074074079,1.838700000002973],[-0.05364583333333333,0.18074074074074079,1.8452000000029756],[-0.05364583333333333,0.18074074074074079,1.8629999999999995],[-0.04645833333333336,0.18851851851851845,1.897900000002224],[-0.04645833333333336,0.18851851851851845,1.906400000002236],[-0.03895833333333331,0.15685185185185194,1.9314000000022276],[-0.03895833333333331,0.15685185185185194,1.9384000000022326],[-0.02510416666666669,0.14648148148148152,1.9629999999999939],[-0.02510416666666669,0.14648148148148152,1.9709000000022314],[0.021249999999999977,0.14888888888888885,2.0006000000014836],[0.021249999999999977,0.14888888888888885,2.0079999999999956],[0.024583333333333356,0.18851851851851845,2.0313000000007406],[0.024583333333333356,0.18851851851851845,2.038499999999999],[0.017812500000000023,0.2390740740740741,2.067700000002972],[0.017812500000000023,0.2390740740740741,2.074700000002977],[-0.004375000000000047,0.2814814814814815,2.0974999999999966],[-0.004375000000000047,0.2814814814814815,2.1053000000007387],[-0.004375000000000047,0.2814814814814815,2.1119000000022368],[-0.04895833333333333,0.31962962962962965,2.1459000000022286],[-0.04895833333333333,0.31962962962962965,2.157499999999999],[-0.04895833333333333,0.31962962962962965,2.161900000002234],[-0.04895833333333333,0.31962962962962965,2.216300000000743],[-0.06156250000000003,0.3501851851851852,2.2388000000007366],[-0.06156250000000003,0.3501851851851852,2.2469000000022277],[-0.06791666666666671,0.3888888888888889,2.2619000000022282],[-0.06791666666666671,0.3888888888888889,2.2786000000014894],[-0.06083333333333331,0.41814814814814805,2.2953000000007364],[-0.06083333333333331,0.41814814814814805,2.3119000000022254],[-0.050729166666666714,0.45092592592592595,2.3286000000014866],[-0.050729166666666714,0.45092592592592595,2.350200000002971],[-0.043333333333333356,0.49166666666666664,2.3619000000022368],[-0.043333333333333356,0.49166666666666664,2.378700000002979],[-0.06364583333333336,0.5318518518518519,2.399000000000001],[-0.06364583333333336,0.5318518518518519,2.411900000002234],[-0.041770833333333354,0.528888888888889,2.4287000000029764],[-0.041770833333333354,0.528888888888889,2.445300000000742],[-0.03333333333333333,0.5111111111111111,2.4658000000007405],[-0.03333333333333333,0.5111111111111111,2.4787000000029735],[-0.004791666666666691,0.5064814814814815,2.4952000000029813],[-0.004791666666666691,0.5064814814814815,2.5189000000022332],[0.021458333333333357,0.4898148148148148,2.528499999999994],[0.021458333333333357,0.4898148148148148,2.5452000000029784],[0.03937499999999995,0.4859259259259259,2.5655],[0.03937499999999995,0.4859259259259259,2.5786000000014866],[0.04541666666666669,0.48407407407407405,2.5955000000000013],[0.04541666666666669,0.48407407407407405,2.6119000000022368],[0.05697916666666671,0.46296296296296297,2.6286000000014837],[0.05697916666666671,0.46296296296296297,2.649000000000001],[0.06666666666666667,0.46111111111111114,2.661999999999992],[0.07999999999999995,0.44074074074074077,2.682200000002979],[0.07229166666666677,0.4166666666666667,2.699700000002977],[0.07229166666666677,0.4166666666666667,2.711999999999989],[0.08406250000000005,0.40962962962962973,2.7286000000014923],[0.08406250000000005,0.40962962962962973,2.7454999999999927],[0.09197916666666663,0.397037037037037,2.761800000000747],[0.12020833333333343,0.36277777777777775,2.7838000000007384],[0.17312500000000006,0.3077777777777779,2.8004000000022273],[0.16635416666666672,0.3170370370370371,2.8182000000029745],[0.16635416666666672,0.3170370370370371,2.8289000000022355],[0.14249999999999996,0.3322222222222222,2.845400000002229],[0.11958333333333329,0.36018518518518516,2.8619000000022368],[0.0978125000000001,0.37703703703703706,2.8826000000014886],[0.05406249999999998,0.38333333333333336,2.8981000000014916],[0.026145833333333358,0.3896296296296296,2.911900000002234],[0.005416666666666714,0.39962962962962956,2.9329000000022347],[-0.01875,0.41999999999999993,2.948300000000742],[-0.05447916666666662,0.4722222222222222,2.961900000002231],[-0.11062500000000004,0.5553703703703703,2.9788000000007457],[-0.12885416666666671,0.5790740740740742,2.998100000001486],[-0.103125,0.5607407407407407,3.0134000000022354],[-0.07093750000000003,0.5481481481481482,3.0309999999999917],[-0.05364583333333333,0.5275925925925925,3.045400000002232],[0.0026041666666666665,0.5409259259259259,3.0648000000007443],[0.04624999999999998,0.5353703703703704,3.079800000000745],[0.07531249999999995,0.5053703703703704,3.095700000002978],[0.09093749999999995,0.49666666666666676,3.117300000000739],[0.09093749999999995,0.49666666666666676,3.128800000000737],[0.12666666666666657,0.45981481481481473,3.1454999999999984],[0.15427083333333325,0.422037037037037,3.168999999999997],[0.15427083333333325,0.422037037037037,3.1787000000029764],[0.1603125000000001,0.37407407407407406,3.1954000000022376],[0.15510416666666677,0.3594444444444445,3.211999999999989],[0.1328125,0.3337037037037038,3.2324000000022295],[0.13864583333333325,0.3148148148148148,3.2486000000014883],[0.11791666666666671,0.2975925925925927,3.2639000000022236],[0.10979166666666676,0.2992592592592593,3.279200000002973],[0.09145833333333328,0.30277777777777776,3.298000000000002],[0.10489583333333338,0.26055555555555565,3.316600000001486],[0.10604166666666662,0.24259259259259258,3.332499999999996],[0.10718750000000009,0.22462962962962954,3.3501000000014898],[0.1365624999999999,0.1905555555555555,3.3641000000014856],[0.15281250000000005,0.1557407407407408,3.379400000002235],[0.146875,0.2116666666666666,3.395400000002226],[0.13270833333333343,0.20259259259259255,3.416400000002227],[0.13479166666666675,0.22981481481481486,3.4318000000007345],[0.14135416666666673,0.20037037037037045,3.448300000000742],[0.15364583333333334,0.2257407407407407,3.464900000002231],[0.15666666666666676,0.2155555555555555,3.478900000002227],[0.16020833333333329,0.19222222222222213,3.4954000000022347],[0.1734375,0.18333333333333332,3.5120000000000005],[0.1740624999999999,0.20092592592592592,3.5337000000029803],[0.1740624999999999,0.20092592592592592,3.5453000000007364],[0.1609375,0.20907407407407402,3.561800000000744],[0.17239583333333333,0.1566666666666667,3.5786000000014866],[0.18541666666666667,0.17296296296296293,3.5955000000000013],[0.1625,0.15462962962962962,3.6119000000022368],[0.1578125,0.17166666666666675,3.6314000000022304],[0.1650000000000001,0.1361111111111111,3.6452000000029727],[0.17239583333333333,0.13555555555555565,3.661900000002234],[0.19031250000000005,0.17018518518518513,3.678600000001481],[0.1603125000000001,0.1714814814814815,3.69820000000297],[0.13416666666666663,0.17777777777777778,3.711900000002231],[0.11958333333333329,0.18555555555555564,3.730700000002969],[0.10968749999999995,0.16018518518518518,3.7452000000029813],[0.0990624999999999,0.12981481481481486,3.7619000000022282],[0.11979166666666667,0.08814814814814818,3.782100000001492],[0.11979166666666667,0.08814814814814818,3.811700000002972],[0.11843750000000004,0.06018518518518518,3.8189999999999884],[0.11843750000000004,0.06018518518518518,3.8289999999999935],[0.11145833333333334,0.05962962962962971,3.845400000002229],[0.10791666666666658,0.045740740740740825,3.86399999999999],[0.07729166666666672,0.01648148148148144,3.878700000002979],[0.08489583333333334,0.006111111111111027,3.895400000002226],[0.07906250000000009,0.012407407407407492,3.9163000000007457],[0.09822916666666662,-0.006296296296296254,3.9313000000007463],[0.10354166666666677,-0.01907407407407399,3.94520000000297],[0.10302083333333342,-0.0294444444444444,3.965300000000738],[0.09281249999999991,-0.036481481481481566,3.9813000000007435],[0.10145833333333343,-0.01796296296296305,3.9952000000029813],[0.10833333333333334,-0.03092592592592601,4.011900000002228],[0.10416666666666667,-0.0031481481481482323,4.029200000002973],[0.08760416666666657,0.0020370370370370794,4.045300000000736],[0.09458333333333328,-0.011111111111111112,4.063200000002979],[0.11500000000000009,-0.04092592592592597,4.078600000001487],[0.10458333333333343,-0.014814814814814815,4.095200000002976],[0.1009375000000001,0.008333333333333333,4.11210000000149],[0.10072916666666672,0.037037037037037035,4.131900000002233],[0.11020833333333328,0.062407407407407495,4.145400000002226],[0.10499999999999995,0.05925925925925926,4.165499999999994],[0.10499999999999995,0.05925925925925926,4.1785],[0.09760416666666671,0.07796296296296301,4.19520000000297],[0.08364583333333328,0.06796296296296304,4.211900000002231],[0.09281249999999991,0.06277777777777774,4.230499999999992],[0.10374999999999991,0.05851851851851856,4.245200000002981],[0.1131249999999999,0.05962962962962971,4.2620000000000005],[0.10989583333333333,0.056666666666666705,4.278499999999994],[0.10666666666666676,0.053703703703703705,4.295300000000736],[0.09874999999999995,0.041111111111111195,4.311800000000744],[0.09083333333333338,0.028518518518518478,4.328700000002982],[0.11166666666666672,0.018703703703703747,4.345200000002976],[0.1384375000000001,-0.01722222222222214,4.361900000002237],[0.18364583333333329,-0.01962962962962967,4.378499999999988],[0.22072916666666675,-0.034444444444444486,4.395200000002973],[0.25010416666666657,-0.03296296296296288,4.411900000002234],[0.28010416666666677,-0.06296296296296296,4.4306000000014905],[0.31697916666666665,-0.10629629629629625,4.44520000000297],[0.36520833333333325,-0.1685185185185185,4.461900000002231],[0.40656249999999994,-0.19907407407407407,4.4787000000029735],[0.43718750000000006,-0.22740740740740742,4.495200000002981],[0.4273958333333333,-0.2553703703703703,4.511900000002228],[0.4280208333333334,-0.27240740740740743,4.531700000002971],[0.41822916666666665,-0.28703703703703703,4.54549999999999],[0.38604166666666656,-0.2862962962962963,4.561900000002225],[0.33624999999999994,-0.2844444444444445,4.578600000001487],[0.33624999999999994,-0.2844444444444445,4.595300000000734],[0.33624999999999994,-0.2844444444444445,4.613600000001483],[0.3038541666666667,-0.25037037037037035,4.6499999999999915],[0.3038541666666667,-0.25037037037037035,4.656900000002224],[0.2720833333333334,-0.18981481481481483,4.68490000000223],[0.2720833333333334,-0.18981481481481483,4.692700000002972],[0.24427083333333333,-0.14055555555555552,4.718300000000738],[0.24427083333333333,-0.14055555555555552,4.725999999999999],[0.196875,-0.10055555555555558,4.751100000001486],[0.196875,-0.10055555555555558,4.757900000002238],[0.15697916666666673,-0.06425925925925924,4.783999999999992],[0.15697916666666673,-0.06425925925925924,4.791100000001492],[0.13604166666666656,0.0003703703703704546,4.820999999999998],[0.13604166666666656,0.0003703703703704546,4.828100000001484],[0.0943749999999999,0.04685185185185177,4.85110000000148],[0.0943749999999999,0.04685185185185177,4.858100000001485],[0.06020833333333329,0.06962962962962967,4.883800000000747],[0.06020833333333329,0.06962962962962967,4.890400000002231],[0.08781249999999995,0.08537037037037042,4.9184000000022365],[0.08781249999999995,0.08537037037037042,4.925400000002227],[0.08104166666666662,0.13740740740740748,4.95120000000297],[0.08104166666666662,0.13740740740740748,4.9576000000014915],[0.06572916666666669,0.15222222222222231,4.983800000000741],[0.06572916666666669,0.15222222222222231,4.990400000002225],[0.07708333333333334,0.15092592592592594,5.018400000002231]]","[0.00020000000297670795,0.04080000000074335,0.06570000000297682,0.07280000000073983,0.10090000000222688,0.10940000000222483,0.13510000000148636,0.14230000000074483,0.1677000000029807,0.17499999999999716,0.20060000000148648,0.20770000000297273,0.21199999999998909,0.2467000000029742,0.2551000000014909,0.27980000000073346,0.28890000000222926,0.31830000000074676,0.3268000000007447,0.35190000000223165,0.35899999999999466,0.3669999999999902,0.3960000000000008,0.40480000000073346,0.42930000000073676,0.4377000000029767,0.4644000000022288,0.4714999999999918,0.4959999999999951,0.5041000000014861,0.5306000000014848,0.537700000002971,0.5646000000014908,0.5715000000000003,0.5971000000014897,0.6044000000022294,0.6293000000007396,0.6371000000014817,0.6646000000014851,0.6742000000029691,0.6979999999999933,0.7059000000022309,0.7313000000007435,0.7383000000007343,0.7654000000022307,0.7726000000014892,0.7959000000022343,0.8046000000014857,0.8311000000014843,0.8388000000007452,0.864200000002981,0.871300000000744,0.8960000000000008,0.9044999999999987,0.9312000000029741,0.9384999999999906,0.9628000000007404,0.9716000000014873,0.9959999999999951,1.004499999999993,1.0311000000014872,1.0386000000014803,1.0453000000007364,1.0630000000000024,1.0979000000022268,1.1048000000007363,1.131300000000735,1.1384999999999934,1.1641000000014827,1.1714999999999947,1.1979000000022353,1.2047000000029726,1.2294000000022294,1.237400000002225,1.2643000000007447,1.2728000000007427,1.2786000000014894,1.2978000000007341,1.3294000000022237,1.3381000000014893,1.3627000000029739,1.3712000000029718,1.3960000000000008,1.4054999999999893,1.430800000000744,1.4388000000007395,1.4644000000022288,1.4714999999999918,1.4959999999999951,1.5042000000029816,1.5293000000007453,1.5373000000007409,1.5626000000014812,1.5708000000007445,1.5959999999999894,1.605800000000741,1.6314999999999884,1.6397000000029749,1.645300000000745,1.6629999999999967,1.6983000000007422,1.7059999999999889,1.711900000002231,1.7297000000029783,1.7646000000014794,1.7723000000007403,1.798100000001483,1.8079999999999927,1.8312000000029798,1.838700000002973,1.8452000000029756,1.8629999999999995,1.897900000002224,1.906400000002236,1.9314000000022276,1.9384000000022326,1.9629999999999939,1.9709000000022314,2.0006000000014836,2.0079999999999956,2.0313000000007406,2.038499999999999,2.067700000002972,2.074700000002977,2.0974999999999966,2.1053000000007387,2.1119000000022368,2.1459000000022286,2.157499999999999,2.161900000002234,2.216300000000743,2.2388000000007366,2.2469000000022277,2.2619000000022282,2.2786000000014894,2.2953000000007364,2.3119000000022254,2.3286000000014866,2.350200000002971,2.3619000000022368,2.378700000002979,2.399000000000001,2.411900000002234,2.4287000000029764,2.445300000000742,2.4658000000007405,2.4787000000029735,2.4952000000029813,2.5189000000022332,2.528499999999994,2.5452000000029784,2.5655,2.5786000000014866,2.5955000000000013,2.6119000000022368,2.6286000000014837,2.649000000000001,2.661999999999992,2.682200000002979,2.699700000002977,2.711999999999989,2.7286000000014923,2.7454999999999927,2.761800000000747,2.7838000000007384,2.8004000000022273,2.8182000000029745,2.8289000000022355,2.845400000002229,2.8619000000022368,2.8826000000014886,2.8981000000014916,2.911900000002234,2.9329000000022347,2.948300000000742,2.961900000002231,2.9788000000007457,2.998100000001486,3.0134000000022354,3.0309999999999917,3.045400000002232,3.0648000000007443,3.079800000000745,3.095700000002978,3.117300000000739,3.128800000000737,3.1454999999999984,3.168999999999997,3.1787000000029764,3.1954000000022376,3.211999999999989,3.2324000000022295,3.2486000000014883,3.2639000000022236,3.279200000002973,3.298000000000002,3.316600000001486,3.332499999999996,3.3501000000014898,3.3641000000014856,3.379400000002235,3.395400000002226,3.416400000002227,3.4318000000007345,3.448300000000742,3.464900000002231,3.478900000002227,3.4954000000022347,3.5120000000000005,3.5337000000029803,3.5453000000007364,3.561800000000744,3.5786000000014866,3.5955000000000013,3.6119000000022368,3.6314000000022304,3.6452000000029727,3.661900000002234,3.678600000001481,3.69820000000297,3.711900000002231,3.730700000002969,3.7452000000029813,3.7619000000022282,3.782100000001492,3.811700000002972,3.8189999999999884,3.8289999999999935,3.845400000002229,3.86399999999999,3.878700000002979,3.895400000002226,3.9163000000007457,3.9313000000007463,3.94520000000297,3.965300000000738,3.9813000000007435,3.9952000000029813,4.011900000002228,4.029200000002973,4.045300000000736,4.063200000002979,4.078600000001487,4.095200000002976,4.11210000000149,4.131900000002233,4.145400000002226,4.165499999999994,4.1785,4.19520000000297,4.211900000002231,4.230499999999992,4.245200000002981,4.2620000000000005,4.278499999999994,4.295300000000736,4.311800000000744,4.328700000002982,4.345200000002976,4.361900000002237,4.378499999999988,4.395200000002973,4.411900000002234,4.4306000000014905,4.44520000000297,4.461900000002231,4.4787000000029735,4.495200000002981,4.511900000002228,4.531700000002971,4.54549999999999,4.561900000002225,4.578600000001487,4.595300000000734,4.613600000001483,4.6499999999999915,4.656900000002224,4.68490000000223,4.692700000002972,4.718300000000738,4.725999999999999,4.751100000001486,4.757900000002238,4.783999999999992,4.791100000001492,4.820999999999998,4.828100000001484,4.85110000000148,4.858100000001485,4.883800000000747,4.890400000002231,4.9184000000022365,4.925400000002227,4.95120000000297,4.9576000000014915,4.983800000000741,4.990400000002225,5.018400000002231]","[1733130973238,1733130973272,1733130973297,1733130973304,1733130973332,1733130973340,1733130973366,1733130973373,1733130973399,1733130973406,1733130973432,1733130973439,1733130973443,1733130973478,1733130973486,1733130973511,1733130973520,1733130973549,1733130973558,1733130973583,1733130973590,1733130973598,1733130973627,1733130973636,1733130973660,1733130973669,1733130973695,1733130973702,1733130973727,1733130973735,1733130973762,1733130973769,1733130973796,1733130973803,1733130973828,1733130973835,1733130973860,1733130973868,1733130973896,1733130973905,1733130973929,1733130973937,1733130973962,1733130973969,1733130973996,1733130974004,1733130974027,1733130974036,1733130974062,1733130974070,1733130974095,1733130974102,1733130974127,1733130974136,1733130974162,1733130974169,1733130974194,1733130974203,1733130974227,1733130974235,1733130974262,1733130974270,1733130974276,1733130974294,1733130974329,1733130974336,1733130974362,1733130974369,1733130974395,1733130974402,1733130974429,1733130974436,1733130974460,1733130974468,1733130974495,1733130974504,1733130974510,1733130974529,1733130974560,1733130974569,1733130974594,1733130974602,1733130974627,1733130974636,1733130974662,1733130974670,1733130974695,1733130974702,1733130974727,1733130974735,1733130974760,1733130974768,1733130974794,1733130974802,1733130974827,1733130974837,1733130974862,1733130974871,1733130974876,1733130974894,1733130974929,1733130974937,1733130974943,1733130974961,1733130974996,1733130975003,1733130975029,1733130975039,1733130975062,1733130975070,1733130975076,1733130975094,1733130975129,1733130975137,1733130975162,1733130975169,1733130975194,1733130975202,1733130975232,1733130975239,1733130975262,1733130975270,1733130975299,1733130975306,1733130975328,1733130975336,1733130975343,1733130975377,1733130975389,1733130975393,1733130975447,1733130975470,1733130975478,1733130975493,1733130975510,1733130975526,1733130975543,1733130975560,1733130975581,1733130975593,1733130975610,1733130975630,1733130975643,1733130975660,1733130975676,1733130975697,1733130975710,1733130975726,1733130975750,1733130975760,1733130975776,1733130975796,1733130975810,1733130975826,1733130975843,1733130975860,1733130975880,1733130975893,1733130975913,1733130975931,1733130975943,1733130975960,1733130975977,1733130975993,1733130976015,1733130976031,1733130976049,1733130976060,1733130976076,1733130976093,1733130976114,1733130976129,1733130976143,1733130976164,1733130976179,1733130976193,1733130976210,1733130976229,1733130976244,1733130976262,1733130976276,1733130976296,1733130976311,1733130976327,1733130976348,1733130976360,1733130976376,1733130976400,1733130976410,1733130976426,1733130976443,1733130976463,1733130976480,1733130976495,1733130976510,1733130976529,1733130976548,1733130976564,1733130976581,1733130976595,1733130976610,1733130976626,1733130976647,1733130976663,1733130976679,1733130976696,1733130976710,1733130976726,1733130976743,1733130976765,1733130976776,1733130976793,1733130976810,1733130976827,1733130976843,1733130976862,1733130976876,1733130976893,1733130976910,1733130976929,1733130976943,1733130976962,1733130976976,1733130976993,1733130977013,1733130977043,1733130977050,1733130977060,1733130977076,1733130977095,1733130977110,1733130977126,1733130977147,1733130977162,1733130977176,1733130977196,1733130977212,1733130977226,1733130977243,1733130977260,1733130977276,1733130977294,1733130977310,1733130977326,1733130977343,1733130977363,1733130977376,1733130977396,1733130977410,1733130977426,1733130977443,1733130977461,1733130977476,1733130977493,1733130977510,1733130977526,1733130977543,1733130977560,1733130977576,1733130977593,1733130977610,1733130977626,1733130977643,1733130977662,1733130977676,1733130977693,1733130977710,1733130977726,1733130977743,1733130977763,1733130977777,1733130977793,1733130977810,1733130977826,1733130977845,1733130977881,1733130977888,1733130977916,1733130977924,1733130977949,1733130977957,1733130977982,1733130977989,1733130978015,1733130978022,1733130978052,1733130978059,1733130978082,1733130978089,1733130978115,1733130978121,1733130978149,1733130978156,1733130978182,1733130978189,1733130978215,1733130978221,1733130978249]","[[873.9,603.3],[873.9,603.3],[848.4,617.9],[848.4,617.9],[831.9,619.6],[831.9,619.6],[834.1,640.4],[834.1,640.4],[841,652.2],[841,652.2],[849.7,678.4],[849.7,678.4],[849.7,678.4],[859.5,717.2],[859.5,717.2],[857.5,718.8],[857.5,718.8],[886.3,745.7],[886.3,745.7],[886.4,748.4],[886.4,748.4],[886.4,748.4],[910.1,762.4],[910.1,762.4],[908.8,760.7],[908.8,760.7],[939.1,752.9],[939.1,752.9],[955.6,733.3],[955.6,733.3],[981.6,715],[981.6,715],[978.1,719.2],[978.1,719.2],[979,711],[979,711],[960.1,734.3],[960.1,734.3],[942.5,728.3],[942.5,728.3],[923,746.7],[923,746.7],[926.1,736.9],[926.1,736.9],[925.5,744.7],[925.5,744.7],[928.6,743],[928.6,743],[931.3,748.2],[931.3,748.2],[913.3,753.8],[913.3,753.8],[906.8,755.1],[906.8,755.1],[926.7,732.2],[926.7,732.2],[928,717.9],[928,717.9],[920.9,710.4],[920.9,710.4],[912.8,708],[912.8,708],[912.8,708],[912.8,708],[892.2,720.4],[892.2,720.4],[897.9,717.5],[897.9,717.5],[869.3,733.9],[869.3,733.9],[866.9,732.7],[866.9,732.7],[872.8,731.9],[872.8,731.9],[883,724.5],[883,724.5],[883,724.5],[883,724.5],[877.2,725.7],[877.2,725.7],[905.4,709.6],[905.4,709.6],[913.9,694.6],[913.9,694.6],[956.5,682.1],[956.5,682.1],[958.2,674.1],[958.2,674.1],[972.8,671.6],[972.8,671.6],[973.5,657.8],[973.5,657.8],[954.8,646.8],[954.8,646.8],[924.5,644.8],[924.5,644.8],[933.6,631.4],[933.6,631.4],[933.6,631.4],[933.6,631.4],[905.9,634.4],[905.9,634.4],[905.9,634.4],[905.9,634.4],[900.2,642.6],[900.2,642.6],[916.4,645.7],[916.4,645.7],[908.5,637.6],[908.5,637.6],[908.5,637.6],[908.5,637.6],[915.4,641.8],[915.4,641.8],[922.6,624.7],[922.6,624.7],[935.9,619.1],[935.9,619.1],[980.4,620.4],[980.4,620.4],[983.6,641.8],[983.6,641.8],[977.1,669.1],[977.1,669.1],[955.8,692],[955.8,692],[955.8,692],[913,712.6],[913,712.6],[913,712.6],[913,712.6],[900.9,729.1],[900.9,729.1],[894.8,750],[894.8,750],[901.6,765.8],[901.6,765.8],[911.3,783.5],[911.3,783.5],[918.4,805.5],[918.4,805.5],[898.9,827.2],[898.9,827.2],[919.9,825.6],[919.9,825.6],[928,816],[928,816],[955.4,813.5],[955.4,813.5],[980.6,804.5],[980.6,804.5],[997.8,802.4],[997.8,802.4],[1003.6,801.4],[1003.6,801.4],[1014.7,790],[1014.7,790],[1024,789],[1036.8,778],[1029.4,765],[1029.4,765],[1040.7,761.2],[1040.7,761.2],[1048.3,754.4],[1075.4,735.9],[1126.2,706.2],[1119.7,711.2],[1119.7,711.2],[1096.8,719.4],[1074.8,734.5],[1053.9,743.6],[1011.9,747],[985.1,750.4],[965.2,755.8],[942,766.8],[907.7,795],[853.8,839.9],[836.3,852.7],[861,842.8],[891.9,836],[908.5,824.9],[962.5,832.1],[1004.4,829.1],[1032.3,812.9],[1047.3,808.2],[1047.3,808.2],[1081.6,788.3],[1108.1,767.9],[1108.1,767.9],[1113.9,742],[1108.9,734.1],[1087.5,720.2],[1093.1,710],[1073.2,700.7],[1065.4,701.6],[1047.8,703.5],[1060.7,680.7],[1061.8,671],[1062.9,661.3],[1091.1,642.9],[1106.7,624.1],[1101,654.3],[1087.4,649.4],[1089.4,664.1],[1095.7,648.2],[1107.5,661.9],[1110.4,656.4],[1113.8,643.8],[1126.5,639],[1127.1,648.5],[1127.1,648.5],[1114.5,652.9],[1125.5,624.6],[1138,633.4],[1116,623.5],[1111.5,632.7],[1118.4,613.5],[1125.5,613.2],[1142.7,631.9],[1113.9,632.6],[1088.8,636],[1074.8,640.2],[1065.3,626.5],[1055.1,610.1],[1075,587.6],[1075,587.6],[1073.7,572.5],[1073.7,572.5],[1067,572.2],[1063.6,564.7],[1034.2,548.9],[1041.5,543.3],[1035.9,546.7],[1054.3,536.6],[1059.4,529.7],[1058.9,524.1],[1049.1,520.3],[1057.4,530.3],[1064,523.3],[1060,538.3],[1044.1,541.1],[1050.8,534],[1070.4,517.9],[1060.4,532],[1056.9,544.5],[1056.7,560],[1065.8,573.7],[1060.8,572],[1060.8,572],[1053.7,582.1],[1040.3,576.7],[1049.1,573.9],[1059.6,571.6],[1068.6,572.2],[1065.5,570.6],[1062.4,569],[1054.8,562.2],[1047.2,555.4],[1067.2,550.1],[1092.9,530.7],[1136.3,529.4],[1171.9,521.4],[1200.1,522.2],[1228.9,506],[1264.3,482.6],[1310.6,449],[1350.3,432.5],[1379.7,417.2],[1370.3,402.1],[1370.9,392.9],[1361.5,385],[1330.6,385.4],[1282.8,386.4],[1282.8,386.4],[1282.8,386.4],[1251.7,404.8],[1251.7,404.8],[1221.2,437.5],[1221.2,437.5],[1194.5,464.1],[1194.5,464.1],[1149,485.7],[1149,485.7],[1110.7,505.3],[1110.7,505.3],[1090.6,540.2],[1090.6,540.2],[1050.6,565.3],[1050.6,565.3],[1017.8,577.6],[1017.8,577.6],[1044.3,586.1],[1044.3,586.1],[1037.8,614.2],[1037.8,614.2],[1023.1,622.2],[1023.1,622.2],[1034,621.5]]","[0,0.151169218]","[0.151169218,0.151169218]","[-0.151169218,0]","[-0.151169218,-0.151169218]","[0,0]","[0.151169218,0]","[0,-0.151169218]","[0.151169218,-0.151169218]",0,0,0,0,1,2,Smartphone,7,1,11,9
