inst1_resp.keys,inst1_resp.rt,calibrationMouse.x,calibrationMouse.y,calibrationMouse.leftButton,calibrationMouse.midButton,calibrationMouse.rightButton,calibrationClick.x,calibrationClick.y,calibrationClick.leftButton,calibrationClick.midButton,calibrationClick.rightButton,trialsc.thisRepN,trialsc.thisTrialN,trialsc.thisN,trialsc.thisIndex,trialsc.ran,calibration_x,calibration_y,participant,session,date,expName,psychopyVersion,OS,frameRate,calibrationClick.clicked_name,ScreenRes_pixels,Camera_pixels,mouse_2.x,mouse_2.y,mouse_2.leftButton,mouse_2.midButton,mouse_2.rightButton,mouse_2.time,mouse_2.clicked_name,mouse.x,mouse.y,mouse.leftButton,mouse.midButton,mouse.rightButton,mouse.time,mouse.clicked_name,Choice,Trial,TrialDuration,MOUSE_GAZE,ET_GAZE,ET_GAZE_x_T,time,unixTime,ET_GAZE_NF,Loc_Option1_label,Loc_Option2_label,Loc_Cost_label,Loc_Qual_label,Loc_Option1_cost,Loc_Option2_cost,Loc_Option1_quality,Loc_Option2_quality,trials.thisRepN,trials.thisTrialN,trials.thisN,trials.thisIndex,trials.ran,Block,Device,cost1,qual1,cost2,qual2
space,2.9345,0.469791667,0.02037037,1,0,0,-0.008333333,-0.65,1,0,0,0,0,0,9,1,0,-0.67,45,001,2024-12-03_11h15.18.724,Attention_exp_legacy,2023.1.0,Win32,60.24096386,,,,,,,,,,,,,,,,,,,,,,,,,,,,,,,,,,,,,,,,,,,,,
,,,,,,,0.672916667,-0.668518519,1,0,0,0,1,1,20,1,0.67,-0.67,45,001,2024-12-03_11h15.18.724,Attention_exp_legacy,2023.1.0,Win32,60.24096386,calibration_square,,,,,,,,,,,,,,,,,,,,,,,,,,,,,,,,,,,,,,,,,,,,
,,,,,,,0.3375,0.001851852,1,0,0,0,2,2,16,1,0.33,0,45,001,2024-12-03_11h15.18.724,Attention_exp_legacy,2023.1.0,Win32,60.24096386,calibration_square,,,,,,,,,,,,,,,,,,,,,,,,,,,,,,,,,,,,,,,,,,,,
,,,,,,,-0.336458333,-0.001851852,1,0,0,0,3,3,6,1,-0.33,0,45,001,2024-12-03_11h15.18.724,Attention_exp_legacy,2023.1.0,Win32,60.24096386,calibration_square,,,,,,,,,,,,,,,,,,,,,,,,,,,,,,,,,,,,,,,,,,,,
,,,,,,,0,-0.016666667,1,0,0,0,4,4,11,1,0,0,45,001,2024-12-03_11h15.18.724,Attention_exp_legacy,2023.1.0,Win32,60.24096386,,,,,,,,,,,,,,,,,,,,,,,,,,,,,,,,,,,,,,,,,,,,,
,,,,,,,-0.657291667,-0.316666667,1,0,0,0,5,5,1,1,-0.67,-0.33,45,001,2024-12-03_11h15.18.724,Attention_exp_legacy,2023.1.0,Win32,60.24096386,,,,,,,,,,,,,,,,,,,,,,,,,,,,,,,,,,,,,,,,,,,,,
,,,,,,,0.346875,-0.687037037,1,0,0,0,6,6,14,1,0.33,-0.67,45,001,2024-12-03_11h15.18.724,Attention_exp_legacy,2023.1.0,Win32,60.24096386,,,,,,,,,,,,,,,,,,,,,,,,,,,,,,,,,,,,,,,,,,,,,
,,,,,,,0.327083333,-0.359259259,1,0,0,0,7,7,15,1,0.33,-0.33,45,001,2024-12-03_11h15.18.724,Attention_exp_legacy,2023.1.0,Win32,60.24096386,,,,,,,,,,,,,,,,,,,,,,,,,,,,,,,,,,,,,,,,,,,,,
,,,,,,,-0.327083333,-0.685185185,1,0,0,0,8,8,4,1,-0.33,-0.67,45,001,2024-12-03_11h15.18.724,Attention_exp_legacy,2023.1.0,Win32,60.24096386,,,,,,,,,,,,,,,,,,,,,,,,,,,,,,,,,,,,,,,,,,,,,
,,,,,,,0.007291667,-0.351851852,1,0,0,0,9,9,10,1,0,-0.33,45,001,2024-12-03_11h15.18.724,Attention_exp_legacy,2023.1.0,Win32,60.24096386,,,,,,,,,,,,,,,,,,,,,,,,,,,,,,,,,,,,,,,,,,,,,
,,,,,,,-0.683333333,-0.001851852,1,0,0,0,10,10,2,1,-0.67,0,45,001,2024-12-03_11h15.18.724,Attention_exp_legacy,2023.1.0,Win32,60.24096386,,,,,,,,,,,,,,,,,,,,,,,,,,,,,,,,,,,,,,,,,,,,,
,,,,,,,0.66875,0.662962963,1,0,0,0,11,11,19,1,0.67,0.67,45,001,2024-12-03_11h15.18.724,Attention_exp_legacy,2023.1.0,Win32,60.24096386,calibration_square,,,,,,,,,,,,,,,,,,,,,,,,,,,,,,,,,,,,,,,,,,,,
,,,,,,,-0.670833333,-0.661111111,1,0,0,0,12,12,0,1,-0.67,-0.67,45,001,2024-12-03_11h15.18.724,Attention_exp_legacy,2023.1.0,Win32,60.24096386,calibration_square,,,,,,,,,,,,,,,,,,,,,,,,,,,,,,,,,,,,,,,,,,,,
,,,,,,,0.341666667,0.318518519,1,0,0,0,13,13,17,1,0.33,0.33,45,001,2024-12-03_11h15.18.724,Attention_exp_legacy,2023.1.0,Win32,60.24096386,,,,,,,,,,,,,,,,,,,,,,,,,,,,,,,,,,,,,,,,,,,,,
,,,,,,,-0.317708333,-0.314814815,1,0,0,0,14,14,5,1,-0.33,-0.33,45,001,2024-12-03_11h15.18.724,Attention_exp_legacy,2023.1.0,Win32,60.24096386,,,,,,,,,,,,,,,,,,,,,,,,,,,,,,,,,,,,,,,,,,,,,
,,,,,,,0.333333333,0.67037037,1,0,0,0,15,15,18,1,0.33,0.67,45,001,2024-12-03_11h15.18.724,Attention_exp_legacy,2023.1.0,Win32,60.24096386,calibration_square,,,,,,,,,,,,,,,,,,,,,,,,,,,,,,,,,,,,,,,,,,,,
,,,,,,,-0.017708333,0.668518519,1,0,0,0,16,16,13,1,0,0.67,45,001,2024-12-03_11h15.18.724,Attention_exp_legacy,2023.1.0,Win32,60.24096386,,,,,,,,,,,,,,,,,,,,,,,,,,,,,,,,,,,,,,,,,,,,,
,,,,,,,-0.66875,0.314814815,1,0,0,0,17,17,3,1,-0.67,0.33,45,001,2024-12-03_11h15.18.724,Attention_exp_legacy,2023.1.0,Win32,60.24096386,,,,,,,,,,,,,,,,,,,,,,,,,,,,,,,,,,,,,,,,,,,,,
,,,,,,,-0.326041667,0.642592593,1,0,0,0,18,18,8,1,-0.33,0.67,45,001,2024-12-03_11h15.18.724,Attention_exp_legacy,2023.1.0,Win32,60.24096386,,,,,,,,,,,,,,,,,,,,,,,,,,,,,,,,,,,,,,,,,,,,,
,,,,,,,-0.001041667,0.342592593,1,0,0,0,19,19,12,1,0,0.33,45,001,2024-12-03_11h15.18.724,Attention_exp_legacy,2023.1.0,Win32,60.24096386,,,,,,,,,,,,,,,,,,,,,,,,,,,,,,,,,,,,,,,,,,,,,
,,,,,,,-0.326041667,0.338888889,1,0,0,0,20,20,7,1,-0.33,0.33,45,001,2024-12-03_11h15.18.724,Attention_exp_legacy,2023.1.0,Win32,60.24096386,calibration_square,,,,,,,,,,,,,,,,,,,,,,,,,,,,,,,,,,,,,,,,,,,,
,,,,,,,,,,,,,,,,,,,45,001,2024-12-03_11h15.18.724,Attention_exp_legacy,2023.1.0,Win32,60.24096386,,"[1920,1080]","[640,480]",[-0.004166666666666667],[-0.4981481481481482],[1],[0],[0],[2.050799999997018],"[""StartButton""]","[0.17604166666666668,0.13958333333333334]","[0.20925925925925926,0.17407407407407408]","[1,1]","[0,0]","[0,0]","[4.1237999999970185,5.737100000008944]","[""Option2_label""]",Option2_label,1,6.7442,"[[0.04583333333333333,-0.5333333333333333],[0.04583333333333333,-0.5333333333333333],[0.04583333333333333,-0.5333333333333333],[0.04583333333333333,-0.5333333333333333],[0.04583333333333333,-0.5333333333333333],[0.04583333333333333,-0.5333333333333333],[0.04583333333333333,-0.5333333333333333],[0.04583333333333333,-0.5333333333333333],[0.04583333333333333,-0.5333333333333333],[0.04583333333333333,-0.5333333333333333],[0.04583333333333333,-0.5333333333333333],[0.04583333333333333,-0.5333333333333333],[0.04583333333333333,-0.5333333333333333],[0.04583333333333333,-0.5333333333333333],[0.04583333333333333,-0.5333333333333333],[0.04583333333333333,-0.5333333333333333],[0.04583333333333333,-0.5333333333333333],[0.04583333333333333,-0.5333333333333333],[0.04583333333333333,-0.5333333333333333],[0.04583333333333333,-0.5333333333333333],[0.04583333333333333,-0.5333333333333333],[0.04583333333333333,-0.5333333333333333],[0.04583333333333333,-0.5333333333333333],[0.04583333333333333,-0.5333333333333333],[0.04583333333333333,-0.5333333333333333],[0.04583333333333333,-0.5333333333333333],[0.04583333333333333,-0.5333333333333333],[0.04583333333333333,-0.5333333333333333],[0.04583333333333333,-0.5333333333333333],[0.04583333333333333,-0.5333333333333333],[0.04583333333333333,-0.5333333333333333],[0.04583333333333333,-0.5333333333333333],[0.04583333333333333,-0.5333333333333333],[0.04583333333333333,-0.5333333333333333],[0.04583333333333333,-0.5333333333333333],[0.04583333333333333,-0.5333333333333333],[0.04583333333333333,-0.5333333333333333],[0.04583333333333333,-0.5333333333333333],[0.04583333333333333,-0.5333333333333333],[0.04583333333333333,-0.5333333333333333],[0.04583333333333333,-0.5333333333333333],[0.04583333333333333,-0.5333333333333333],[0.04583333333333333,-0.5333333333333333],[0.04583333333333333,-0.5333333333333333],[0.04583333333333333,-0.5333333333333333],[0.04583333333333333,-0.5333333333333333],[0.04583333333333333,-0.5333333333333333],[0.04583333333333333,-0.5333333333333333],[0.04583333333333333,-0.5333333333333333],[0.04583333333333333,-0.5333333333333333],[0.04583333333333333,-0.5333333333333333],[0.04583333333333333,-0.5333333333333333],[0.04583333333333333,-0.5333333333333333],[0.04583333333333333,-0.5333333333333333],[0.04583333333333333,-0.5333333333333333],[0.04583333333333333,-0.5333333333333333],[0.04583333333333333,-0.5333333333333333],[0.04583333333333333,-0.5333333333333333],[0.04583333333333333,-0.5333333333333333],[0.04479166666666667,-0.5333333333333333],[0.04479166666666667,-0.5333333333333333],[0.04375,-0.5296296296296297],[0.03958333333333333,-0.5203703703703704],[0.034375,-0.5111111111111111],[0.029166666666666667,-0.5018518518518519],[0.026041666666666668,-0.4962962962962963],[0.025,-0.4962962962962963],[0.025,-0.49444444444444446],[0.022916666666666665,-0.4925925925925926],[0.022916666666666665,-0.49074074074074076],[0.021875,-0.49074074074074076],[0.021875,-0.49074074074074076],[0.021875,-0.49074074074074076],[0.021875,-0.49074074074074076],[0.021875,-0.49074074074074076],[0.021875,-0.49074074074074076],[0.021875,-0.49074074074074076],[0.021875,-0.49074074074074076],[0.021875,-0.49074074074074076],[0.021875,-0.49074074074074076],[0.021875,-0.49074074074074076],[0.021875,-0.49074074074074076],[0.021875,-0.49074074074074076],[0.021875,-0.49074074074074076],[0.021875,-0.49074074074074076],[0.021875,-0.49074074074074076],[0.021875,-0.49074074074074076],[0.021875,-0.49074074074074076],[0.021875,-0.49074074074074076],[0.021875,-0.49074074074074076],[0.021875,-0.49074074074074076],[0.021875,-0.49074074074074076],[0.021875,-0.49074074074074076],[0.021875,-0.49074074074074076],[0.021875,-0.49074074074074076],[0.021875,-0.49074074074074076],[0.021875,-0.49074074074074076],[0.021875,-0.49074074074074076],[0.021875,-0.49074074074074076],[0.021875,-0.49074074074074076],[0.021875,-0.49074074074074076],[0.021875,-0.49074074074074076],[0.021875,-0.49074074074074076],[0.021875,-0.49074074074074076],[0.021875,-0.49074074074074076],[0.021875,-0.49074074074074076],[0.021875,-0.49074074074074076],[0.021875,-0.49074074074074076],[0.021875,-0.49074074074074076],[0.021875,-0.49074074074074076],[0.021875,-0.49074074074074076],[0.021875,-0.49074074074074076],[0.021875,-0.49074074074074076],[0.021875,-0.49074074074074076],[0.021875,-0.49074074074074076],[0.021875,-0.49074074074074076],[0.021875,-0.49074074074074076],[0.021875,-0.49074074074074076],[0.021875,-0.49074074074074076],[0.021875,-0.49074074074074076],[0.021875,-0.49074074074074076],[0.021875,-0.49074074074074076],[0.021875,-0.49074074074074076],[0.021875,-0.49074074074074076],[0.021875,-0.49074074074074076],[0.021875,-0.49074074074074076],[0.021875,-0.49074074074074076],[0.021875,-0.49074074074074076],[0.021875,-0.49074074074074076],[0.021875,-0.49074074074074076],[0.021875,-0.49074074074074076],[0.021875,-0.49074074074074076],[0.021875,-0.49074074074074076],[0.021875,-0.49074074074074076],[0.021875,-0.49074074074074076],[0.021875,-0.49074074074074076],[0.021875,-0.49074074074074076],[0.021875,-0.49074074074074076],[0.021875,-0.49074074074074076],[0.021875,-0.49074074074074076],[0.021875,-0.49074074074074076],[0.021875,-0.49074074074074076],[0.021875,-0.49074074074074076],[0.021875,-0.49074074074074076],[0.021875,-0.49074074074074076],[0.021875,-0.49074074074074076],[0.021875,-0.49074074074074076],[0.021875,-0.49074074074074076],[0.021875,-0.49074074074074076],[0.021875,-0.49074074074074076],[0.021875,-0.49074074074074076],[0.021875,-0.49074074074074076],[0.021875,-0.49074074074074076],[0.021875,-0.49074074074074076],[0.021875,-0.49074074074074076],[0.021875,-0.49074074074074076],[0.021875,-0.49074074074074076],[0.021875,-0.49074074074074076],[0.021875,-0.49074074074074076],[0.021875,-0.49074074074074076],[0.021875,-0.49074074074074076],[0.021875,-0.49074074074074076],[0.021875,-0.49074074074074076],[0.021875,-0.49074074074074076],[0.021875,-0.49074074074074076],[0.021875,-0.49074074074074076],[0.021875,-0.49074074074074076],[0.021875,-0.49074074074074076],[0.021875,-0.49074074074074076],[0.021875,-0.49074074074074076],[0.021875,-0.49074074074074076],[0.021875,-0.49074074074074076],[0.021875,-0.49074074074074076],[0.021875,-0.49074074074074076],[0.021875,-0.49074074074074076],[0.021875,-0.49074074074074076],[0.021875,-0.49074074074074076],[0.021875,-0.49074074074074076],[0.021875,-0.49074074074074076],[0.021875,-0.49074074074074076],[0.021875,-0.49074074074074076],[0.021875,-0.49074074074074076],[0.021875,-0.49074074074074076],[0.021875,-0.49074074074074076],[0.021875,-0.49074074074074076],[0.021875,-0.49074074074074076],[0.021875,-0.49074074074074076],[0.021875,-0.49074074074074076],[0.021875,-0.49074074074074076],[0.021875,-0.49074074074074076],[0.021875,-0.49074074074074076],[0.021875,-0.49074074074074076],[0.021875,-0.49074074074074076],[0.021875,-0.49074074074074076],[0.021875,-0.49074074074074076],[0.021875,-0.48703703703703705],[0.021875,-0.48148148148148145],[0.022916666666666665,-0.4759259259259259],[0.022916666666666665,-0.4722222222222222],[0.026041666666666668,-0.45555555555555555],[0.030208333333333334,-0.4388888888888889],[0.03229166666666667,-0.4185185185185185],[0.036458333333333336,-0.39444444444444443],[0.041666666666666664,-0.37222222222222223],[0.046875,-0.34629629629629627],[0.05416666666666667,-0.3148148148148148],[0.06041666666666667,-0.28888888888888886],[0.065625,-0.26296296296296295],[0.071875,-0.2388888888888889],[0.07604166666666666,-0.21666666666666667],[0.07708333333333334,-0.20555555555555555],[0.08125,-0.19074074074074074],[0.08645833333333333,-0.16666666666666666],[0.090625,-0.15],[0.09583333333333334,-0.12962962962962962],[0.096875,-0.11666666666666667],[0.09895833333333333,-0.1037037037037037],[0.10104166666666667,-0.08888888888888889],[0.10416666666666667,-0.07407407407407407],[0.10520833333333333,-0.06851851851851852],[0.10625,-0.05925925925925926],[0.10833333333333334,-0.05],[0.109375,-0.046296296296296294],[0.1125,-0.03888888888888889],[0.11979166666666667,-0.024074074074074074],[0.12916666666666668,-0.012962962962962963],[0.13645833333333332,-0.001851851851851852],[0.14375,0.012962962962962963],[0.14791666666666667,0.020370370370370372],[0.15208333333333332,0.03148148148148148],[0.15520833333333334,0.03888888888888889],[0.159375,0.05],[0.16145833333333334,0.06296296296296296],[0.165625,0.08148148148148149],[0.16770833333333332,0.08888888888888889],[0.16875,0.0962962962962963],[0.17083333333333334,0.10925925925925926],[0.171875,0.11851851851851852],[0.17291666666666666,0.12962962962962962],[0.17395833333333333,0.14814814814814814],[0.17604166666666668,0.16296296296296298],[0.17604166666666668,0.17407407407407408],[0.17604166666666668,0.18888888888888888],[0.17604166666666668,0.20185185185185187],[0.17604166666666668,0.20925925925925926],[0.17604166666666668,0.20925925925925926],[0.17604166666666668,0.20925925925925926],[0.17604166666666668,0.20925925925925926],[0.17604166666666668,0.20925925925925926],[0.17604166666666668,0.20925925925925926],[0.17604166666666668,0.20925925925925926],[0.17604166666666668,0.20925925925925926],[0.17604166666666668,0.20925925925925926],[0.17604166666666668,0.20925925925925926],[0.17604166666666668,0.20925925925925926],[0.17604166666666668,0.20925925925925926],[0.17604166666666668,0.20925925925925926],[0.17604166666666668,0.20925925925925926],[0.17604166666666668,0.20925925925925926],[0.17083333333333334,0.20555555555555555],[0.1625,0.2],[0.15625,0.19444444444444445],[0.14791666666666667,0.18333333333333332],[0.14166666666666666,0.17777777777777778],[0.13958333333333334,0.17592592592592593],[0.13958333333333334,0.17592592592592593],[0.13958333333333334,0.17592592592592593],[0.13958333333333334,0.17592592592592593],[0.13958333333333334,0.17592592592592593],[0.13958333333333334,0.17407407407407408],[0.13958333333333334,0.17407407407407408],[0.13958333333333334,0.17407407407407408],[0.13958333333333334,0.17407407407407408],[0.13958333333333334,0.17407407407407408],[0.13958333333333334,0.17407407407407408],[0.13958333333333334,0.17407407407407408],[0.13958333333333334,0.17407407407407408],[0.13958333333333334,0.17407407407407408],[0.13958333333333334,0.17407407407407408],[0.13958333333333334,0.17407407407407408],[0.13958333333333334,0.17407407407407408],[0.13958333333333334,0.17407407407407408],[0.13958333333333334,0.17407407407407408],[0.13958333333333334,0.17407407407407408],[0.13958333333333334,0.17407407407407408],[0.13958333333333334,0.17407407407407408],[0.13958333333333334,0.17407407407407408],[0.13958333333333334,0.17407407407407408],[0.13958333333333334,0.17407407407407408],[0.13958333333333334,0.17407407407407408],[0.13958333333333334,0.17407407407407408],[0.13958333333333334,0.17407407407407408],[0.13958333333333334,0.17407407407407408],[0.13958333333333334,0.17407407407407408],[0.13958333333333334,0.17407407407407408],[0.13958333333333334,0.17407407407407408],[0.13958333333333334,0.17407407407407408],[0.13958333333333334,0.17407407407407408],[0.13958333333333334,0.17407407407407408],[0.13958333333333334,0.17407407407407408],[0.13958333333333334,0.17407407407407408],[0.13958333333333334,0.17407407407407408],[0.13958333333333334,0.17407407407407408],[0.13958333333333334,0.17407407407407408],[0.13958333333333334,0.17407407407407408],[0.13958333333333334,0.17407407407407408],[0.13958333333333334,0.17407407407407408],[0.13958333333333334,0.17407407407407408],[0.13958333333333334,0.17407407407407408],[0.13958333333333334,0.17407407407407408],[0.13958333333333334,0.17407407407407408],[0.13958333333333334,0.17407407407407408],[0.13958333333333334,0.17407407407407408],[0.13958333333333334,0.17407407407407408],[0.13958333333333334,0.17407407407407408],[0.13958333333333334,0.17407407407407408],[0.13958333333333334,0.17407407407407408],[0.13958333333333334,0.17407407407407408],[0.13958333333333334,0.17407407407407408],[0.13958333333333334,0.17407407407407408],[0.13958333333333334,0.17407407407407408],[0.13958333333333334,0.17407407407407408],[0.13958333333333334,0.17407407407407408],[0.13958333333333334,0.17407407407407408],[0.13958333333333334,0.17407407407407408],[0.13958333333333334,0.17407407407407408],[0.13958333333333334,0.17407407407407408],[0.13958333333333334,0.17407407407407408],[0.13958333333333334,0.17407407407407408],[0.13958333333333334,0.17407407407407408],[0.13958333333333334,0.17407407407407408],[0.13958333333333334,0.17407407407407408],[0.13958333333333334,0.17407407407407408],[0.13958333333333334,0.17407407407407408],[0.13958333333333334,0.17407407407407408],[0.13958333333333334,0.17407407407407408],[0.13958333333333334,0.17407407407407408],[0.13958333333333334,0.17407407407407408],[0.13958333333333334,0.17407407407407408],[0.13958333333333334,0.17407407407407408],[0.13958333333333334,0.17407407407407408],[0.13958333333333334,0.17407407407407408],[0.13958333333333334,0.17407407407407408],[0.13958333333333334,0.17407407407407408],[0.13958333333333334,0.17407407407407408],[0.13958333333333334,0.17407407407407408],[0.13958333333333334,0.17407407407407408],[0.13958333333333334,0.17407407407407408],[0.13958333333333334,0.17407407407407408],[0.13958333333333334,0.17407407407407408],[0.13958333333333334,0.17407407407407408],[0.13958333333333334,0.17407407407407408],[0.13958333333333334,0.17407407407407408],[0.13958333333333334,0.17407407407407408],[0.13958333333333334,0.17407407407407408],[0.13958333333333334,0.17407407407407408],[0.13958333333333334,0.17407407407407408],[0.13958333333333334,0.17407407407407408],[0.13958333333333334,0.17407407407407408],[0.13958333333333334,0.17407407407407408],[0.13958333333333334,0.17407407407407408],[0.13958333333333334,0.17407407407407408],[0.13958333333333334,0.17407407407407408],[0.13854166666666667,0.17407407407407408],[0.13854166666666667,0.17407407407407408],[0.1375,0.17222222222222222],[0.13541666666666666,0.17037037037037037],[0.13333333333333333,0.1648148148148148],[0.12916666666666668,0.15555555555555556],[0.12708333333333333,0.14444444444444443],[0.125,0.13703703703703704],[0.12291666666666666,0.1259259259259259],[0.121875,0.11666666666666667],[0.11979166666666667,0.10555555555555556],[0.11979166666666667,0.09444444444444444],[0.11458333333333333,0.07777777777777778],[0.10729166666666666,0.05925925925925926],[0.09375,0.05185185185185185],[0.08541666666666667,0.044444444444444446],[0.08541666666666667,0.044444444444444446],[0.08541666666666667,0.044444444444444446],[0.08541666666666667,0.044444444444444446],[0.08541666666666667,0.044444444444444446],[0.08541666666666667,0.044444444444444446],[0.08541666666666667,0.044444444444444446],[0.08541666666666667,0.044444444444444446],[0.08541666666666667,0.044444444444444446],[0.08541666666666667,0.044444444444444446],[0.08541666666666667,0.044444444444444446],[0.08541666666666667,0.044444444444444446],[0.08541666666666667,0.044444444444444446],[0.08541666666666667,0.044444444444444446],[0.08541666666666667,0.044444444444444446],[0.08541666666666667,0.044444444444444446],[0.08541666666666667,0.044444444444444446],[0.08541666666666667,0.044444444444444446],[0.08541666666666667,0.044444444444444446],[0.08541666666666667,0.044444444444444446],[0.08541666666666667,0.044444444444444446],[0.08541666666666667,0.044444444444444446],[0.08541666666666667,0.044444444444444446],[0.08541666666666667,0.044444444444444446],[0.08541666666666667,0.044444444444444446],[0.08541666666666667,0.044444444444444446],[0.08541666666666667,0.044444444444444446]]","[[-0.011770833333333286,0.5003703703703705],[-0.011770833333333286,0.5003703703703705],[0.024583333333333356,0.5194444444444445],[0.053125,0.5562962962962963],[0.07229166666666677,0.5481481481481482],[0.06958333333333329,0.5253703703703705],[0.0984375,0.4985185185185186],[0.13760416666666658,0.5422222222222222],[0.1727083333333333,0.5822222222222222],[0.20322916666666657,0.6037037037037037],[0.21802083333333327,0.6240740740740741],[0.22999999999999995,0.6394444444444444],[0.24552083333333338,0.5935185185185186],[0.2509375000000001,0.5675925925925925],[0.27468750000000003,0.5933333333333333],[0.31375000000000003,0.6024074074074073],[0.3212500000000001,0.6155555555555555],[0.296875,0.5642592592592593],[0.2985416666666666,0.5185185185185185],[0.2897916666666667,0.4872222222222223],[0.2681250000000001,0.4655555555555555],[0.24927083333333327,0.44888888888888884],[0.23041666666666671,0.46407407407407414],[0.23041666666666671,0.46407407407407414],[0.22166666666666662,0.45925925925925926],[0.24479166666666666,0.40981481481481474],[0.22541666666666677,0.38574074074074066],[0.20604166666666662,0.3616666666666666],[0.22395833333333334,0.3640740740740741],[0.21989583333333323,0.3646296296296296],[0.19729166666666675,0.3979629629629629],[0.17468750000000005,0.43129629629629623],[0.15041666666666675,0.4111111111111111],[0.1146874999999999,0.3918518518518519],[0.06822916666666666,0.3962962962962963],[0.06822916666666666,0.3962962962962963],[0.025729166666666713,0.4300000000000001],[0.0296875,0.4551851851851851],[0.033645833333333285,0.48037037037037034],[-0.0002083333333333807,0.4596296296296297],[-0.034062500000000044,0.4388888888888889],[-0.03187500000000002,0.41796296296296304],[-0.0296875,0.397037037037037],[-0.005729166666666666,0.42111111111111105],[0.020624999999999952,0.4105555555555556],[0.036562500000000026,0.405925925925926],[0.016562499999999977,0.3803703703703703],[0.016562499999999977,0.3803703703703703],[-0.01416666666666669,0.3368518518518518],[-0.05770833333333331,0.28592592592592586],[-0.06677083333333336,0.3031481481481482],[-0.08937499999999995,0.32388888888888884],[-0.11083333333333331,0.3266666666666666],[-0.13229166666666667,0.32944444444444443],[-0.18125,0.347037037037037],[-0.23072916666666668,0.37833333333333324],[-0.2646875,0.3581481481481481],[-0.2985416666666667,0.3742592592592593],[-0.30802083333333335,0.3905555555555555],[-0.2748958333333333,0.40481481481481485],[-0.21968749999999998,0.3675925925925926],[-0.18875000000000006,0.36370370370370364],[-0.1751041666666667,0.34740740740740744],[-0.14968750000000006,0.33611111111111114],[-0.1094791666666667,0.34037037037037027],[-0.044375000000000026,0.3290740740740742],[-0.007708333333333309,0.3479629629629629],[0.04854166666666669,0.37296296296296294],[0.0696875000000001,0.38370370370370377],[0.06104166666666669,0.4038888888888889],[0.02041666666666669,0.45129629629629636],[0.02041666666666669,0.45129629629629636],[0.021145833333333287,0.44074074074074077],[0.049791666666666616,0.4212962962962963],[0.12999999999999995,0.4227777777777777],[0.20281250000000003,0.4024074074074073],[0.1868750000000001,0.3672222222222221],[0.20499999999999996,0.3237037037037036],[0.19697916666666657,0.2479629629629629],[0.19968750000000005,0.18629629629629635],[0.2283333333333334,0.1331481481481481],[0.2621875000000001,0.08499999999999996],[0.2639583333333334,0.09296296296296305],[0.2537499999999999,0.11962962962962967],[0.20739583333333325,0.1051851851851851],[0.16437499999999997,0.10203703703703708],[0.1857291666666666,0.11555555555555551],[0.18156249999999996,0.11796296296296305],[0.18395833333333325,0.14648148148148152],[0.21343750000000009,0.17314814814814813],[0.2169791666666666,0.19129629629629621],[0.1883333333333333,0.20888888888888882],[0.18822916666666673,0.19148148148148145],[0.21531250000000005,0.14592592592592585],[0.21531250000000005,0.14592592592592585],[0.1865624999999999,0.14981481481481476],[0.18041666666666673,0.13148148148148148],[0.18041666666666673,0.13148148148148148],[0.17020833333333343,0.12129629629629629],[0.1775000000000001,0.1227777777777777],[0.18791666666666676,0.125],[0.1712500000000001,0.12907407407407415],[0.146875,0.1301851851851851],[0.146875,0.1301851851851851],[0.1546875,0.13185185185185194],[0.1546875,0.13185185185185194],[0.1742708333333333,0.13111111111111104],[0.1423958333333334,0.17611111111111116],[0.16458333333333333,0.19814814814814816],[0.1571875000000001,0.26222222222222225],[0.12937500000000005,0.27759259259259256],[0.12895833333333329,0.2887037037037037],[0.09208333333333343,0.3031481481481482],[0.08802083333333334,0.32222222222222224],[0.09166666666666666,0.3442592592592592],[0.060104166666666715,0.3587037037037038],[0.016770833333333356,0.3755555555555555],[-0.002291666666666714,0.37481481481481477],[-0.044479166666666715,0.368888888888889],[-0.08302083333333338,0.33185185185185195],[-0.08802083333333334,0.32611111111111113],[-0.1123958333333333,0.32407407407407407],[-0.12364583333333339,0.30944444444444447],[-0.16770833333333332,0.29018518518518527],[-0.22760416666666666,0.275],[-0.21531250000000005,0.2455555555555556],[-0.2359375,0.25314814814814823],[-0.26062500000000005,0.2551851851851851],[-0.28458333333333335,0.2512962962962964],[-0.3085416666666667,0.24740740740740744],[-0.3302083333333333,0.2490740740740741],[-0.35187499999999994,0.2507407407407407],[-0.31906249999999997,0.27444444444444455],[-0.28062499999999996,0.277962962962963],[-0.184375,0.3020370370370371],[-0.18104166666666663,0.3116666666666666],[-0.14333333333333337,0.2803703703703703],[-0.08875000000000005,0.2683333333333333],[-0.024479166666666666,0.24240740740740738],[0.030624999999999975,0.24833333333333338],[0.0743750000000001,0.262037037037037],[0.11812500000000009,0.2757407407407407],[0.14562499999999995,0.2692592592592592],[0.16749999999999995,0.28296296296296286],[0.13697916666666668,0.2977777777777777],[0.16239583333333343,0.34888888888888886],[0.18958333333333333,0.4324074074074074],[0.2039583333333333,0.5022222222222223],[0.20031249999999995,0.5581481481481481],[0.19677083333333342,0.5824074074074074],[0.18802083333333333,0.5948148148148149],[0.19781250000000009,0.6162962962962962],[0.18854166666666666,0.6837037037037038],[0.16906249999999995,0.7712962962962963],[0.19083333333333338,0.8711111111111111],[0.19083333333333338,0.8711111111111111],[0.21572916666666658,0.9225925925925926],[0.23208333333333328,0.9544444444444447],[0.2484375,0.9862962962962961],[0.28489583333333335,1.0746296296296296],[0.3304166666666667,1.162777777777778],[0.36062500000000003,1.2092592592592593],[0.36729166666666657,1.261111111111111],[0.3664583333333333,1.2051851851851851],[0.3758333333333333,1.1290740740740741],[0.35437500000000005,1.015],[0.3117708333333333,0.9422222222222222],[0.27447916666666666,0.8605555555555556],[0.23010416666666675,0.7727777777777777],[0.1709374999999999,0.656111111111111],[0.11510416666666666,0.5322222222222222],[0.07979166666666657,0.45777777777777784],[0.009583333333333381,0.39814814814814814],[-0.025,0.3890740740740741],[-0.051041666666666666,0.36018518518518516],[-0.07312500000000005,0.3424074074074074],[-0.11499999999999998,0.35185185185185186],[-0.15687500000000001,0.36129629629629634],[-0.17406250000000004,0.3492592592592593],[-0.1851041666666667,0.3392592592592593],[-0.19947916666666668,0.33648148148148155],[-0.2578125,0.38259259259259265],[-0.24562499999999995,0.36370370370370364],[-0.27708333333333335,0.38629629629629636],[-0.28791666666666665,0.4074074074074074],[-0.30145833333333333,0.41222222222222227],[-0.2742708333333333,0.4035185185185185],[-0.2367708333333333,0.39944444444444455],[-0.21687500000000004,0.42296296296296293],[-0.203125,0.4444444444444444],[-0.2015625,0.4551851851851851],[-0.1560416666666666,0.4170370370370371],[-0.14343750000000005,0.41999999999999993],[-0.11427083333333338,0.39944444444444455],[-0.10437500000000005,0.4105555555555556],[-0.09572916666666664,0.42685185185185187],[-0.10125000000000005,0.40425925925925915],[-0.11156250000000002,0.36925925925925923],[-0.09510416666666661,0.3592592592592593],[-0.09052083333333331,0.3609259259259259],[-0.06385416666666661,0.3611111111111111],[-0.03718750000000005,0.36129629629629634],[-0.027083333333333334,0.33240740740740743],[-0.017916666666666713,0.319074074074074],[-0.0002083333333333807,0.30092592592592593],[0.016458333333333287,0.2881481481481482],[0.03999999999999997,0.3014814814814814],[0.06062500000000005,0.33425925925925926],[0.05447916666666662,0.34203703703703714],[0.06593749999999995,0.30166666666666664],[0.07718749999999991,0.272037037037037],[0.06864583333333343,0.2777777777777778],[0.08333333333333333,0.2857407407407407],[0.09895833333333333,0.27814814814814826],[0.09895833333333333,0.27814814814814826],[0.09833333333333343,0.2838888888888888],[0.09833333333333343,0.2838888888888888],[0.08541666666666667,0.25388888888888894],[0.07322916666666662,0.2272222222222223],[0.07322916666666662,0.2272222222222223],[0.05572916666666667,0.19499999999999992],[0.046875,0.16999999999999993],[0.046875,0.16999999999999993],[0.05625,0.17833333333333326],[0.05625,0.17833333333333326],[0.03864583333333336,0.16592592592592598],[0.053125,0.1227777777777777],[0.05249999999999998,0.0985185185185186],[0.051874999999999956,0.0742592592592593],[0.04031250000000005,0.026111111111111154],[0.03187500000000002,0.020740740740740823],[0.030208333333333334,0.022037037037036994],[0.03125,0.01722222222222214],[0.028125,0.00722222222222218],[-0.0014583333333333095,0],[0.012812499999999952,0.02296296296296292],[0.0009374999999999763,0.03722222222222227],[0.019583333333333286,0.04740740740740745],[0.0375,0.03425925925925926],[0.06499999999999997,0.030740740740740784],[0.09468750000000009,0.02370370370370362],[0.1462500000000001,-0.0001851851851852273],[0.1790625000000001,-0.001851851851851852],[0.2111458333333334,-0.02296296296296292],[0.2534374999999999,-0.07037037037037037],[0.2534374999999999,-0.07037037037037037],[0.2691666666666668,-0.1257407407407407],[0.30364583333333334,-0.167037037037037],[0.31833333333333325,-0.20166666666666663],[0.3337500000000001,-0.21296296296296297],[0.31239583333333343,-0.22000000000000003],[0.2990624999999999,-0.23592592592592587],[0.2638541666666666,-0.23333333333333334],[0.27708333333333335,-0.23870370370370367],[0.2690624999999999,-0.24203703703703702],[0.2553124999999999,-0.2081481481481481],[0.2415625000000001,-0.1742592592592593],[0.22354166666666658,-0.14500000000000002],[0.2055208333333333,-0.11574074074074074],[0.19697916666666657,-0.07999999999999997],[0.21531250000000005,-0.05388888888888893],[0.23937499999999995,-0.04462962962962967],[0.29541666666666655,-0.059999999999999956],[0.32177083333333345,-0.08962962962962959],[0.3193749999999999,-0.09000000000000004],[0.31489583333333326,-0.11259259259259262],[0.31302083333333336,-0.11777777777777781],[0.31052083333333325,-0.12833333333333335],[0.31520833333333326,-0.1359259259259259],[0.31260416666666657,-0.14148148148148143],[0.3264583333333334,-0.15129629629629626],[0.3228125000000001,-0.14814814814814814],[0.2679166666666667,-0.17166666666666663],[0.22645833333333343,-0.09833333333333337],[0.24500000000000005,-0.1014814814814815],[0.24500000000000005,-0.1014814814814815],[0.22177083333333342,-0.08074074074074078],[0.23947916666666677,-0.04611111111111107],[0.2384375000000001,-0.04981481481481477],[0.22489583333333343,-0.0690740740740741],[0.23385416666666667,-0.11074074074074076],[0.23208333333333328,-0.13203703703703706],[0.21520833333333325,-0.13870370370370366],[0.20947916666666658,-0.09870370370370372],[0.21302083333333333,-0.16407407407407412],[0.20281250000000003,-0.1668518518518519],[0.2234375,-0.1646296296296296],[0.2085416666666667,-0.2096296296296296],[0.19604166666666673,-0.2140740740740741],[0.18312499999999995,-0.207962962962963],[0.1568749999999999,-0.13777777777777775],[0.13395833333333323,-0.08296296296296299],[0.13406250000000006,-0.10166666666666663],[0.14854166666666657,-0.12685185185185185],[0.14614583333333328,-0.13111111111111112],[0.15114583333333323,-0.13796296296296295],[0.16864583333333344,-0.1588888888888889],[0.1788541666666667,-0.16407407407407412],[0.20354166666666676,-0.1735185185185185],[0.23395833333333324,-0.1809259259259259],[0.25750000000000006,-0.2338888888888889],[0.28104166666666663,-0.2868518518518518],[0.3025000000000001,-0.255],[0.3173958333333334,-0.22481481481481477],[0.32822916666666657,-0.2081481481481481],[0.32822916666666657,-0.19574074074074072],[0.3267708333333334,-0.18648148148148147],[0.3277083333333332,-0.1757407407407407],[0.3336458333333333,-0.17092592592592595],[0.33958333333333335,-0.1661111111111111],[0.3306250000000001,-0.17444444444444443],[0.3216666666666666,-0.18277777777777776],[0.33562500000000006,-0.20777777777777776],[0.3467708333333334,-0.22555555555555556],[0.34249999999999997,-0.2388888888888889],[0.3416666666666667,-0.24537037037037038],[0.34968750000000004,-0.25333333333333335],[0.3545833333333334,-0.2625925925925926],[0.35812499999999997,-0.27444444444444444],[0.3616666666666667,-0.2862962962962963],[0.36656250000000007,-0.2718518518518519],[0.3714583333333332,-0.2574074074074074],[0.35885416666666664,-0.24740740740740744],[0.3462500000000001,-0.23740740740740737],[0.3376041666666666,-0.2403703703703704],[0.3289583333333333,-0.2433333333333333],[0.3321875000000001,-0.23259259259259263],[0.3150000000000001,-0.21629629629629632],[0.2883333333333333,-0.18333333333333332],[0.27677083333333335,-0.1655555555555555],[0.2864583333333333,-0.1581481481481481],[0.2778125000000001,-0.13537037037037042],[0.2696875000000001,-0.11351851851851855],[0.2615624999999999,-0.09166666666666666],[0.2615624999999999,-0.09166666666666666],[0.28156249999999994,-0.07537037037037035],[0.28156249999999994,-0.07537037037037035],[0.31364583333333323,-0.07222222222222222],[0.31364583333333323,-0.07222222222222222],[0.31364583333333323,-0.07296296296296292],[0.32750000000000007,-0.07666666666666662],[0.3321875000000001,-0.09370370370370375],[0.3321875000000001,-0.09370370370370375],[0.34614583333333326,-0.09851851851851849],[0.34614583333333326,-0.09851851851851849],[0.3454166666666666,-0.0962962962962963],[0.35260416666666666,-0.12037037037037036],[0.3597916666666668,-0.14444444444444443],[0.3623958333333334,-0.1727777777777778],[0.35614583333333344,-0.17222222222222222],[0.33781249999999996,-0.15851851851851856],[0.3263541666666666,-0.16055555555555553],[0.33447916666666655,-0.15240740740740744],[0.33562500000000006,-0.14666666666666664],[0.31239583333333343,-0.13796296296296295],[0.2864583333333333,-0.12129629629629629],[0.2709374999999999,-0.09370370370370375],[0.25541666666666674,-0.06611111111111109],[0.26583333333333337,-0.051111111111111156],[0.26666666666666666,-0.04981481481481477],[0.25770833333333343,-0.015000000000000043],[0.25322916666666656,0.027222222222222307],[0.24385416666666657,0.03592592592592588],[0.25833333333333336,0.054259259259259174],[0.2530208333333334,0.06592592592592597],[0.2529166666666666,0.0551851851851851],[0.2608333333333334,0.029259259259259176],[0.2604166666666667,0.004259259259259175],[0.24604166666666671,0.011296296296296339],[0.23166666666666677,0.018333333333333292],[0.23427083333333343,-0.032037037037036954],[0.21708333333333343,-0.06259259259259262],[0.19177083333333325,-0.07240740740740745],[0.17708333333333334,-0.08388888888888892],[0.17437500000000009,-0.09222222222222225],[0.17760416666666667,-0.11296296296296296],[0.1728125000000001,-0.11851851851851852],[0.15354166666666677,-0.1014814814814815],[0.12687499999999996,-0.09962962962962965],[0.11760416666666676,-0.10111111111111115],[0.09979166666666663,-0.07111111111111107],[0.10447916666666662,-0.05759259259259263],[0.10416666666666667,-0.07407407407407407],[0.10916666666666662,-0.06666666666666667],[0.13583333333333342,-0.06370370370370367],[0.14322916666666666,-0.05018518518518523],[0.1400000000000001,-0.046296296296296294],[0.15958333333333338,-0.06592592592592597],[0.17697916666666677,-0.09703703703703699],[0.17697916666666677,-0.12481481481481477],[0.18822916666666673,-0.18129629629629626],[0.17572916666666671,-0.22685185185185186],[0.19270833333333334,-0.24537037037037038],[0.19375,-0.2861111111111111],[0.1765625,-0.3122222222222223],[0.1765625,-0.3122222222222223],[0.1727083333333333,-0.33648148148148144],[0.17145833333333324,-0.3109259259259259],[0.1787499999999999,-0.3127777777777777],[0.1898958333333333,-0.2959259259259259],[0.20104166666666667,-0.27907407407407403],[0.2439583333333334,-0.19703703703703698],[0.30791666666666656,-0.12925925925925927],[0.31760416666666674,-0.05425925925925928],[0.3272916666666667,0.020740740740740823]]","[[-0.011770833333333286,0.5003703703703705,0.00020000000298381337],[-0.011770833333333286,0.5003703703703705,0.036999999999999034],[0.024583333333333356,0.5194444444444445,0.0475999999940413],[0.053125,0.5562962962962963,0.0608999999910651],[0.07229166666666677,0.5481481481481482,0.07759999999404243],[0.06958333333333329,0.5253703703703705,0.09429999999701977],[0.0984375,0.4985185185185186,0.11089999999106226],[0.13760416666666658,0.5422222222222222,0.1275999999940396],[0.1727083333333333,0.5822222222222222,0.14429999999702403],[0.20322916666666657,0.6037037037037037,0.16089999999105942],[0.21802083333333327,0.6240740740740741,0.1777000000029858],[0.22999999999999995,0.6394444444444444,0.19420000000297932],[0.24552083333333338,0.5935185185185186,0.21089999999106368],[0.2509375000000001,0.5675925925925925,0.22749999999999915],[0.27468750000000003,0.5933333333333333,0.24429999999702545],[0.31375000000000003,0.6024074074074073,0.26089999999106084],[0.3212500000000001,0.6155555555555555,0.2775999999940453],[0.296875,0.5642592592592593,0.29420000000298074],[0.2985416666666666,0.5185185185185185,0.31099999999999994],[0.2897916666666667,0.4872222222222223,0.32759999999404243],[0.2681250000000001,0.4655555555555555,0.34429999999701977],[0.24927083333333327,0.44888888888888884,0.36089999999106226],[0.23041666666666671,0.46407407407407414,0.38020000000297927],[0.23041666666666671,0.46407407407407414,0.3975999999940427],[0.22166666666666662,0.45925925925925926,0.41409999999404334],[0.24479166666666666,0.40981481481481474,0.42759999999404386],[0.22541666666666677,0.38574074074074066,0.4442999999970212],[0.20604166666666662,0.3616666666666666,0.4608999999910637],[0.22395833333333334,0.3640740740740741,0.477599999994041],[0.21989583333333323,0.3646296296296296,0.4943999999910602],[0.19729166666666675,0.3979629629629629,0.5110000000000028],[0.17468750000000005,0.43129629629629623,0.5275999999940453],[0.15041666666666675,0.4111111111111111,0.5442000000029807],[0.1146874999999999,0.3918518518518519,0.5608999999910651],[0.06822916666666666,0.3962962962962963,0.581799999997024],[0.06822916666666666,0.3962962962962963,0.5943999999910616],[0.025729166666666713,0.4300000000000001,0.6110000000000042],[0.0296875,0.4551851851851851,0.6275999999940396],[0.033645833333333285,0.48037037037037034,0.644299999997024],[-0.0002083333333333807,0.4596296296296297,0.6610000000000014],[-0.034062500000000044,0.4388888888888889,0.6775999999940439],[-0.03187500000000002,0.41796296296296304,0.6975000000000051],[-0.0296875,0.397037037037037,0.7108999999910637],[-0.005729166666666666,0.42111111111111105,0.727599999994041],[0.020624999999999952,0.4105555555555556,0.7442999999970255],[0.036562500000000026,0.405925925925926,0.7610000000000028],[0.016562499999999977,0.3803703703703703,0.7775999999940453],[0.016562499999999977,0.3803703703703703,0.7943999999910645],[-0.01416666666666669,0.3368518518518518,0.8110999999940418],[-0.05770833333333331,0.28592592592592586,0.8305000000000007],[-0.06677083333333336,0.3031481481481482,0.8442999999970198],[-0.08937499999999995,0.32388888888888884,0.8610000000000042],[-0.11083333333333331,0.3266666666666666,0.8775999999940396],[-0.13229166666666667,0.32944444444444443,0.8942000000029822],[-0.18125,0.347037037037037,0.9108999999910594],[-0.23072916666666668,0.37833333333333324,0.9275999999940439],[-0.2646875,0.3581481481481481,0.9442999999970212],[-0.2985416666666667,0.3742592592592593,0.9608999999910637],[-0.30802083333333335,0.3905555555555555,0.977599999994041],[-0.2748958333333333,0.40481481481481485,0.9965999999940394],[-0.21968749999999998,0.3675925925925926,1.0108999999910608],[-0.18875000000000006,0.36370370370370364,1.0278999999910639],[-0.1751041666666667,0.34740740740740744,1.0443999999910645],[-0.14968750000000006,0.33611111111111114,1.0628999999910604],[-0.1094791666666667,0.34037037037037027,1.0777000000029844],[-0.044375000000000026,0.3290740740740742,1.0945999999940383],[-0.007708333333333309,0.3479629629629629,1.111099999994039],[0.04854166666666669,0.37296296296296294,1.130399999991063],[0.0696875000000001,0.38370370370370377,1.1443999999910588],[0.06104166666666669,0.4038888888888889,1.1612000000029852],[0.02041666666666669,0.45129629629629636,1.1777999999970206],[0.02041666666666669,0.45129629629629636,1.1942999999970212],[0.021145833333333287,0.44074074074074077,1.2110000000000056],[0.049791666666666616,0.4212962962962963,1.2312000000029855],[0.12999999999999995,0.4227777777777777,1.2447999999970207],[0.20281250000000003,0.4024074074074073,1.2608999999910608],[0.1868750000000001,0.3672222222222221,1.2775999999940453],[0.20499999999999996,0.3237037037037036,1.2942000000029807],[0.19697916666666657,0.2479629629629629,1.310899999991065],[0.19968750000000005,0.18629629629629635,1.3275999999940424],[0.2283333333333334,0.1331481481481481,1.3442999999970198],[0.2621875000000001,0.08499999999999996,1.3608999999910623],[0.2639583333333334,0.09296296296296305,1.3775999999940396],[0.2537499999999999,0.11962962962962967,1.394299999997024],[0.20739583333333325,0.1051851851851851,1.4108999999910594],[0.16437499999999997,0.10203703703703708,1.4275999999940439],[0.1857291666666666,0.11555555555555551,1.4442999999970212],[0.18156249999999996,0.11796296296296305,1.4608999999910637],[0.18395833333333325,0.14648148148148152,1.477599999994041],[0.21343750000000009,0.17314814814814813,1.4942999999970255],[0.2169791666666666,0.19129629629629621,1.5110000000000028],[0.1883333333333333,0.20888888888888882,1.5303999999910616],[0.18822916666666673,0.19148148148148145,1.5442000000029807],[0.21531250000000005,0.14592592592592585,1.560899999991065],[0.21531250000000005,0.14592592592592585,1.5777000000029844],[0.1865624999999999,0.14981481481481476,1.5943999999910616],[0.18041666666666673,0.13148148148148148,1.6108999999910623],[0.18041666666666673,0.13148148148148148,1.6275999999940396],[0.17020833333333343,0.12129629629629629,1.644299999997024],[0.1775000000000001,0.1227777777777777,1.663599999994041],[0.18791666666666676,0.125,1.6775999999940439],[0.1712500000000001,0.12907407407407415,1.6977000000029818],[0.146875,0.1301851851851851,1.7147999999970196],[0.146875,0.1301851851851851,1.727599999994041],[0.1546875,0.13185185185185194,1.7442000000029836],[0.1546875,0.13185185185185194,1.7608999999910608],[0.1742708333333333,0.13111111111111104,1.7775999999940453],[0.1423958333333334,0.17611111111111116,1.7973999999910646],[0.16458333333333333,0.19814814814814816,1.810899999991065],[0.1571875000000001,0.26222222222222225,1.8275000000000006],[0.12937500000000005,0.27759259259259256,1.844200000002985],[0.12895833333333329,0.2887037037037037,1.8610000000000042],[0.09208333333333343,0.3031481481481482,1.8775999999940396],[0.08802083333333334,0.32222222222222224,1.894299999997024],[0.09166666666666666,0.3442592592592592,1.9108999999910594],[0.060104166666666715,0.3587037037037038,1.927500000000002],[0.016770833333333356,0.3755555555555555,1.9442999999970212],[-0.002291666666666714,0.37481481481481477,1.9608999999910637],[-0.044479166666666715,0.368888888888889,1.9774999999999991],[-0.08302083333333338,0.33185185185185195,1.9975000000000023],[-0.08802083333333334,0.32611111111111113,2.01159999999404],[-0.1123958333333333,0.32407407407407407,2.0275999999940453],[-0.12364583333333339,0.30944444444444447,2.0442999999970226],[-0.16770833333333332,0.29018518518518527,2.060899999991065],[-0.22760416666666666,0.275,2.0775999999940424],[-0.21531250000000005,0.2455555555555556,2.094200000002985],[-0.2359375,0.25314814814814823,2.1107999999970204],[-0.26062500000000005,0.2551851851851851,2.127500000000005],[-0.28458333333333335,0.2512962962962964,2.144200000002982],[-0.3085416666666667,0.24740740740740744,2.1608999999910594],[-0.3302083333333333,0.2490740740740741,2.177500000000002],[-0.35187499999999994,0.2507407407407407,2.194399999991063],[-0.31906249999999997,0.27444444444444455,2.2110000000000056],[-0.28062499999999996,0.277962962962963,2.227499999999999],[-0.184375,0.3020370370370371,2.2442000000029836],[-0.18104166666666663,0.3116666666666666,2.260799999997019],[-0.14333333333333337,0.2803703703703703,2.2775000000000034],[-0.08875000000000005,0.2683333333333333,2.2942000000029807],[-0.024479166666666666,0.24240740740740738,2.3142999999970186],[0.030624999999999975,0.24833333333333338,2.3277000000029844],[0.0743750000000001,0.262037037037037,2.3442999999970198],[0.11812500000000009,0.2757407407407407,2.3608999999910623],[0.14562499999999995,0.2692592592592592,2.3775999999940396],[0.16749999999999995,0.28296296296296286,2.3977000000029847],[0.13697916666666668,0.2977777777777777,2.4110999999940432],[0.16239583333333343,0.34888888888888886,2.427500000000002],[0.18958333333333333,0.4324074074074074,2.4442000000029793],[0.2039583333333333,0.5022222222222223,2.4608999999910637],[0.20031249999999995,0.5581481481481481,2.477599999994041],[0.19677083333333342,0.5824074074074074,2.495399999991065],[0.18802083333333333,0.5948148148148149,2.510899999991061],[0.19781250000000009,0.6162962962962962,2.5275999999940453],[0.18854166666666666,0.6837037037037038,2.5442999999970226],[0.16906249999999995,0.7712962962962963,2.561],[0.19083333333333338,0.8711111111111111,2.5820000000000007],[0.19083333333333338,0.8711111111111111,2.5942999999970198],[0.21572916666666658,0.9225925925925926,2.611000000000004],[0.23208333333333328,0.9544444444444447,2.6275999999940396],[0.2484375,0.9862962962962961,2.644200000002982],[0.28489583333333335,1.0746296296296296,2.6608999999910594],[0.3304166666666667,1.162777777777778,2.677599999994044],[0.36062500000000003,1.2092592592592593,2.6942000000029793],[0.36729166666666657,1.261111111111111,2.7108999999910637],[0.3664583333333333,1.2051851851851851,2.727599999994041],[0.3758333333333333,1.1290740740740741,2.7442999999970255],[0.35437500000000005,1.015,2.760899999991061],[0.3117708333333333,0.9422222222222222,2.7775999999940453],[0.27447916666666666,0.8605555555555556,2.7944999999999993],[0.23010416666666675,0.7727777777777777,2.810899999991065],[0.1709374999999999,0.656111111111111,2.8275000000000006],[0.11510416666666666,0.5322222222222222,2.844200000002985],[0.07979166666666657,0.45777777777777784,2.8607999999970204],[0.009583333333333381,0.39814814814814814,2.877500000000005],[-0.025,0.3890740740740741,2.8977000000029847],[-0.051041666666666666,0.36018518518518516,2.912099999994041],[-0.07312500000000005,0.3424074074074074,2.927599999994044],[-0.11499999999999998,0.35185185185185186,2.9442000000029793],[-0.15687500000000001,0.36129629629629634,2.9608999999910637],[-0.17406250000000004,0.3492592592592593,2.977499999999999],[-0.1851041666666667,0.3392592592592593,2.9963999999910627],[-0.19947916666666668,0.33648148148148155,3.010899999991061],[-0.2578125,0.38259259259259265,3.0275000000000034],[-0.24562499999999995,0.36370370370370364,3.0467000000029856],[-0.27708333333333335,0.38629629629629636,3.060899999991065],[-0.28791666666666665,0.4074074074074074,3.0777000000029844],[-0.30145833333333333,0.41222222222222227,3.094200000002985],[-0.2742708333333333,0.4035185185185185,3.1108999999910623],[-0.2367708333333333,0.39944444444444455,3.127500000000005],[-0.21687500000000004,0.42296296296296293,3.144200000002982],[-0.203125,0.4444444444444444,3.1608999999910594],[-0.2015625,0.4551851851851851,3.177500000000002],[-0.1560416666666666,0.4170370370370371,3.1942000000029793],[-0.14343750000000005,0.41999999999999993,3.2108999999910637],[-0.11427083333333338,0.39944444444444455,3.227599999994041],[-0.10437500000000005,0.4105555555555556,3.2442000000029836],[-0.09572916666666664,0.42685185185185187,3.26309999999404],[-0.10125000000000005,0.40425925925925915,3.277799999997022],[-0.11156250000000002,0.36925925925925923,3.2957999999970227],[-0.09510416666666661,0.3592592592592593,3.3145000000000024],[-0.09052083333333331,0.3609259259259259,3.329299999997019],[-0.06385416666666661,0.3611111111111111,3.3443999999910616],[-0.03718750000000005,0.36129629629629634,3.361099999994039],[-0.027083333333333334,0.33240740740740743,3.381299999997019],[-0.017916666666666713,0.319074074074074,3.3970999999940403],[-0.0002083333333333807,0.30092592592592593,3.4110999999940432],[0.016458333333333287,0.2881481481481482,3.4302999999970254],[0.03999999999999997,0.3014814814814814,3.444399999991063],[0.06062500000000005,0.33425925925925926,3.4610999999940404],[0.05447916666666662,0.34203703703703714,3.4810999999940435],[0.06593749999999995,0.30166666666666664,3.497],[0.07718749999999991,0.272037037037037,3.5113999999910632],[0.06864583333333343,0.2777777777777778,3.530000000000001],[0.08333333333333333,0.2857407407407407,3.546899999991062],[0.09895833333333333,0.27814814814814826,3.5660999999940444],[0.09895833333333333,0.27814814814814826,3.5777000000029844],[0.09833333333333343,0.2838888888888888,3.5990000000000038],[0.09833333333333343,0.2838888888888888,3.611000000000004],[0.08541666666666667,0.25388888888888894,3.6277000000029815],[0.07322916666666662,0.2272222222222223,3.6507999999970195],[0.07322916666666662,0.2272222222222223,3.661200000002985],[0.05572916666666667,0.19499999999999992,3.6777999999970206],[0.046875,0.16999999999999993,3.6978999999910585],[0.046875,0.16999999999999993,3.7157000000029825],[0.05625,0.17833333333333326,3.7280000000000015],[0.05625,0.17833333333333326,3.7442999999970255],[0.03864583333333336,0.16592592592592598,3.7650999999940424],[0.053125,0.1227777777777777,3.779500000000006],[0.05249999999999998,0.0985185185185186,3.7960999999940412],[0.051874999999999956,0.0742592592592593,3.8145999999940443],[0.04031250000000005,0.026111111111111154,3.829299999997019],[0.03187500000000002,0.020740740740740823,3.8443999999910616],[0.030208333333333334,0.022037037037036994,3.861099999994039],[0.03125,0.01722222222222214,3.8808999999910583],[0.028125,0.00722222222222218,3.8962999999970194],[-0.0014583333333333095,0,3.9110000000000014],[0.012812499999999952,0.02296296296296292,3.9277999999970206],[0.0009374999999999763,0.03722222222222227,3.947500000000005],[0.019583333333333286,0.04740740740740745,3.963200000002985],[0.0375,0.03425925925925926,3.977799999997025],[0.06499999999999997,0.030740740740740784,3.9972000000029837],[0.09468750000000009,0.02370370370370362,4.0112000000029795],[0.1462500000000001,-0.0001851851851852273,4.02770000000298],[0.1790625000000001,-0.001851851851851852,4.0443999999910645],[0.2111458333333334,-0.02296296296296292,4.0635999999940395],[0.2534374999999999,-0.07037037037037037,4.081000000000003],[0.2534374999999999,-0.07037037037037037,4.098899999991062],[0.2691666666666668,-0.1257407407407407,4.116700000002986],[0.30364583333333334,-0.167037037037037,4.1307999999970235],[0.31833333333333325,-0.20166666666666663,4.144200000002982],[0.3337500000000001,-0.21296296296296297,4.160899999991059],[0.31239583333333343,-0.22000000000000003,4.177599999994044],[0.2990624999999999,-0.23592592592592587,4.197299999997021],[0.2638541666666666,-0.23333333333333334,4.213799999997022],[0.27708333333333335,-0.23870370370370367,4.227499999999999],[0.2690624999999999,-0.24203703703703702,4.244200000002984],[0.2553124999999999,-0.2081481481481481,4.260899999991061],[0.2415625000000001,-0.1742592592592593,4.277599999994045],[0.22354166666666658,-0.14500000000000002,4.294200000002981],[0.2055208333333333,-0.11574074074074074,4.311],[0.19697916666666657,-0.07999999999999997,4.3307000000029845],[0.21531250000000005,-0.05388888888888893,4.34429999999702],[0.23937499999999995,-0.04462962962962967,4.361200000002981],[0.29541666666666655,-0.059999999999999956,4.3777000000029815],[0.32177083333333345,-0.08962962962962959,4.396200000002985],[0.3193749999999999,-0.09000000000000004,4.411000000000001],[0.31489583333333326,-0.11259259259259262,4.427500000000002],[0.31302083333333336,-0.11777777777777781,4.444200000002979],[0.31052083333333325,-0.12833333333333335,4.460799999997022],[0.31520833333333326,-0.1359259259259259,4.477499999999999],[0.31260416666666657,-0.14148148148148143,4.498099999994039],[0.3264583333333334,-0.15129629629629626,4.511500000000005],[0.3228125000000001,-0.14814814814814814,4.527599999994045],[0.2679166666666667,-0.17166666666666663,4.544200000002981],[0.22645833333333343,-0.09833333333333337,4.560899999991065],[0.24500000000000005,-0.1014814814814815,4.577799999997019],[0.24500000000000005,-0.1014814814814815,4.59429999999702],[0.22177083333333342,-0.08074074074074078,4.611000000000004],[0.23947916666666677,-0.04611111111111107,4.627500000000005],[0.2384375000000001,-0.04981481481481477,4.644200000002982],[0.22489583333333343,-0.0690740740740741,4.660899999991059],[0.23385416666666667,-0.11074074074074076,4.677500000000002],[0.23208333333333328,-0.13203703703703706,4.697299999997021],[0.21520833333333325,-0.13870370370370366,4.710899999991064],[0.20947916666666658,-0.09870370370370372,4.727499999999999],[0.21302083333333333,-0.16407407407407412,4.744200000002984],[0.20281250000000003,-0.1668518518518519,4.760799999997019],[0.2234375,-0.1646296296296296,4.777500000000003],[0.2085416666666667,-0.2096296296296296,4.794200000002981],[0.19604166666666673,-0.2140740740740741,4.810899999991065],[0.18312499999999995,-0.207962962962963,4.827500000000001],[0.1568749999999999,-0.13777777777777775,4.844200000002985],[0.13395833333333323,-0.08296296296296299,4.86079999999702],[0.13406250000000006,-0.10166666666666663,4.877500000000005],[0.14854166666666657,-0.12685185185185185,4.894200000002982],[0.14614583333333328,-0.13111111111111112,4.910799999997025],[0.15114583333333323,-0.13796296296296295,4.927500000000002],[0.16864583333333344,-0.1588888888888889,4.944200000002979],[0.1788541666666667,-0.16407407407407412,4.960899999991064],[0.20354166666666676,-0.1735185185185185,4.977700000002983],[0.23395833333333324,-0.1809259259259259,4.99739999999106],[0.25750000000000006,-0.2338888888888889,5.010899999991061],[0.28104166666666663,-0.2868518518518518,5.027500000000003],[0.3025000000000001,-0.255,5.044299999997023],[0.3173958333333334,-0.22481481481481477,5.060799999997023],[0.32822916666666657,-0.2081481481481481,5.077500000000001],[0.32822916666666657,-0.19574074074074072,5.097099999994043],[0.3267708333333334,-0.18648148148148147,5.11079999999702],[0.3277083333333332,-0.1757407407407407,5.127500000000005],[0.3336458333333333,-0.17092592592592595,5.14409999999404],[0.33958333333333335,-0.1661111111111111,5.160899999991059],[0.3306250000000001,-0.17444444444444443,5.177500000000002],[0.3216666666666666,-0.18277777777777776,5.197399999991063],[0.33562500000000006,-0.20777777777777776,5.212399999991064],[0.3467708333333334,-0.22555555555555556,5.227499999999999],[0.34249999999999997,-0.2388888888888889,5.244200000002984],[0.3416666666666667,-0.24537037037037038,5.260799999997019],[0.34968750000000004,-0.25333333333333335,5.277500000000003],[0.3545833333333334,-0.2625925925925926,5.294200000002981],[0.35812499999999997,-0.27444444444444444,5.310799999997023],[0.3616666666666667,-0.2862962962962963,5.327500000000001],[0.36656250000000007,-0.2718518518518519,5.344200000002985],[0.3714583333333332,-0.2574074074074074,5.360899999991062],[0.35885416666666664,-0.24740740740740744,5.377500000000005],[0.3462500000000001,-0.23740740740740737,5.394200000002982],[0.3376041666666666,-0.2403703703703704,5.410899999991059],[0.3289583333333333,-0.2433333333333333,5.427500000000002],[0.3321875000000001,-0.23259259259259263,5.444200000002979],[0.3150000000000001,-0.21629629629629632,5.460799999997022],[0.2883333333333333,-0.18333333333333332,5.477499999999999],[0.27677083333333335,-0.1655555555555555,5.497],[0.2864583333333333,-0.1581481481481481,5.512500000000003],[0.2778125000000001,-0.13537037037037042,5.527599999994045],[0.2696875000000001,-0.11351851851851855,5.544099999994039],[0.2615624999999999,-0.09166666666666666,5.560799999997023],[0.2615624999999999,-0.09166666666666666,5.577500000000001],[0.28156249999999994,-0.07537037037037035,5.59470000000298],[0.28156249999999994,-0.07537037037037035,5.611000000000004],[0.31364583333333323,-0.07222222222222222,5.627500000000005],[0.31364583333333323,-0.07222222222222222,5.644200000002982],[0.31364583333333323,-0.07296296296296292,5.660899999991059],[0.32750000000000007,-0.07666666666666662,5.678000000000004],[0.3321875000000001,-0.09370370370370375,5.698599999994045],[0.3321875000000001,-0.09370370370370375,5.710799999997022],[0.34614583333333326,-0.09851851851851849,5.727499999999999],[0.34614583333333326,-0.09851851851851849,5.744099999994042],[0.3454166666666666,-0.0962962962962963,5.761000000000003],[0.35260416666666666,-0.12037037037037036,5.777500000000003],[0.3597916666666668,-0.14444444444444443,5.797200000002981],[0.3623958333333334,-0.1727777777777778,5.8135999999940395],[0.35614583333333344,-0.17222222222222222,5.827500000000001],[0.33781249999999996,-0.15851851851851856,5.844200000002985],[0.3263541666666666,-0.16055555555555553,5.86079999999702],[0.33447916666666655,-0.15240740740740744,5.87759999999404],[0.33562500000000006,-0.14666666666666664,5.897399999991059],[0.31239583333333343,-0.13796296296296295,5.910899999991059],[0.2864583333333333,-0.12129629629629629,5.927500000000002],[0.2709374999999999,-0.09370370370370375,5.944200000002979],[0.25541666666666674,-0.06611111111111109,5.960799999997022],[0.26583333333333337,-0.051111111111111156,5.977599999994041],[0.26666666666666666,-0.04981481481481477,5.9955],[0.25770833333333343,-0.015000000000000043,6.01420000000298],[0.25322916666666656,0.027222222222222307,6.028000000000006],[0.24385416666666657,0.03592592592592588,6.044200000002981],[0.25833333333333336,0.054259259259259174,6.064],[0.2530208333333334,0.06592592592592597,6.077500000000001],[0.2529166666666666,0.0551851851851851,6.097399999991062],[0.2608333333333334,0.029259259259259176,6.114799999997025],[0.2604166666666667,0.004259259259259175,6.129899999991061],[0.24604166666666671,0.011296296296296339,6.146099999994043],[0.23166666666666677,0.018333333333333292,6.161000000000001],[0.23427083333333343,-0.032037037037036954,6.180799999997021],[0.21708333333333343,-0.06259259259259262,6.195500000000003],[0.19177083333333325,-0.07240740740740745,6.21109999999404],[0.17708333333333334,-0.08388888888888892,6.2310999999940435],[0.17437500000000009,-0.09222222222222225,6.244500000000002],[0.17760416666666667,-0.11296296296296296,6.261000000000003],[0.1728125000000001,-0.11851851851851852,6.280200000002985],[0.15354166666666677,-0.1014814814814815,6.294599999994041],[0.12687499999999996,-0.09962962962962965,6.311099999994042],[0.11760416666666676,-0.10111111111111115,6.327399999991059],[0.09979166666666663,-0.07111111111111107,6.344099999994043],[0.10447916666666662,-0.05759259259259263,6.36079999999702],[0.10416666666666667,-0.07407407407407407,6.377399999991063],[0.10916666666666662,-0.06666666666666667,6.394200000002982],[0.13583333333333342,-0.06370370370370367,6.410799999997025],[0.14322916666666666,-0.05018518518518523,6.427500000000002],[0.1400000000000001,-0.046296296296296294,6.444200000002979],[0.15958333333333338,-0.06592592592592597,6.460799999997022],[0.17697916666666677,-0.09703703703703699,6.477499999999999],[0.17697916666666677,-0.12481481481481477,6.497500000000002],[0.18822916666666673,-0.18129629629629626,6.513000000000005],[0.17572916666666671,-0.22685185185185186,6.527500000000003],[0.19270833333333334,-0.24537037037037038,6.544099999994039],[0.19375,-0.2861111111111111,6.560899999991065],[0.1765625,-0.3122222222222223,6.577399999991059],[0.1765625,-0.3122222222222223,6.594200000002985],[0.1727083333333333,-0.33648148148148144,6.611000000000004],[0.17145833333333324,-0.3109259259259259,6.627500000000005],[0.1787499999999999,-0.3127777777777777,6.644299999997024],[0.1898958333333333,-0.2959259259259259,6.660799999997025],[0.20104166666666667,-0.27907407407407403,6.67739999999106],[0.2439583333333334,-0.19703703703703698,6.697500000000005],[0.30791666666666656,-0.12925925925925927,6.711000000000006],[0.31760416666666674,-0.05425925925925928,6.727399999991064],[0.3272916666666667,0.020740740740740823,6.744200000002984]]","[0.00020000000298381337,0.036999999999999034,0.0475999999940413,0.0608999999910651,0.07759999999404243,0.09429999999701977,0.11089999999106226,0.1275999999940396,0.14429999999702403,0.16089999999105942,0.1777000000029858,0.19420000000297932,0.21089999999106368,0.22749999999999915,0.24429999999702545,0.26089999999106084,0.2775999999940453,0.29420000000298074,0.31099999999999994,0.32759999999404243,0.34429999999701977,0.36089999999106226,0.38020000000297927,0.3975999999940427,0.41409999999404334,0.42759999999404386,0.4442999999970212,0.4608999999910637,0.477599999994041,0.4943999999910602,0.5110000000000028,0.5275999999940453,0.5442000000029807,0.5608999999910651,0.581799999997024,0.5943999999910616,0.6110000000000042,0.6275999999940396,0.644299999997024,0.6610000000000014,0.6775999999940439,0.6975000000000051,0.7108999999910637,0.727599999994041,0.7442999999970255,0.7610000000000028,0.7775999999940453,0.7943999999910645,0.8110999999940418,0.8305000000000007,0.8442999999970198,0.8610000000000042,0.8775999999940396,0.8942000000029822,0.9108999999910594,0.9275999999940439,0.9442999999970212,0.9608999999910637,0.977599999994041,0.9965999999940394,1.0108999999910608,1.0278999999910639,1.0443999999910645,1.0628999999910604,1.0777000000029844,1.0945999999940383,1.111099999994039,1.130399999991063,1.1443999999910588,1.1612000000029852,1.1777999999970206,1.1942999999970212,1.2110000000000056,1.2312000000029855,1.2447999999970207,1.2608999999910608,1.2775999999940453,1.2942000000029807,1.310899999991065,1.3275999999940424,1.3442999999970198,1.3608999999910623,1.3775999999940396,1.394299999997024,1.4108999999910594,1.4275999999940439,1.4442999999970212,1.4608999999910637,1.477599999994041,1.4942999999970255,1.5110000000000028,1.5303999999910616,1.5442000000029807,1.560899999991065,1.5777000000029844,1.5943999999910616,1.6108999999910623,1.6275999999940396,1.644299999997024,1.663599999994041,1.6775999999940439,1.6977000000029818,1.7147999999970196,1.727599999994041,1.7442000000029836,1.7608999999910608,1.7775999999940453,1.7973999999910646,1.810899999991065,1.8275000000000006,1.844200000002985,1.8610000000000042,1.8775999999940396,1.894299999997024,1.9108999999910594,1.927500000000002,1.9442999999970212,1.9608999999910637,1.9774999999999991,1.9975000000000023,2.01159999999404,2.0275999999940453,2.0442999999970226,2.060899999991065,2.0775999999940424,2.094200000002985,2.1107999999970204,2.127500000000005,2.144200000002982,2.1608999999910594,2.177500000000002,2.194399999991063,2.2110000000000056,2.227499999999999,2.2442000000029836,2.260799999997019,2.2775000000000034,2.2942000000029807,2.3142999999970186,2.3277000000029844,2.3442999999970198,2.3608999999910623,2.3775999999940396,2.3977000000029847,2.4110999999940432,2.427500000000002,2.4442000000029793,2.4608999999910637,2.477599999994041,2.495399999991065,2.510899999991061,2.5275999999940453,2.5442999999970226,2.561,2.5820000000000007,2.5942999999970198,2.611000000000004,2.6275999999940396,2.644200000002982,2.6608999999910594,2.677599999994044,2.6942000000029793,2.7108999999910637,2.727599999994041,2.7442999999970255,2.760899999991061,2.7775999999940453,2.7944999999999993,2.810899999991065,2.8275000000000006,2.844200000002985,2.8607999999970204,2.877500000000005,2.8977000000029847,2.912099999994041,2.927599999994044,2.9442000000029793,2.9608999999910637,2.977499999999999,2.9963999999910627,3.010899999991061,3.0275000000000034,3.0467000000029856,3.060899999991065,3.0777000000029844,3.094200000002985,3.1108999999910623,3.127500000000005,3.144200000002982,3.1608999999910594,3.177500000000002,3.1942000000029793,3.2108999999910637,3.227599999994041,3.2442000000029836,3.26309999999404,3.277799999997022,3.2957999999970227,3.3145000000000024,3.329299999997019,3.3443999999910616,3.361099999994039,3.381299999997019,3.3970999999940403,3.4110999999940432,3.4302999999970254,3.444399999991063,3.4610999999940404,3.4810999999940435,3.497,3.5113999999910632,3.530000000000001,3.546899999991062,3.5660999999940444,3.5777000000029844,3.5990000000000038,3.611000000000004,3.6277000000029815,3.6507999999970195,3.661200000002985,3.6777999999970206,3.6978999999910585,3.7157000000029825,3.7280000000000015,3.7442999999970255,3.7650999999940424,3.779500000000006,3.7960999999940412,3.8145999999940443,3.829299999997019,3.8443999999910616,3.861099999994039,3.8808999999910583,3.8962999999970194,3.9110000000000014,3.9277999999970206,3.947500000000005,3.963200000002985,3.977799999997025,3.9972000000029837,4.0112000000029795,4.02770000000298,4.0443999999910645,4.0635999999940395,4.081000000000003,4.098899999991062,4.116700000002986,4.1307999999970235,4.144200000002982,4.160899999991059,4.177599999994044,4.197299999997021,4.213799999997022,4.227499999999999,4.244200000002984,4.260899999991061,4.277599999994045,4.294200000002981,4.311,4.3307000000029845,4.34429999999702,4.361200000002981,4.3777000000029815,4.396200000002985,4.411000000000001,4.427500000000002,4.444200000002979,4.460799999997022,4.477499999999999,4.498099999994039,4.511500000000005,4.527599999994045,4.544200000002981,4.560899999991065,4.577799999997019,4.59429999999702,4.611000000000004,4.627500000000005,4.644200000002982,4.660899999991059,4.677500000000002,4.697299999997021,4.710899999991064,4.727499999999999,4.744200000002984,4.760799999997019,4.777500000000003,4.794200000002981,4.810899999991065,4.827500000000001,4.844200000002985,4.86079999999702,4.877500000000005,4.894200000002982,4.910799999997025,4.927500000000002,4.944200000002979,4.960899999991064,4.977700000002983,4.99739999999106,5.010899999991061,5.027500000000003,5.044299999997023,5.060799999997023,5.077500000000001,5.097099999994043,5.11079999999702,5.127500000000005,5.14409999999404,5.160899999991059,5.177500000000002,5.197399999991063,5.212399999991064,5.227499999999999,5.244200000002984,5.260799999997019,5.277500000000003,5.294200000002981,5.310799999997023,5.327500000000001,5.344200000002985,5.360899999991062,5.377500000000005,5.394200000002982,5.410899999991059,5.427500000000002,5.444200000002979,5.460799999997022,5.477499999999999,5.497,5.512500000000003,5.527599999994045,5.544099999994039,5.560799999997023,5.577500000000001,5.59470000000298,5.611000000000004,5.627500000000005,5.644200000002982,5.660899999991059,5.678000000000004,5.698599999994045,5.710799999997022,5.727499999999999,5.744099999994042,5.761000000000003,5.777500000000003,5.797200000002981,5.8135999999940395,5.827500000000001,5.844200000002985,5.86079999999702,5.87759999999404,5.897399999991059,5.910899999991059,5.927500000000002,5.944200000002979,5.960799999997022,5.977599999994041,5.9955,6.01420000000298,6.028000000000006,6.044200000002981,6.064,6.077500000000001,6.097399999991062,6.114799999997025,6.129899999991061,6.146099999994043,6.161000000000001,6.180799999997021,6.195500000000003,6.21109999999404,6.2310999999940435,6.244500000000002,6.261000000000003,6.280200000002985,6.294599999994041,6.311099999994042,6.327399999991059,6.344099999994043,6.36079999999702,6.377399999991063,6.394200000002982,6.410799999997025,6.427500000000002,6.444200000002979,6.460799999997022,6.477499999999999,6.497500000000002,6.513000000000005,6.527500000000003,6.544099999994039,6.560899999991065,6.577399999991059,6.594200000002985,6.611000000000004,6.627500000000005,6.644299999997024,6.660799999997025,6.67739999999106,6.697500000000005,6.711000000000006,6.727399999991064,6.744200000002984]","[1733195757482,1733195757512,1733195757522,1733195757535,1733195757552,1733195757569,1733195757585,1733195757602,1733195757619,1733195757635,1733195757652,1733195757669,1733195757685,1733195757702,1733195757719,1733195757735,1733195757752,1733195757769,1733195757786,1733195757802,1733195757819,1733195757835,1733195757855,1733195757872,1733195757889,1733195757902,1733195757919,1733195757935,1733195757952,1733195757969,1733195757985,1733195758002,1733195758019,1733195758035,1733195758056,1733195758069,1733195758086,1733195758102,1733195758119,1733195758136,1733195758152,1733195758172,1733195758185,1733195758202,1733195758219,1733195758235,1733195758252,1733195758269,1733195758286,1733195758305,1733195758319,1733195758335,1733195758352,1733195758369,1733195758385,1733195758402,1733195758419,1733195758435,1733195758452,1733195758471,1733195758485,1733195758502,1733195758519,1733195758538,1733195758552,1733195758569,1733195758586,1733195758605,1733195758619,1733195758636,1733195758652,1733195758669,1733195758685,1733195758706,1733195758719,1733195758735,1733195758752,1733195758769,1733195758785,1733195758802,1733195758819,1733195758835,1733195758852,1733195758869,1733195758885,1733195758902,1733195758919,1733195758935,1733195758952,1733195758969,1733195758986,1733195759005,1733195759019,1733195759035,1733195759052,1733195759069,1733195759085,1733195759102,1733195759119,1733195759138,1733195759152,1733195759172,1733195759189,1733195759202,1733195759219,1733195759235,1733195759252,1733195759272,1733195759285,1733195759302,1733195759319,1733195759336,1733195759352,1733195759369,1733195759385,1733195759402,1733195759419,1733195759435,1733195759452,1733195759472,1733195759486,1733195759502,1733195759519,1733195759535,1733195759552,1733195759569,1733195759585,1733195759602,1733195759619,1733195759635,1733195759652,1733195759669,1733195759686,1733195759702,1733195759719,1733195759735,1733195759752,1733195759769,1733195759789,1733195759802,1733195759819,1733195759835,1733195759852,1733195759872,1733195759886,1733195759902,1733195759919,1733195759935,1733195759952,1733195759970,1733195759985,1733195760002,1733195760019,1733195760035,1733195760057,1733195760069,1733195760085,1733195760102,1733195760119,1733195760135,1733195760152,1733195760169,1733195760185,1733195760202,1733195760219,1733195760235,1733195760252,1733195760269,1733195760285,1733195760302,1733195760319,1733195760335,1733195760352,1733195760372,1733195760387,1733195760402,1733195760419,1733195760435,1733195760452,1733195760471,1733195760485,1733195760502,1733195760521,1733195760535,1733195760552,1733195760569,1733195760585,1733195760602,1733195760619,1733195760635,1733195760652,1733195760669,1733195760685,1733195760702,1733195760719,1733195760738,1733195760752,1733195760770,1733195760789,1733195760804,1733195760819,1733195760836,1733195760856,1733195760872,1733195760886,1733195760905,1733195760919,1733195760936,1733195760956,1733195760972,1733195760986,1733195761005,1733195761021,1733195761041,1733195761052,1733195761074,1733195761086,1733195761102,1733195761125,1733195761136,1733195761152,1733195761172,1733195761190,1733195761203,1733195761219,1733195761240,1733195761254,1733195761271,1733195761289,1733195761304,1733195761319,1733195761336,1733195761355,1733195761371,1733195761386,1733195761402,1733195761422,1733195761438,1733195761452,1733195761472,1733195761486,1733195761502,1733195761519,1733195761538,1733195761555,1733195761573,1733195761591,1733195761605,1733195761619,1733195761635,1733195761652,1733195761672,1733195761688,1733195761702,1733195761719,1733195761735,1733195761752,1733195761769,1733195761786,1733195761805,1733195761819,1733195761836,1733195761852,1733195761871,1733195761886,1733195761902,1733195761919,1733195761935,1733195761952,1733195761973,1733195761986,1733195762002,1733195762019,1733195762035,1733195762053,1733195762070,1733195762087,1733195762103,1733195762120,1733195762136,1733195762153,1733195762173,1733195762186,1733195762203,1733195762220,1733195762236,1733195762253,1733195762270,1733195762287,1733195762303,1733195762320,1733195762336,1733195762353,1733195762370,1733195762386,1733195762403,1733195762420,1733195762436,1733195762453,1733195762473,1733195762486,1733195762503,1733195762520,1733195762536,1733195762553,1733195762573,1733195762586,1733195762603,1733195762620,1733195762637,1733195762653,1733195762673,1733195762688,1733195762703,1733195762720,1733195762736,1733195762753,1733195762770,1733195762786,1733195762803,1733195762820,1733195762836,1733195762853,1733195762870,1733195762886,1733195762903,1733195762920,1733195762936,1733195762953,1733195762973,1733195762988,1733195763003,1733195763020,1733195763036,1733195763053,1733195763070,1733195763087,1733195763103,1733195763120,1733195763136,1733195763154,1733195763174,1733195763186,1733195763203,1733195763220,1733195763237,1733195763253,1733195763273,1733195763289,1733195763303,1733195763320,1733195763336,1733195763353,1733195763373,1733195763386,1733195763403,1733195763420,1733195763436,1733195763453,1733195763471,1733195763490,1733195763504,1733195763520,1733195763540,1733195763553,1733195763573,1733195763590,1733195763605,1733195763622,1733195763637,1733195763656,1733195763671,1733195763687,1733195763707,1733195763720,1733195763737,1733195763756,1733195763770,1733195763787,1733195763803,1733195763820,1733195763836,1733195763853,1733195763870,1733195763886,1733195763903,1733195763920,1733195763936,1733195763953,1733195763973,1733195763989,1733195764003,1733195764020,1733195764037,1733195764053,1733195764070,1733195764087,1733195764103,1733195764120,1733195764136,1733195764153,1733195764173,1733195764187,1733195764203,1733195764220]","[[948.7,810.2],[948.7,810.2],[983.6,820.5],[1011,840.4],[1029.4,836],[1026.8,823.7],[1054.5,809.2],[1092.1,832.8],[1125.8,854.4],[1155.1,866],[1169.3,877],[1180.8,885.3],[1195.7,860.5],[1200.9,846.5],[1223.7,860.4],[1261.2,865.3],[1268.4,872.4],[1245,844.7],[1246.6,820],[1238.2,803.1],[1217.4,791.4],[1199.3,782.4],[1181.2,790.6],[1181.2,790.6],[1172.8,788],[1195,761.3],[1176.4,748.3],[1157.8,735.3],[1175,736.6],[1171.1,736.9],[1149.4,754.9],[1127.7,772.9],[1104.4,762],[1070.1,751.6],[1025.5,754],[1025.5,754],[984.7,772.2],[988.5,785.8],[992.3,799.4],[959.8,788.2],[927.3,777],[929.4,765.7],[931.5,754.4],[954.5,767.4],[979.8,761.7],[995.1,759.2],[975.9,745.4],[975.9,745.4],[946.4,721.9],[904.6,694.4],[895.9,703.7],[874.2,714.9],[853.6,716.4],[833,717.9],[786,727.4],[738.5,744.3],[705.9,733.4],[673.4,742.1],[664.3,750.9],[696.1,758.6],[749.1,738.5],[778.8,736.4],[791.9,727.6],[816.3,721.5],[854.9,723.8],[917.4,717.7],[952.6,727.9],[1006.6,741.4],[1026.9,747.2],[1018.6,758.1],[979.6,783.7],[979.6,783.7],[980.3,778],[1007.8,767.5],[1084.8,768.3],[1154.7,757.3],[1139.4,738.3],[1156.8,714.8],[1149.1,673.9],[1151.7,640.6],[1179.2,611.9],[1211.7,585.9],[1213.4,590.2],[1203.6,604.6],[1159.1,596.8],[1117.8,595.1],[1138.3,602.4],[1134.3,603.7],[1136.6,619.1],[1164.9,633.5],[1168.3,643.3],[1140.8,652.8],[1140.7,643.4],[1166.7,618.8],[1166.7,618.8],[1139.1,620.9],[1133.2,611],[1133.2,611],[1123.4,605.5],[1130.4,606.3],[1140.4,607.5],[1124.4,609.7],[1101,610.3],[1101,610.3],[1108.5,611.2],[1108.5,611.2],[1127.3,610.8],[1096.7,635.1],[1118,647],[1110.9,681.6],[1084.2,689.9],[1083.8,695.9],[1048.4,703.7],[1044.5,714],[1048,725.9],[1017.7,733.7],[976.1,742.8],[957.8,742.4],[917.3,739.2],[880.3,719.2],[875.5,716.1],[852.1,715],[841.3,707.1],[799,696.7],[741.5,688.5],[753.3,672.6],[733.5,676.7],[709.8,677.8],[686.8,675.7],[663.8,673.6],[643,674.5],[622.2,675.4],[653.7,688.2],[690.6,690.1],[783,703.1],[786.2,708.3],[822.4,691.4],[874.8,684.9],[936.5,670.9],[989.4,674.1],[1031.4,681.5],[1073.4,688.9],[1099.8,685.4],[1120.8,692.8],[1091.5,700.8],[1115.9,728.4],[1142,773.5],[1155.8,811.2],[1152.3,841.4],[1148.9,854.5],[1140.5,861.2],[1149.9,872.8],[1141,909.2],[1122.3,956.5],[1143.2,1010.4],[1143.2,1010.4],[1167.1,1038.2],[1182.8,1055.4],[1198.5,1072.6],[1233.5,1120.3],[1277.2,1167.9],[1306.2,1193],[1312.6,1221],[1311.8,1190.8],[1320.8,1149.7],[1300.2,1088.1],[1259.3,1048.8],[1223.5,1004.7],[1180.9,957.3],[1124.1,894.3],[1070.5,827.4],[1036.6,787.2],[969.2,755],[936,750.1],[911,734.5],[889.8,724.9],[849.6,730],[809.4,735.1],[792.9,728.6],[782.3,723.2],[768.5,721.7],[712.5,746.6],[724.2,736.4],[694,748.6],[683.6,760],[670.6,762.6],[696.7,757.9],[732.7,755.7],[751.8,768.4],[765,780],[766.5,785.8],[810.2,765.2],[822.3,766.8],[850.3,755.7],[859.8,761.7],[868.1,770.5],[862.8,758.3],[852.9,739.4],[868.7,734],[873.1,734.9],[898.7,735],[924.3,735.1],[934,719.5],[942.8,712.3],[959.8,702.5],[975.8,695.6],[998.4,702.8],[1018.2,720.5],[1012.3,724.7],[1023.3,702.9],[1034.1,686.9],[1025.9,690],[1040,694.3],[1055,690.2],[1055,690.2],[1054.4,693.3],[1054.4,693.3],[1042,677.1],[1030.3,662.7],[1030.3,662.7],[1013.5,645.3],[1005,631.8],[1005,631.8],[1014,636.3],[1014,636.3],[997.1,629.6],[1011,606.3],[1010.4,593.2],[1009.8,580.1],[998.7,554.1],[990.6,551.2],[989,551.9],[990,549.3],[987,543.9],[958.6,540],[972.3,552.4],[960.9,560.1],[978.8,565.6],[996,558.5],[1022.4,556.6],[1050.9,552.8],[1100.4,539.9],[1131.9,539],[1162.7,527.6],[1203.3,502],[1203.3,502],[1218.4,472.1],[1251.5,449.8],[1265.6,431.1],[1280.4,425],[1259.9,421.2],[1247.1,412.6],[1213.3,414],[1226,411.1],[1218.3,409.3],[1205.1,427.6],[1191.9,445.9],[1174.6,461.7],[1157.3,477.5],[1149.1,496.8],[1166.7,510.9],[1189.8,515.9],[1243.6,507.6],[1268.9,491.6],[1266.6,491.4],[1262.3,479.2],[1260.5,476.4],[1258.1,470.7],[1262.6,466.6],[1260.1,463.6],[1273.4,458.3],[1269.9,460],[1217.2,447.3],[1177.4,486.9],[1195.2,485.2],[1195.2,485.2],[1172.9,496.4],[1189.9,515.1],[1188.9,513.1],[1175.9,502.7],[1184.5,480.2],[1182.8,468.7],[1166.6,465.1],[1161.1,486.7],[1164.5,451.4],[1154.7,449.9],[1174.5,451.1],[1160.2,426.8],[1148.2,424.4],[1135.8,427.7],[1110.6,465.6],[1088.6,495.2],[1088.7,485.1],[1102.6,471.5],[1100.3,469.2],[1105.1,465.5],[1121.9,454.2],[1131.7,451.4],[1155.4,446.3],[1184.6,442.3],[1207.2,413.7],[1229.8,385.1],[1250.4,402.3],[1264.7,418.6],[1275.1,427.6],[1275.1,434.3],[1273.7,439.3],[1274.6,445.1],[1280.3,447.7],[1286,450.3],[1277.4,445.8],[1268.8,441.3],[1282.2,427.8],[1292.9,418.2],[1288.8,411],[1288,407.5],[1295.7,403.2],[1300.4,398.2],[1303.8,391.8],[1307.2,385.4],[1311.9,393.2],[1316.6,401],[1304.5,406.4],[1292.4,411.8],[1284.1,410.2],[1275.8,408.6],[1278.9,414.4],[1262.4,423.2],[1236.8,441],[1225.7,450.6],[1235,454.6],[1226.7,466.9],[1218.9,478.7],[1211.1,490.5],[1211.1,490.5],[1230.3,499.3],[1230.3,499.3],[1261.1,501],[1261.1,501],[1261.1,500.6],[1274.4,498.6],[1278.9,489.4],[1278.9,489.4],[1292.3,486.8],[1292.3,486.8],[1291.6,488],[1298.5,475],[1305.4,462],[1307.9,446.7],[1301.9,447],[1284.3,454.4],[1273.3,453.3],[1281.1,457.7],[1282.2,460.8],[1259.9,465.5],[1235,474.5],[1220.1,489.4],[1205.2,504.3],[1215.2,512.4],[1216,513.1],[1207.4,531.9],[1203.1,554.7],[1194.1,559.4],[1208,569.3],[1202.9,575.6],[1202.8,569.8],[1210.4,555.8],[1210,542.3],[1196.2,546.1],[1182.4,549.9],[1184.9,522.7],[1168.4,506.2],[1144.1,500.9],[1130,494.7],[1127.4,490.2],[1130.5,479],[1125.9,476],[1107.4,485.2],[1081.8,486.2],[1072.9,485.4],[1055.8,501.6],[1060.3,508.9],[1060,500],[1064.8,504],[1090.4,505.6],[1097.5,512.9],[1094.4,515],[1113.2,504.4],[1129.9,487.6],[1129.9,472.6],[1140.7,442.1],[1128.7,417.5],[1145,407.5],[1146,385.5],[1129.5,371.4],[1129.5,371.4],[1125.8,358.3],[1124.6,372.1],[1131.6,371.1],[1142.3,380.2],[1153,389.3],[1194.2,433.6],[1255.6,470.2],[1264.9,510.7],[1274.2,551.2]]","[0,0.151169218]","[0.151169218,0.151169218]","[-0.151169218,0]","[-0.151169218,-0.151169218]","[0,0]","[0.151169218,0]","[0,-0.151169218]","[0.151169218,-0.151169218]",0,0,0,0,1,4,Smartphone,11,5,13,9
