inst1_resp.keys,inst1_resp.rt,calibrationMouse.x,calibrationMouse.y,calibrationMouse.leftButton,calibrationMouse.midButton,calibrationMouse.rightButton,calibrationClick.x,calibrationClick.y,calibrationClick.leftButton,calibrationClick.midButton,calibrationClick.rightButton,trialsc.thisRepN,trialsc.thisTrialN,trialsc.thisN,trialsc.thisIndex,trialsc.ran,calibration_x,calibration_y,participant,session,date,expName,psychopyVersion,OS,frameRate,calibrationClick.clicked_name,ScreenRes_pixels,Camera_pixels,mouse_2.x,mouse_2.y,mouse_2.leftButton,mouse_2.midButton,mouse_2.rightButton,mouse_2.time,mouse_2.clicked_name,mouse.x,mouse.y,mouse.leftButton,mouse.midButton,mouse.rightButton,mouse.time,mouse.clicked_name,Choice,Trial,TrialDuration,MOUSE_GAZE,ET_GAZE,ET_GAZE_x_T,time,unixTime,ET_GAZE_NF,Loc_Option1_label,Loc_Option2_label,Loc_Cost_label,Loc_Qual_label,Loc_Option1_cost,Loc_Option2_cost,Loc_Option1_quality,Loc_Option2_quality,trials.thisRepN,trials.thisTrialN,trials.thisN,trials.thisIndex,trials.ran,Block,Device,cost1,qual1,cost2,qual2
space,3.2234,0.06875,-0.327777778,1,0,0,-0.010416667,-0.324074074,1,0,0,0,0,0,10,1,0,-0.33,43,001,2024-11-28_13h01.52.861,Attention_exp_legacy,2023.1.0,Win32,60.24096386,,,,,,,,,,,,,,,,,,,,,,,,,,,,,,,,,,,,,,,,,,,,,
,,,,,,,-0.683333333,-0.672222222,1,0,0,0,1,1,0,1,-0.67,-0.67,43,001,2024-11-28_13h01.52.861,Attention_exp_legacy,2023.1.0,Win32,60.24096386,,,,,,,,,,,,,,,,,,,,,,,,,,,,,,,,,,,,,,,,,,,,,
,,,,,,,0.333333333,-0.668518519,1,0,0,0,2,2,14,1,0.33,-0.67,43,001,2024-11-28_13h01.52.861,Attention_exp_legacy,2023.1.0,Win32,60.24096386,calibration_square,,,,,,,,,,,,,,,,,,,,,,,,,,,,,,,,,,,,,,,,,,,,
,,,,,,,0.002083333,0.32962963,1,0,0,0,3,3,12,1,0,0.33,43,001,2024-11-28_13h01.52.861,Attention_exp_legacy,2023.1.0,Win32,60.24096386,calibration_square,,,,,,,,,,,,,,,,,,,,,,,,,,,,,,,,,,,,,,,,,,,,
,,,,,,,0.333333333,0.32962963,1,0,0,0,4,4,17,1,0.33,0.33,43,001,2024-11-28_13h01.52.861,Attention_exp_legacy,2023.1.0,Win32,60.24096386,calibration_square,,,,,,,,,,,,,,,,,,,,,,,,,,,,,,,,,,,,,,,,,,,,
,,,,,,,-0.679166667,-0.32962963,1,0,0,0,5,5,1,1,-0.67,-0.33,43,001,2024-11-28_13h01.52.861,Attention_exp_legacy,2023.1.0,Win32,60.24096386,calibration_square,,,,,,,,,,,,,,,,,,,,,,,,,,,,,,,,,,,,,,,,,,,,
,,,,,,,-0.001041667,0.009259259,1,0,0,0,6,6,11,1,0,0,43,001,2024-11-28_13h01.52.861,Attention_exp_legacy,2023.1.0,Win32,60.24096386,calibration_square,,,,,,,,,,,,,,,,,,,,,,,,,,,,,,,,,,,,,,,,,,,,
,,,,,,,0.663541667,-0.67037037,1,0,0,0,7,7,20,1,0.67,-0.67,43,001,2024-11-28_13h01.52.861,Attention_exp_legacy,2023.1.0,Win32,60.24096386,calibration_square,,,,,,,,,,,,,,,,,,,,,,,,,,,,,,,,,,,,,,,,,,,,
,,,,,,,-0.003125,-0.674074074,1,0,0,0,8,8,9,1,0,-0.67,43,001,2024-11-28_13h01.52.861,Attention_exp_legacy,2023.1.0,Win32,60.24096386,calibration_square,,,,,,,,,,,,,,,,,,,,,,,,,,,,,,,,,,,,,,,,,,,,
,,,,,,,0.325,-0.337037037,1,0,0,0,9,9,15,1,0.33,-0.33,43,001,2024-11-28_13h01.52.861,Attention_exp_legacy,2023.1.0,Win32,60.24096386,calibration_square,,,,,,,,,,,,,,,,,,,,,,,,,,,,,,,,,,,,,,,,,,,,
,,,,,,,-0.327083333,-0.005555556,1,0,0,0,10,10,6,1,-0.33,0,43,001,2024-11-28_13h01.52.861,Attention_exp_legacy,2023.1.0,Win32,60.24096386,calibration_square,,,,,,,,,,,,,,,,,,,,,,,,,,,,,,,,,,,,,,,,,,,,
,,,,,,,-0.672916667,-0.001851852,1,0,0,0,11,11,2,1,-0.67,0,43,001,2024-11-28_13h01.52.861,Attention_exp_legacy,2023.1.0,Win32,60.24096386,calibration_square,,,,,,,,,,,,,,,,,,,,,,,,,,,,,,,,,,,,,,,,,,,,
,,,,,,,-0.338541667,-0.668518519,1,0,0,0,12,12,4,1,-0.33,-0.67,43,001,2024-11-28_13h01.52.861,Attention_exp_legacy,2023.1.0,Win32,60.24096386,calibration_square,,,,,,,,,,,,,,,,,,,,,,,,,,,,,,,,,,,,,,,,,,,,
,,,,,,,0.669791667,0.67037037,1,0,0,0,13,13,19,1,0.67,0.67,43,001,2024-11-28_13h01.52.861,Attention_exp_legacy,2023.1.0,Win32,60.24096386,calibration_square,,,,,,,,,,,,,,,,,,,,,,,,,,,,,,,,,,,,,,,,,,,,
,,,,,,,-0.673958333,0.333333333,1,0,0,0,14,14,3,1,-0.67,0.33,43,001,2024-11-28_13h01.52.861,Attention_exp_legacy,2023.1.0,Win32,60.24096386,calibration_square,,,,,,,,,,,,,,,,,,,,,,,,,,,,,,,,,,,,,,,,,,,,
,,,,,,,-0.328125,0.67962963,1,0,0,0,15,15,8,1,-0.33,0.67,43,001,2024-11-28_13h01.52.861,Attention_exp_legacy,2023.1.0,Win32,60.24096386,calibration_square,,,,,,,,,,,,,,,,,,,,,,,,,,,,,,,,,,,,,,,,,,,,
,,,,,,,0.325,0.662962963,1,0,0,0,16,16,18,1,0.33,0.67,43,001,2024-11-28_13h01.52.861,Attention_exp_legacy,2023.1.0,Win32,60.24096386,calibration_square,,,,,,,,,,,,,,,,,,,,,,,,,,,,,,,,,,,,,,,,,,,,
,,,,,,,0.322916667,0.012962963,1,0,0,0,17,17,16,1,0.33,0,43,001,2024-11-28_13h01.52.861,Attention_exp_legacy,2023.1.0,Win32,60.24096386,,,,,,,,,,,,,,,,,,,,,,,,,,,,,,,,,,,,,,,,,,,,,
,,,,,,,-0.338541667,0.32962963,1,0,0,0,18,18,7,1,-0.33,0.33,43,001,2024-11-28_13h01.52.861,Attention_exp_legacy,2023.1.0,Win32,60.24096386,calibration_square,,,,,,,,,,,,,,,,,,,,,,,,,,,,,,,,,,,,,,,,,,,,
,,,,,,,0.001041667,0.67037037,1,0,0,0,19,19,13,1,0,0.67,43,001,2024-11-28_13h01.52.861,Attention_exp_legacy,2023.1.0,Win32,60.24096386,calibration_square,,,,,,,,,,,,,,,,,,,,,,,,,,,,,,,,,,,,,,,,,,,,
,,,,,,,-0.330208333,-0.333333333,1,0,0,0,20,20,5,1,-0.33,-0.33,43,001,2024-11-28_13h01.52.861,Attention_exp_legacy,2023.1.0,Win32,60.24096386,calibration_square,,,,,,,,,,,,,,,,,,,,,,,,,,,,,,,,,,,,,,,,,,,,
,,,,,,,,,,,,,,,,,,,43,001,2024-11-28_13h01.52.861,Attention_exp_legacy,2023.1.0,Win32,60.24096386,,"[1920,1080]","[640,480]",[0.03229166666666667],[-0.5111111111111111],[1],[0],[0],[5.796599999994044],"[""StartButton""]","[-0.011458333333333333,0.0020833333333333333]","[-0.05,0.32222222222222224]","[1,1]","[0,0]","[0,0]","[3.8545000000000016,6.087699999988082]","[""Option1_label""]",Option1_label,1,7.1119,"[[0.03229166666666667,-0.49444444444444446],[0.03229166666666667,-0.49444444444444446],[0.03229166666666667,-0.4925925925925926],[0.029166666666666667,-0.48518518518518516],[0.029166666666666667,-0.48518518518518516],[0.029166666666666667,-0.48703703703703705],[0.030208333333333334,-0.4888888888888889],[0.030208333333333334,-0.4888888888888889],[0.029166666666666667,-0.4925925925925926],[0.029166666666666667,-0.4925925925925926],[0.029166666666666667,-0.4925925925925926],[0.029166666666666667,-0.4925925925925926],[0.029166666666666667,-0.49444444444444446],[0.029166666666666667,-0.49444444444444446],[0.029166666666666667,-0.49444444444444446],[0.029166666666666667,-0.4981481481481482],[0.029166666666666667,-0.4981481481481482],[0.029166666666666667,-0.4981481481481482],[0.030208333333333334,-0.5],[0.030208333333333334,-0.5],[0.030208333333333334,-0.5],[0.03229166666666667,-0.5037037037037037],[0.03229166666666667,-0.5037037037037037],[0.03333333333333333,-0.5055555555555555],[0.03333333333333333,-0.5055555555555555],[0.034375,-0.5055555555555555],[0.034375,-0.5055555555555555],[0.035416666666666666,-0.5055555555555555],[0.036458333333333336,-0.5055555555555555],[0.036458333333333336,-0.5055555555555555],[0.036458333333333336,-0.5055555555555555],[0.036458333333333336,-0.5055555555555555],[0.036458333333333336,-0.5055555555555555],[0.0375,-0.5055555555555555],[0.0375,-0.5055555555555555],[0.0375,-0.5055555555555555],[0.0375,-0.5055555555555555],[0.0375,-0.5055555555555555],[0.0375,-0.5055555555555555],[0.0375,-0.5055555555555555],[0.0375,-0.5055555555555555],[0.0375,-0.5055555555555555],[0.0375,-0.5055555555555555],[0.0375,-0.5055555555555555],[0.0375,-0.5055555555555555],[0.0375,-0.5055555555555555],[0.0375,-0.5055555555555555],[0.0375,-0.5055555555555555],[0.0375,-0.5055555555555555],[0.0375,-0.5055555555555555],[0.0375,-0.5055555555555555],[0.0375,-0.5055555555555555],[0.0375,-0.5055555555555555],[0.0375,-0.5055555555555555],[0.0375,-0.5055555555555555],[0.0375,-0.5055555555555555],[0.0375,-0.5055555555555555],[0.0375,-0.5055555555555555],[0.0375,-0.5055555555555555],[0.0375,-0.5055555555555555],[0.0375,-0.5055555555555555],[0.0375,-0.5055555555555555],[0.0375,-0.5055555555555555],[0.0375,-0.5055555555555555],[0.0375,-0.5055555555555555],[0.03854166666666667,-0.5074074074074074],[0.03854166666666667,-0.5074074074074074],[0.03854166666666667,-0.5074074074074074],[0.03854166666666667,-0.5074074074074074],[0.03854166666666667,-0.5074074074074074],[0.03854166666666667,-0.5074074074074074],[0.03854166666666667,-0.5074074074074074],[0.03854166666666667,-0.5074074074074074],[0.03854166666666667,-0.5074074074074074],[0.03854166666666667,-0.5074074074074074],[0.03854166666666667,-0.5074074074074074],[0.03854166666666667,-0.5074074074074074],[0.03854166666666667,-0.5074074074074074],[0.03854166666666667,-0.5074074074074074],[0.03854166666666667,-0.5074074074074074],[0.03854166666666667,-0.5074074074074074],[0.03854166666666667,-0.5074074074074074],[0.03854166666666667,-0.5074074074074074],[0.03854166666666667,-0.5074074074074074],[0.03854166666666667,-0.5074074074074074],[0.03854166666666667,-0.5074074074074074],[0.03854166666666667,-0.5074074074074074],[0.03854166666666667,-0.5074074074074074],[0.03854166666666667,-0.5074074074074074],[0.03854166666666667,-0.5074074074074074],[0.03854166666666667,-0.5074074074074074],[0.03854166666666667,-0.5074074074074074],[0.03854166666666667,-0.5074074074074074],[0.03854166666666667,-0.5074074074074074],[0.03854166666666667,-0.5074074074074074],[0.03854166666666667,-0.5074074074074074],[0.03854166666666667,-0.5074074074074074],[0.03854166666666667,-0.5074074074074074],[0.03854166666666667,-0.5074074074074074],[0.03854166666666667,-0.5074074074074074],[0.03854166666666667,-0.5074074074074074],[0.03854166666666667,-0.5074074074074074],[0.03854166666666667,-0.5074074074074074],[0.03854166666666667,-0.5074074074074074],[0.03854166666666667,-0.5074074074074074],[0.03854166666666667,-0.5074074074074074],[0.03854166666666667,-0.5074074074074074],[0.03854166666666667,-0.5074074074074074],[0.03854166666666667,-0.5074074074074074],[0.03854166666666667,-0.5074074074074074],[0.03854166666666667,-0.5074074074074074],[0.03854166666666667,-0.5074074074074074],[0.03854166666666667,-0.5074074074074074],[0.03854166666666667,-0.5074074074074074],[0.03854166666666667,-0.5074074074074074],[0.03854166666666667,-0.5074074074074074],[0.03854166666666667,-0.5074074074074074],[0.03854166666666667,-0.5074074074074074],[0.03854166666666667,-0.5074074074074074],[0.03854166666666667,-0.5074074074074074],[0.03854166666666667,-0.5074074074074074],[0.03854166666666667,-0.5074074074074074],[0.03854166666666667,-0.5074074074074074],[0.03854166666666667,-0.5074074074074074],[0.03854166666666667,-0.5074074074074074],[0.03854166666666667,-0.5074074074074074],[0.03854166666666667,-0.5074074074074074],[0.03854166666666667,-0.5074074074074074],[0.03854166666666667,-0.5074074074074074],[0.03854166666666667,-0.5074074074074074],[0.03854166666666667,-0.5074074074074074],[0.03854166666666667,-0.5074074074074074],[0.03854166666666667,-0.5074074074074074],[0.03854166666666667,-0.5074074074074074],[0.03854166666666667,-0.5074074074074074],[0.03854166666666667,-0.5074074074074074],[0.03854166666666667,-0.5074074074074074],[0.03854166666666667,-0.5074074074074074],[0.03854166666666667,-0.5074074074074074],[0.03854166666666667,-0.5074074074074074],[0.03854166666666667,-0.5074074074074074],[0.03854166666666667,-0.5074074074074074],[0.03854166666666667,-0.5074074074074074],[0.03854166666666667,-0.5074074074074074],[0.03854166666666667,-0.5074074074074074],[0.03854166666666667,-0.5074074074074074],[0.03854166666666667,-0.5074074074074074],[0.03854166666666667,-0.5074074074074074],[0.03854166666666667,-0.5074074074074074],[0.03854166666666667,-0.5074074074074074],[0.03854166666666667,-0.5074074074074074],[0.03854166666666667,-0.5074074074074074],[0.03854166666666667,-0.5074074074074074],[0.03854166666666667,-0.5074074074074074],[0.03854166666666667,-0.5074074074074074],[0.03854166666666667,-0.5074074074074074],[0.03854166666666667,-0.5074074074074074],[0.03854166666666667,-0.5074074074074074],[0.03854166666666667,-0.5074074074074074],[0.03854166666666667,-0.5074074074074074],[0.03854166666666667,-0.5074074074074074],[0.03854166666666667,-0.5074074074074074],[0.03854166666666667,-0.5074074074074074],[0.03854166666666667,-0.5074074074074074],[0.03854166666666667,-0.5074074074074074],[0.03854166666666667,-0.5074074074074074],[0.03854166666666667,-0.5074074074074074],[0.03854166666666667,-0.5092592592592593],[0.03854166666666667,-0.5111111111111111],[0.03854166666666667,-0.5111111111111111],[0.03854166666666667,-0.5148148148148148],[0.0375,-0.5166666666666667],[0.0375,-0.5166666666666667],[0.036458333333333336,-0.5185185185185185],[0.036458333333333336,-0.5185185185185185],[0.036458333333333336,-0.5185185185185185],[0.036458333333333336,-0.5203703703703704],[0.036458333333333336,-0.5203703703703704],[0.035416666666666666,-0.5222222222222223],[0.035416666666666666,-0.5222222222222223],[0.035416666666666666,-0.5222222222222223],[0.035416666666666666,-0.5222222222222223],[0.035416666666666666,-0.5222222222222223],[0.035416666666666666,-0.5222222222222223],[0.035416666666666666,-0.5222222222222223],[0.035416666666666666,-0.5222222222222223],[0.034375,-0.5222222222222223],[0.03333333333333333,-0.5222222222222223],[0.030208333333333334,-0.5092592592592593],[0.029166666666666667,-0.4888888888888889],[0.028125,-0.4388888888888889],[0.025,-0.3851851851851852],[0.022916666666666665,-0.3425925925925926],[0.022916666666666665,-0.3074074074074074],[0.022916666666666665,-0.2833333333333333],[0.022916666666666665,-0.26666666666666666],[0.022916666666666665,-0.25925925925925924],[0.022916666666666665,-0.25555555555555554],[0.022916666666666665,-0.2518518518518518],[0.023958333333333335,-0.2462962962962963],[0.023958333333333335,-0.24259259259259258],[0.023958333333333335,-0.23703703703703705],[0.025,-0.22407407407407406],[0.025,-0.21296296296296297],[0.025,-0.19814814814814816],[0.025,-0.18518518518518517],[0.025,-0.17222222222222222],[0.025,-0.15555555555555556],[0.022916666666666665,-0.14074074074074075],[0.017708333333333333,-0.12037037037037036],[0.007291666666666667,-0.09259259259259259],[0.003125,-0.08333333333333333],[-0.0020833333333333333,-0.07222222222222222],[-0.00625,-0.06481481481481481],[-0.009375,-0.05740740740740741],[-0.010416666666666666,-0.053703703703703705],[-0.010416666666666666,-0.053703703703703705],[-0.011458333333333333,-0.05],[-0.011458333333333333,-0.05],[-0.011458333333333333,-0.05],[-0.011458333333333333,-0.05],[-0.011458333333333333,-0.05],[-0.011458333333333333,-0.05],[-0.011458333333333333,-0.05],[-0.011458333333333333,-0.05],[-0.011458333333333333,-0.05],[-0.011458333333333333,-0.05],[-0.011458333333333333,-0.05],[-0.011458333333333333,-0.05],[-0.011458333333333333,-0.05],[-0.011458333333333333,-0.05],[-0.011458333333333333,-0.05],[-0.011458333333333333,-0.05],[-0.011458333333333333,-0.05],[-0.011458333333333333,-0.05],[-0.011458333333333333,-0.05],[-0.011458333333333333,-0.05],[-0.011458333333333333,-0.05],[-0.011458333333333333,-0.05],[-0.011458333333333333,-0.05],[-0.011458333333333333,-0.05],[-0.011458333333333333,-0.05],[-0.0125,-0.05],[-0.0125,-0.05],[-0.0125,-0.05],[-0.0125,-0.05],[-0.0125,-0.05],[-0.0125,-0.05],[-0.0125,-0.05],[-0.0125,-0.05],[-0.0125,-0.05],[-0.0125,-0.05],[-0.0125,-0.05],[-0.0125,-0.05],[-0.0125,-0.05],[-0.0125,-0.05],[-0.0125,-0.05],[-0.0125,-0.05],[-0.0125,-0.05],[-0.0125,-0.05],[-0.0125,-0.05],[-0.0125,-0.05],[-0.0125,-0.05],[-0.0125,-0.05],[-0.0125,-0.05],[-0.0125,-0.05],[-0.0125,-0.05],[-0.0125,-0.05],[-0.0125,-0.05],[-0.0125,-0.05],[-0.0125,-0.05],[-0.0125,-0.05],[-0.0125,-0.05],[-0.0125,-0.05],[-0.0125,-0.05],[-0.0125,-0.05],[-0.0125,-0.05],[-0.0125,-0.05],[-0.0125,-0.05],[-0.0125,-0.05],[-0.0125,-0.05],[-0.0125,-0.05],[-0.0125,-0.05],[-0.0125,-0.05],[-0.0125,-0.05],[-0.0125,-0.05],[-0.0125,-0.05],[-0.0125,-0.05],[-0.0125,-0.05],[-0.0125,-0.05],[-0.0125,-0.05],[-0.0125,-0.05],[-0.0125,-0.05],[-0.0125,-0.05],[-0.0125,-0.05],[-0.0125,-0.05],[-0.0125,-0.05],[-0.0125,-0.05],[-0.0125,-0.05],[-0.0125,-0.05],[-0.0125,-0.05],[-0.0125,-0.05],[-0.0125,-0.05],[-0.0125,-0.05],[-0.0125,-0.05],[-0.0125,-0.05],[-0.0125,-0.05],[-0.0125,-0.05],[-0.0125,-0.05],[-0.0125,-0.05],[-0.0125,-0.05],[-0.0125,-0.05],[-0.0125,-0.05],[-0.0125,-0.05],[-0.0125,-0.05],[-0.0125,-0.05],[-0.0125,-0.05],[-0.0125,-0.05],[-0.0125,-0.05],[-0.0125,-0.05],[-0.0125,-0.05],[-0.0125,-0.05],[-0.0125,-0.05],[-0.0125,-0.05],[-0.0125,-0.05],[-0.0125,-0.05],[-0.0125,-0.05],[-0.0125,-0.05],[-0.0125,-0.05],[-0.0125,-0.05],[-0.0125,-0.05],[-0.0125,-0.05],[-0.0125,-0.05],[-0.0125,-0.05],[-0.0125,-0.05],[-0.0125,-0.05],[-0.0125,-0.05],[-0.0125,-0.05],[-0.0125,-0.05],[-0.0125,-0.05],[-0.0125,-0.025925925925925925],[-0.0125,0.011111111111111112],[-0.0125,0.04814814814814815],[-0.017708333333333333,0.08888888888888889],[-0.019791666666666666,0.11296296296296296],[-0.021875,0.12407407407407407],[-0.023958333333333335,0.14074074074074075],[-0.023958333333333335,0.16111111111111112],[-0.023958333333333335,0.17777777777777778],[-0.023958333333333335,0.1962962962962963],[-0.023958333333333335,0.21481481481481482],[-0.023958333333333335,0.21666666666666667],[-0.023958333333333335,0.22777777777777777],[-0.020833333333333332,0.24074074074074073],[-0.0125,0.2574074074074074],[-0.007291666666666667,0.2796296296296296],[-0.003125,0.29444444444444445],[-0.0010416666666666667,0.30185185185185187],[0.0010416666666666667,0.3111111111111111],[0.0010416666666666667,0.31296296296296294],[0.0010416666666666667,0.31666666666666665],[0.0020833333333333333,0.32222222222222224],[0.0020833333333333333,0.32222222222222224],[0.0020833333333333333,0.32222222222222224],[0.0020833333333333333,0.32222222222222224],[0.0020833333333333333,0.32222222222222224],[0.0020833333333333333,0.32222222222222224],[0.0020833333333333333,0.32222222222222224],[0.0020833333333333333,0.32222222222222224],[0.0020833333333333333,0.32222222222222224],[0.0020833333333333333,0.32222222222222224],[0.0020833333333333333,0.32222222222222224],[0.0020833333333333333,0.32222222222222224],[0.0020833333333333333,0.32222222222222224],[0.0020833333333333333,0.32222222222222224],[0.0020833333333333333,0.32222222222222224],[0.0020833333333333333,0.32222222222222224],[0.0020833333333333333,0.32222222222222224],[0.0020833333333333333,0.32222222222222224],[0.0020833333333333333,0.32222222222222224],[0.0020833333333333333,0.32222222222222224],[0.0020833333333333333,0.32222222222222224],[0.0020833333333333333,0.32222222222222224],[0.0020833333333333333,0.32222222222222224],[0.0020833333333333333,0.32222222222222224],[0.004166666666666667,0.32037037037037036],[0.005208333333333333,0.3111111111111111],[0.007291666666666667,0.3],[0.009375,0.28703703703703703],[0.010416666666666666,0.27037037037037037],[0.010416666666666666,0.2537037037037037],[0.009375,0.23333333333333334],[0.009375,0.23333333333333334],[0.009375,0.23333333333333334],[0.009375,0.23333333333333334],[0.009375,0.23333333333333334],[0.009375,0.23333333333333334],[0.009375,0.23333333333333334],[0.009375,0.23333333333333334],[0.009375,0.23333333333333334],[0.009375,0.23333333333333334],[0.009375,0.23333333333333334],[0.009375,0.23333333333333334],[0.009375,0.23333333333333334],[0.009375,0.23333333333333334],[0.009375,0.23333333333333334],[0.009375,0.23333333333333334],[0.009375,0.23333333333333334],[0.009375,0.23333333333333334],[0.009375,0.23333333333333334],[0.009375,0.23333333333333334],[0.009375,0.23333333333333334],[0.009375,0.23333333333333334],[0.009375,0.23333333333333334],[0.009375,0.23333333333333334],[0.009375,0.23333333333333334],[0.009375,0.23333333333333334],[0.009375,0.23333333333333334],[0.009375,0.23333333333333334],[0.009375,0.23333333333333334],[0.009375,0.23333333333333334],[0.009375,0.23333333333333334],[0.009375,0.23333333333333334],[0.009375,0.23333333333333334],[0.009375,0.23333333333333334],[0.009375,0.23333333333333334]]","[[-0.06312500000000003,0.12481481481481477],[-0.06312500000000003,0.12481481481481477],[-0.0734375,0.12462962962962955],[-0.0734375,0.12462962962962955],[-0.0875,0.07462962962962955],[-0.0875,0.07462962962962955],[-0.08562500000000005,0.07962962962962963],[-0.08562500000000005,0.07962962962962963],[-0.08854166666666667,0.10425925925925918],[-0.08854166666666667,0.10425925925925918],[-0.09895833333333333,0.07851851851851847],[-0.09895833333333333,0.07851851851851847],[-0.13072916666666667,0.0005555555555554713],[-0.13072916666666667,0.0005555555555554713],[-0.13072916666666667,0.0005555555555554713],[-0.12208333333333338,0.06870370370370374],[-0.12208333333333338,0.06870370370370374],[-0.09593750000000002,0.10481481481481486],[-0.09593750000000002,0.10481481481481486],[-0.08239583333333336,0.17092592592592584],[-0.08239583333333336,0.17092592592592584],[-0.05604166666666662,0.2162962962962962],[-0.05604166666666662,0.2162962962962962],[-0.0265625,0.21148148148148158],[-0.0265625,0.21148148148148158],[-0.015416666666666618,0.31240740740740747],[-0.015416666666666618,0.31240740740740747],[-0.0234375,0.3531481481481482],[-0.0234375,0.3531481481481482],[-0.021875,0.3490740740740741],[-0.021875,0.3490740740740741],[-0.03229166666666667,0.40629629629629627],[-0.03229166666666667,0.40629629629629627],[-0.024791666666666618,0.4861111111111111],[-0.024791666666666618,0.4861111111111111],[-0.025312499999999953,0.46166666666666656],[-0.025312499999999953,0.46166666666666656],[-0.050312499999999954,0.487962962962963],[-0.050312499999999954,0.487962962962963],[-0.07906249999999998,0.49074074074074076],[-0.07906249999999998,0.49074074074074076],[-0.13312499999999997,0.5068518518518519],[-0.13312499999999997,0.5068518518518519],[-0.15354166666666663,0.46222222222222226],[-0.15354166666666663,0.46222222222222226],[-0.178125,0.42111111111111105],[-0.178125,0.42111111111111105],[-0.1961458333333333,0.4148148148148148],[-0.1961458333333333,0.4148148148148148],[-0.2295833333333333,0.40925925925925927],[-0.2295833333333333,0.40925925925925927],[-0.23218749999999996,0.3714814814814815],[-0.23218749999999996,0.3714814814814815],[-0.24479166666666666,0.38499999999999995],[-0.24479166666666666,0.38499999999999995],[-0.2634375,0.3925925925925926],[-0.2634375,0.3925925925925926],[-0.268125,0.3983333333333334],[-0.268125,0.3983333333333334],[-0.26291666666666663,0.38425925925925924],[-0.26291666666666663,0.38425925925925924],[-0.22531249999999994,0.384074074074074],[-0.22531249999999994,0.384074074074074],[-0.23604166666666668,0.39000000000000007],[-0.23604166666666668,0.39000000000000007],[-0.2,0.4479629629629629],[-0.2,0.4479629629629629],[-0.2,0.4479629629629629],[-0.2,0.4479629629629629],[-0.18489583333333334,0.4646296296296296],[-0.18489583333333334,0.4646296296296296],[-0.15562499999999999,0.4875925925925925],[-0.15562499999999999,0.4875925925925925],[-0.14458333333333329,0.5046296296296297],[-0.14458333333333329,0.5046296296296297],[-0.11510416666666666,0.49425925925925923],[-0.11510416666666666,0.49425925925925923],[-0.09666666666666662,0.5109259259259259],[-0.09666666666666662,0.5109259259259259],[-0.08854166666666667,0.4988888888888888],[-0.08854166666666667,0.4988888888888888],[-0.07635416666666663,0.5142592592592593],[-0.07635416666666663,0.5142592592592593],[-0.07635416666666663,0.5142592592592593],[-0.07635416666666663,0.5142592592592593],[-0.07489583333333331,0.5318518518518519],[-0.07489583333333331,0.5318518518518519],[-0.06635416666666671,0.5290740740740741],[-0.06635416666666671,0.5290740740740741],[-0.09739583333333333,0.5174074074074073],[-0.09739583333333333,0.5174074074074073],[-0.10864583333333329,0.5061111111111111],[-0.10864583333333329,0.5061111111111111],[-0.10979166666666665,0.4981481481481482],[-0.10979166666666665,0.4981481481481482],[-0.10979166666666665,0.4981481481481482],[-0.10979166666666665,0.4981481481481482],[-0.11145833333333334,0.507037037037037],[-0.11145833333333334,0.507037037037037],[-0.1140625,0.515],[-0.1140625,0.515],[-0.12406250000000002,0.48481481481481475],[-0.12406250000000002,0.48481481481481475],[-0.121875,0.47074074074074085],[-0.121875,0.47074074074074085],[-0.14052083333333332,0.44611111111111107],[-0.14052083333333332,0.44611111111111107],[-0.17083333333333334,0.34740740740740744],[-0.17083333333333334,0.34740740740740744],[-0.18979166666666672,0.3031481481481482],[-0.18979166666666672,0.3031481481481482],[-0.20906250000000004,0.22666666666666663],[-0.20906250000000004,0.22666666666666663],[-0.21000000000000002,0.152962962962963],[-0.21000000000000002,0.152962962962963],[-0.23635416666666664,0.11018518518518519],[-0.23635416666666664,0.11018518518518519],[-0.25239583333333326,0.07759259259259255],[-0.2716666666666666,0.07685185185185185],[-0.2716666666666666,0.07685185185185185],[-0.28020833333333334,0.09074074074074075],[-0.2830208333333334,0.045740740740740825],[-0.2830208333333334,0.045740740740740825],[-0.27854166666666663,0.011481481481481566],[-0.2760416666666667,0.04759259259259268],[-0.2760416666666667,0.04759259259259268],[-0.2725,0.04333333333333329],[-0.2725,0.04333333333333329],[-0.271875,0.05722222222222218],[-0.284375,0.072037037037037],[-0.2851041666666667,0.07074074074074083],[-0.2938541666666667,0.009999999999999959],[-0.30343749999999997,-0.07592592592592592],[-0.32010416666666663,-0.12537037037037035],[-0.34479166666666666,-0.1542592592592593],[-0.3745833333333334,-0.12314814814814815],[-0.3991666666666667,-0.09240740740740737],[-0.40385416666666674,-0.04888888888888885],[-0.4180208333333333,-0.02111111111111107],[-0.42697916666666663,0.012407407407407492],[-0.43624999999999997,0.030555555555555555],[-0.4422916666666667,0.02555555555555547],[-0.4547916666666667,0.05388888888888893],[-0.4643749999999999,0.03981481481481482],[-0.4643749999999999,0.03981481481481482],[-0.4763541666666667,0.06574074074074074],[-0.4734375,0.019999999999999917],[-0.4734375,0.019999999999999917],[-0.4608333333333333,-0.0035185185185184764],[-0.45666666666666667,-0.007037037037036953],[-0.4428125,-0.027407407407407325],[-0.41781250000000003,-0.039074074074074115],[-0.3953125,-0.05259259259259255],[-0.3745833333333334,0.010925925925925884],[-0.33562500000000006,0.03777777777777774],[-0.3171875,0.06814814814814807],[-0.3029166666666666,0.09259259259259259],[-0.26749999999999996,0.1037037037037037],[-0.2594791666666667,0.0742592592592593],[-0.22854166666666664,0.07240740740740745],[-0.19760416666666672,0.0705555555555556],[-0.19791666666666666,0.03777777777777774],[-0.1998958333333333,0.01777777777777782],[-0.20510416666666664,-0.02370370370370362],[-0.2117708333333333,-0.00851851851851856],[-0.19958333333333336,-0.025],[-0.16906249999999995,-0.05703703703703706],[-0.16000000000000003,-0.06740740740740736],[-0.13635416666666664,0.0001851851851852273],[-0.13635416666666664,0.0001851851851852273],[-0.11895833333333337,0.029814814814814856],[-0.1319791666666667,0.057777777777777865],[-0.1248958333333333,0.10796296296296289],[-0.09885416666666665,0.16407407407407412],[-0.06822916666666666,0.23629629629629634],[-0.06812499999999998,0.23407407407407405],[-0.06812499999999998,0.23407407407407405],[-0.06218750000000005,0.26592592592592595],[-0.08364583333333328,0.3031481481481482],[-0.07885416666666671,0.35722222222222216],[-0.07937500000000004,0.33777777777777773],[-0.1016666666666667,0.29870370370370364],[-0.10104166666666667,0.2862962962962963],[-0.10041666666666664,0.27388888888888885],[-0.11427083333333338,0.25999999999999995],[-0.12885416666666671,0.23277777777777786],[-0.12208333333333338,0.25685185185185194],[-0.10208333333333333,0.2785185185185185],[-0.07250000000000002,0.3042592592592592],[-0.06916666666666664,0.3131481481481482],[-0.051145833333333356,0.29907407407407405],[-0.04093749999999995,0.3461111111111111],[-0.02322916666666662,0.36814814814814806],[-0.014583333333333334,0.3881481481481482],[-0.0012500000000000473,0.4024074074074073],[-0.02041666666666669,0.3794444444444444],[-0.02041666666666669,0.3794444444444444],[-0.043958333333333384,0.33000000000000007],[-0.043958333333333384,0.33000000000000007],[-0.07520833333333338,0.2837037037037038],[-0.08187500000000002,0.2596296296296297],[-0.08468749999999996,0.25277777777777777],[-0.11385416666666662,0.24092592592592596],[-0.13072916666666667,0.23185185185185195],[-0.1476041666666667,0.22277777777777769],[-0.17447916666666666,0.19462962962962968],[-0.20604166666666662,0.17222222222222222],[-0.19083333333333338,0.18703703703703703],[-0.16854166666666662,0.18499999999999997],[-0.15177083333333338,0.18222222222222217],[-0.16312500000000002,0.15925925925925927],[-0.16312500000000002,0.15925925925925927],[-0.16354166666666667,0.12907407407407415],[-0.15197916666666664,0.1579629629629629],[-0.13656250000000003,0.1259259259259259],[-0.11197916666666667,0.13055555555555556],[-0.07979166666666669,0.12259259259259268],[-0.049374999999999974,0.1368518518518518],[-0.028125,0.15092592592592594],[-0.028125,0.15092592592592594],[-0.012187500000000047,0.1725925925925927],[0.0203125,0.19499999999999992],[0.03572916666666662,0.244074074074074],[0.03854166666666667,0.24833333333333338],[0.04874999999999995,0.23074074074074077],[0.04802083333333336,0.24962962962962953],[0.03812500000000003,0.23185185185185195],[0.06708333333333343,0.26666666666666666],[0.09656250000000005,0.2824074074074074],[0.10291666666666661,0.2727777777777777],[0.10291666666666661,0.2727777777777777],[0.10927083333333343,0.27240740740740743],[0.10927083333333343,0.27240740740740743],[0.09270833333333334,0.28462962962962973],[0.09104166666666676,0.27074074074074084],[0.09104166666666676,0.27074074074074084],[0.0984375,0.27814814814814826],[0.0984375,0.27814814814814826],[0.10729166666666666,0.285],[0.10729166666666666,0.285],[0.11531250000000005,0.3050000000000001],[0.11531250000000005,0.3050000000000001],[0.12020833333333343,0.2959259259259258],[0.08375000000000009,0.27907407407407414],[0.04854166666666669,0.259074074074074],[0.04822916666666662,0.2668518518518519],[0.049374999999999974,0.27092592592592585],[0.057083333333333285,0.2844444444444445],[0.078125,0.2777777777777778],[0.07416666666666671,0.2727777777777777],[0.06812500000000009,0.2683333333333333],[0.08010416666666677,0.24018518518518528],[0.08635416666666676,0.2300000000000001],[0.11916666666666677,0.2153703703703703],[0.15197916666666675,0.2012962962962964],[0.153125,0.20537037037037034],[0.15395833333333328,0.19685185185185178],[0.1544791666666666,0.16407407407407412],[0.1525000000000001,0.16148148148148156],[0.15093750000000009,0.17240740740740745],[0.1599999999999999,0.18370370370370379],[0.15458333333333343,0.19759259259259268],[0.14645833333333325,0.22611111111111115],[0.11822916666666666,0.24240740740740738],[0.0974999999999999,0.26370370370370366],[0.06083333333333331,0.24814814814814815],[0.024479166666666666,0.24518518518518514],[0.001145833333333357,0.21388888888888888],[-0.02802083333333331,0.17592592592592593],[-0.06625000000000002,0.1479629629629629],[-0.09822916666666662,0.1175925925925926],[-0.13927083333333337,0.09000000000000004],[-0.16875,0.0588888888888888],[-0.19416666666666665,0.0448148148148149],[-0.21947916666666673,0.013888888888888888],[-0.21916666666666665,0.02388888888888885],[-0.2203125,0.03759259259259251],[-0.23104166666666662,0.0418518518518519],[-0.2413541666666667,0.04611111111111107],[-0.234375,0.04685185185185177],[-0.2436458333333333,0.049629629629629544],[-0.24416666666666664,0.04537037037037037],[-0.23125,0.04092592592592597],[-0.21739583333333337,0.03166666666666671],[-0.2319791666666667,0.040740740740740744],[-0.24156249999999999,0.0235185185185186],[-0.24375,-0.031111111111111027],[-0.23822916666666671,-0.03833333333333342],[-0.2439583333333334,-0.05351851851851848],[-0.2172916666666667,-0.018518518518518517],[-0.2172916666666667,-0.018518518518518517],[-0.190625,0.01648148148148144],[-0.16625000000000004,0.06425925925925935],[-0.15729166666666666,0.0911111111111112],[-0.14583333333333334,0.11129629629629634],[-0.11385416666666662,0.1307407407407408],[-0.08562500000000005,0.1492592592592593],[-0.052187500000000026,0.18425925925925926],[-0.029791666666666692,0.2111111111111111],[-0.029791666666666692,0.2111111111111111],[0.000833333333333286,0.23833333333333342],[-0.00791666666666669,0.2192592592592592],[-0.013333333333333286,0.20203703703703707],[0.01229166666666662,0.1455555555555556],[0.0067708333333333336,0.11166666666666658],[0.007083333333333286,0.04888888888888885],[0.022395833333333334,-0.0012962962962963806],[0.03770833333333338,-0.0514814814814814],[0.036458333333333336,-0.11166666666666669],[0.035208333333333286,-0.17185185185185187],[0.033645833333333285,-0.21203703703703702],[0.044166666666666646,-0.26425925925925925],[0.05135416666666662,-0.3183333333333333],[0.035104166666666714,-0.3537037037037037],[0.05656249999999995,-0.40240740740740744],[0.04718749999999995,-0.4118518518518518],[0.02312500000000005,-0.4401851851851852],[0.010520833333333358,-0.42462962962962963],[0.003333333333333381,-0.38185185185185183],[0.0003124999999999526,-0.39240740740740737],[0.000416666666666643,-0.41518518518518516],[-0.013645833333333357,-0.39944444444444444],[-0.027708333333333356,-0.38370370370370366],[-0.03322916666666664,-0.22740740740740742],[-0.043333333333333356,-0.05925925925925926],[-0.04135416666666671,0.19000000000000003],[-0.03937499999999995,0.43925925925925935],[-0.04083333333333338,0.6105555555555556],[-0.04083333333333338,0.768888888888889],[-0.05947916666666669,0.9781481481481482],[-0.08885416666666662,1.1235185185185186],[-0.10406249999999997,1.2303703703703706],[-0.12270833333333328,1.3042592592592592],[-0.1514583333333333,1.2046296296296297],[-0.16937500000000003,1.0859259259259262],[-0.17437499999999997,0.8757407407407407],[-0.17937500000000003,0.6655555555555556],[-0.20666666666666664,0.5187037037037038],[-0.23541666666666666,0.3848148148148147],[-0.22614583333333335,0.22277777777777769],[-0.19583333333333333,0.1368518518518518],[-0.17739583333333328,0.00851851851851856],[-0.15552083333333327,-0.0868518518518518],[-0.13333333333333333,-0.12240740740740745],[-0.11916666666666664,-0.12037037037037036],[-0.10510416666666664,-0.15185185185185185],[-0.09104166666666665,-0.18333333333333332],[-0.06291666666666665,-0.21870370370370373],[-0.035000000000000024,-0.2531481481481481],[-0.04989583333333331,-0.2770370370370371],[-0.06697916666666662,-0.3125925925925926],[-0.06697916666666662,-0.3125925925925926],[-0.06281249999999995,-0.3],[-0.06281249999999995,-0.3],[-0.0640625,-0.3007407407407407],[-0.0640625,-0.3007407407407407],[-0.06166666666666672,-0.27240740740740743],[-0.06166666666666672,-0.27240740740740743],[-0.04520833333333331,-0.28055555555555556],[-0.04520833333333331,-0.28055555555555556],[-0.029166666666666667,-0.25759259259259265],[-0.033958333333333354,-0.24259259259259258],[-0.033958333333333354,-0.24259259259259258],[-0.03166666666666664,-0.25759259259259265],[-0.027083333333333334,-0.2733333333333334],[-0.005624999999999976,-0.2603703703703704],[0.007708333333333309,-0.2479629629629629],[0.0015625,-0.2614814814814815],[0.000833333333333286,-0.2616666666666667],[0.0015625,-0.29814814814814816],[-0.014583333333333334,-0.31666666666666665],[-0.028541666666666642,-0.3274074074074074],[-0.02166666666666662,-0.3301851851851852],[-0.024479166666666666,-0.3412962962962963],[-0.029375000000000047,-0.35259259259259257],[-0.029375000000000047,-0.35259259259259257],[-0.035104166666666714,-0.36518518518518517],[-0.035104166666666714,-0.36518518518518517],[-0.035312499999999976,-0.3646296296296296],[-0.035312499999999976,-0.3646296296296296],[-0.03260416666666662,-0.34518518518518515],[-0.010520833333333358,-0.33499999999999996],[-0.01572916666666669,-0.32833333333333337],[-0.020937500000000022,-0.32166666666666666],[-0.02781250000000005,-0.32037037037037036],[-0.033645833333333285,-0.3309259259259259],[-0.030624999999999975,-0.3198148148148148],[-0.03458333333333338,-0.3085185185185186],[-0.035312499999999976,-0.30462962962962964],[-0.027708333333333356,-0.31611111111111106],[-0.01906249999999995,-0.31925925925925924],[-0.04895833333333333,-0.3301851851851852],[-0.06031249999999998,-0.3453703703703704],[-0.058645833333333286,-0.3592592592592593],[-0.05697916666666671,-0.3731481481481482],[-0.06375000000000004,-0.357962962962963],[-0.07218749999999995,-0.3635185185185185],[-0.07833333333333338,-0.35962962962962963],[-0.08447916666666669,-0.3557407407407408],[-0.0938541666666667,-0.3351851851851852],[-0.09708333333333338,-0.32166666666666666],[-0.0765625,-0.31203703703703706],[-0.05604166666666662,-0.3024074074074074],[-0.07322916666666662,-0.30777777777777776],[-0.07124999999999998,-0.3044444444444444],[-0.06187499999999998,-0.3183333333333333],[-0.049687500000000044,-0.3025925925925925],[-0.0328125,-0.2964814814814815],[-0.015625,-0.2905555555555555],[-0.005833333333333357,-0.32037037037037036],[0.003958333333333286,-0.3501851851851852],[-0.009583333333333381,-0.3588888888888889],[-0.009583333333333381,-0.3588888888888889],[-0.02312500000000005,-0.3675925925925926],[-0.02312500000000005,-0.3675925925925926],[-0.02510416666666669,-0.36944444444444446],[-0.02510416666666669,-0.36944444444444446],[-0.029062499999999977,-0.35407407407407404],[-0.01864583333333331,-0.34370370370370373],[-0.022395833333333334,-0.35537037037037034],[-0.026145833333333358,-0.367037037037037],[-0.02833333333333338,-0.38629629629629636],[-0.044062499999999956,-0.3918518518518519],[-0.06749999999999995,-0.3609259259259259],[-0.07635416666666663,-0.3375925925925926],[-0.05458333333333331,-0.32703703703703707]]","[[-0.06312500000000003,0.12481481481481477,0.00020000001787678912],[-0.06312500000000003,0.12481481481481477,0.042100000023836515],[-0.0734375,0.12462962962962955,0.06649999999999778],[-0.0734375,0.12462962962962955,0.07340000000595381],[-0.0875,0.07462962962962955,0.09610000002383856],[-0.0875,0.07462962962962955,0.10449999999999449],[-0.08562500000000005,0.07962962962962963,0.13330000001191422],[-0.08562500000000005,0.07962962962962963,0.14260000002384032],[-0.08854166666666667,0.10425925925925918,0.1646000000238388],[-0.08854166666666667,0.10425925925925918,0.1711000000238414],[-0.09895833333333333,0.07851851851851847,0.19760000002384004],[-0.09895833333333333,0.07851851851851847,0.2044999999999959],[-0.13072916666666667,0.0005555555555554713,0.23440000000595518],[-0.13072916666666667,0.0005555555555554713,0.24280000001191837],[-0.13072916666666667,0.0005555555555554713,0.2453000000119161],[-0.12208333333333338,0.06870370370370374,0.2812000000178756],[-0.12208333333333338,0.06870370370370374,0.2901000000238412],[-0.09593750000000002,0.10481481481481486,0.31449999999999534],[-0.09593750000000002,0.10481481481481486,0.3292000000178774],[-0.08239583333333336,0.17092592592592584,0.34849999999999426],[-0.08239583333333336,0.17092592592592584,0.35549999999999926],[-0.05604166666666662,0.2162962962962962,0.3838000000119166],[-0.05604166666666662,0.2162962962962962,0.3906000000238379],[-0.0265625,0.21148148148148158,0.4129999999999967],[-0.0265625,0.21148148148148158,0.4197000000178761],[-0.015416666666666618,0.31240740740740747,0.44920000001787486],[-0.015416666666666618,0.31240740740740747,0.4554999999999936],[-0.0234375,0.3531481481481482,0.4794999999999945],[-0.0234375,0.3531481481481482,0.48770000001788105],[-0.021875,0.3490740740740741,0.5146000000238402],[-0.021875,0.3490740740740741,0.5214000000059542],[-0.03229166666666667,0.40629629629629627,0.5459999999999994],[-0.03229166666666667,0.40629629629629627,0.5532000000178812],[-0.024791666666666618,0.4861111111111111,0.5823000000119194],[-0.024791666666666618,0.4861111111111111,0.5891000000238407],[-0.025312499999999953,0.46166666666666656,0.6128000000119158],[-0.025312499999999953,0.46166666666666656,0.620400000005958],[-0.050312499999999954,0.487962962962963,0.6461000000238357],[-0.050312499999999954,0.487962962962963,0.6547000000178755],[-0.07906249999999998,0.49074074074074076,0.6812000000178813],[-0.07906249999999998,0.49074074074074076,0.6889000000059582],[-0.13312499999999997,0.5068518518518519,0.7128000000119172],[-0.13312499999999997,0.5068518518518519,0.7212000000178804],[-0.15354166666666663,0.46222222222222226,0.7481000000238396],[-0.15354166666666663,0.46222222222222226,0.756200000017877],[-0.178125,0.42111111111111105,0.7814000000059593],[-0.178125,0.42111111111111105,0.7884000000059572],[-0.1961458333333333,0.4148148148148148,0.8128000000119187],[-0.1961458333333333,0.4148148148148148,0.8208000000119142],[-0.2295833333333333,0.40925925925925927,0.8479000000059571],[-0.2295833333333333,0.40925925925925927,0.8563000000119203],[-0.23218749999999996,0.3714814814814815,0.8814000000059536],[-0.23218749999999996,0.3714814814814815,0.8892000000178797],[-0.24479166666666666,0.38499999999999995,0.9144999999999968],[-0.24479166666666666,0.38499999999999995,0.9214000000059599],[-0.2634375,0.3925925925925926,0.9478000000119167],[-0.2634375,0.3925925925925926,0.9549999999999983],[-0.268125,0.3983333333333334,0.979200000017876],[-0.268125,0.3983333333333334,0.98690000000596],[-0.26291666666666663,0.38425925925925924,1.0144999999999982],[-0.26291666666666663,0.38425925925925924,1.0214000000059542],[-0.22531249999999994,0.384074074074074,1.0461000000238414],[-0.22531249999999994,0.384074074074074,1.053300000011916],[-0.23604166666666668,0.39000000000000007,1.080900000005954],[-0.23604166666666668,0.39000000000000007,1.088100000023836],[-0.2,0.4479629629629629,1.1184999999999974],[-0.2,0.4479629629629629,1.1253000000119187],[-0.2,0.4479629629629629,1.1284999999999954],[-0.2,0.4479629629629629,1.1484999999999985],[-0.18489583333333334,0.4646296296296296,1.1794000000059555],[-0.18489583333333334,0.4646296296296296,1.1878000000119187],[-0.15562499999999999,0.4875925925925925,1.2144000000059592],[-0.15562499999999999,0.4875925925925925,1.2211000000238386],[-0.14458333333333329,0.5046296296296297,1.248400000005958],[-0.14458333333333329,0.5046296296296297,1.2558000000119165],[-0.11510416666666666,0.49425925925925923,1.2809999999999988],[-0.11510416666666666,0.49425925925925923,1.2879000000059548],[-0.09666666666666662,0.5109259259259259,1.3127000000178768],[-0.09666666666666662,0.5109259259259259,1.320200000017877],[-0.08854166666666667,0.4988888888888888,1.3461000000238386],[-0.08854166666666667,0.4988888888888888,1.3541000000238412],[-0.07635416666666663,0.5142592592592593,1.3813000000119189],[-0.07635416666666663,0.5142592592592593,1.3888000000119192],[-0.07635416666666663,0.5142592592592593,1.39520000001788],[-0.07635416666666663,0.5142592592592593,1.4141000000238364],[-0.07489583333333331,0.5318518518518519,1.44610000002384],[-0.07489583333333331,0.5318518518518519,1.453800000011917],[-0.06635416666666671,0.5290740740740741,1.4794000000059597],[-0.06635416666666671,0.5290740740740741,1.4869999999999948],[-0.09739583333333333,0.5174074074074073,1.5149000000059587],[-0.09739583333333333,0.5174074074074073,1.5219000000059566],[-0.10864583333333329,0.5061111111111111,1.5461000000238414],[-0.10864583333333329,0.5061111111111111,1.5546000000238394],[-0.10979166666666665,0.4981481481481482,1.5814000000059565],[-0.10979166666666665,0.4981481481481482,1.589499999999994],[-0.10979166666666665,0.4981481481481482,1.5952000000178757],[-0.10979166666666665,0.4981481481481482,1.6144000000059577],[-0.11145833333333334,0.507037037037037,1.6459999999999937],[-0.11145833333333334,0.507037037037037,1.6537000000178779],[-0.1140625,0.515,1.6809999999999974],[-0.1140625,0.515,1.6879000000059605],[-0.12406250000000002,0.48481481481481475,1.7127000000178754],[-0.12406250000000002,0.48481481481481475,1.7203000000119175],[-0.121875,0.47074074074074085,1.747800000011921],[-0.121875,0.47074074074074085,1.7551000000238375],[-0.14052083333333332,0.44611111111111107,1.7811000000238408],[-0.14052083333333332,0.44611111111111107,1.7883000000119154],[-0.17083333333333334,0.34740740740740744,1.812600000023835],[-0.17083333333333334,0.34740740740740744,1.820200000017877],[-0.18979166666666672,0.3031481481481482,1.8477000000178805],[-0.18979166666666672,0.3031481481481482,1.855700000017876],[-0.20906250000000004,0.22666666666666663,1.8881000000238402],[-0.20906250000000004,0.22666666666666663,1.8999000000059567],[-0.21000000000000002,0.152962962962963,1.9119000000059572],[-0.21000000000000002,0.152962962962963,1.9286000000238417],[-0.23635416666666664,0.11018518518518519,1.945300000011919],[-0.23635416666666664,0.11018518518518519,1.9619999999999962],[-0.25239583333333326,0.07759259259259255,1.9786000000238388],[-0.2716666666666666,0.07685185185185185,2.0015],[-0.2716666666666666,0.07685185185185185,2.0119000000059586],[-0.28020833333333334,0.09074074074074075,2.028499999999994],[-0.2830208333333334,0.045740740740740825,2.0516000000238392],[-0.2830208333333334,0.045740740740740825,2.0619000000059557],[-0.27854166666666663,0.011481481481481566,2.0784999999999982],[-0.2760416666666667,0.04759259259259268,2.1047000000178784],[-0.2760416666666667,0.04759259259259268,2.123600000023842],[-0.2725,0.04333333333333329,2.1414000000059588],[-0.2725,0.04333333333333329,2.152100000023836],[-0.271875,0.05722222222222218,2.161900000005957],[-0.284375,0.072037037037037,2.1788000000119183],[-0.2851041666666667,0.07074074074074083,2.195200000017877],[-0.2938541666666667,0.009999999999999959,2.2119000000059543],[-0.30343749999999997,-0.07592592592592592,2.228499999999997],[-0.32010416666666663,-0.12537037037037035,2.2472000000178767],[-0.34479166666666666,-0.1542592592592593,2.2619999999999933],[-0.3745833333333334,-0.12314814814814815,2.279300000011915],[-0.3991666666666667,-0.09240740740740737,2.2952000000178785],[-0.40385416666666674,-0.04888888888888885,2.3119000000059557],[-0.4180208333333333,-0.02111111111111107,2.3301000000238403],[-0.42697916666666663,0.012407407407407492,2.3483000000119176],[-0.43624999999999997,0.030555555555555555,2.3619999999999948],[-0.4422916666666667,0.02555555555555547,2.3786000000238374],[-0.4547916666666667,0.05388888888888893,2.39520000001788],[-0.4643749999999999,0.03981481481481482,2.412100000023841],[-0.4643749999999999,0.03981481481481482,2.4284999999999997],[-0.4763541666666667,0.06574074074074074,2.4454000000059537],[-0.4734375,0.019999999999999917,2.4618000000119196],[-0.4734375,0.019999999999999917,2.478499999999997],[-0.4608333333333333,-0.0035185185185184764,2.495300000011916],[-0.45666666666666667,-0.007037037037036953,2.5137000000178773],[-0.4428125,-0.027407407407407325,2.528499999999994],[-0.41781250000000003,-0.039074074074074115,2.5468000000119204],[-0.3953125,-0.05259259259259255,2.564900000005956],[-0.3745833333333334,0.010925925925925884,2.5814999999999984],[-0.33562500000000006,0.03777777777777774,2.59580000001192],[-0.3171875,0.06814814814814807,2.6123000000119205],[-0.3029166666666666,0.09259259259259259,2.628900000005956],[-0.26749999999999996,0.1037037037037037,2.6461000000238357],[-0.2594791666666667,0.0742592592592593,2.6618000000119153],[-0.22854166666666664,0.07240740740740745,2.67890000000596],[-0.19760416666666672,0.0705555555555556,2.695200000017877],[-0.19791666666666666,0.03777777777777774,2.712100000023838],[-0.1998958333333333,0.01777777777777782,2.728600000023839],[-0.20510416666666664,-0.02370370370370362,2.748600000023842],[-0.2117708333333333,-0.00851851851851856,2.7619999999999933],[-0.19958333333333336,-0.025,2.778499999999994],[-0.16906249999999995,-0.05703703703703706,2.7952000000178785],[-0.16000000000000003,-0.06740740740740736,2.8151000000238398],[-0.13635416666666664,0.0001851851851852273,2.828800000011917],[-0.13635416666666664,0.0001851851851852273,2.8454000000059594],[-0.11895833333333337,0.029814814814814856,2.864999999999995],[-0.1319791666666667,0.057777777777777865,2.879499999999993],[-0.1248958333333333,0.10796296296296289,2.895900000005959],[-0.09885416666666665,0.16407407407407412,2.9164000000059573],[-0.06822916666666666,0.23629629629629634,2.929900000005958],[-0.06812499999999998,0.23407407407407405,2.945300000011919],[-0.06812499999999998,0.23407407407407405,2.96220000001788],[-0.06218750000000005,0.26592592592592595,2.978600000023839],[-0.08364583333333328,0.3031481481481482,2.9981000000238396],[-0.07885416666666671,0.35722222222222216,3.012300000011919],[-0.07937500000000004,0.33777777777777773,3.028600000023836],[-0.1016666666666667,0.29870370370370364,3.0498000000119205],[-0.10104166666666667,0.2862962962962963,3.0649999999999977],[-0.10041666666666664,0.27388888888888885,3.080400000005959],[-0.11427083333333338,0.25999999999999995,3.095100000023841],[-0.12885416666666671,0.23277777777777786,3.11190000000596],[-0.12208333333333338,0.25685185185185194,3.131200000017877],[-0.10208333333333333,0.2785185185185185,3.145700000017875],[-0.07250000000000002,0.3042592592592592,3.16280000001192],[-0.06916666666666664,0.3131481481481482,3.1788000000119183],[-0.051145833333333356,0.29907407407407405,3.1979999999999933],[-0.04093749999999995,0.3461111111111111,3.213800000011915],[-0.02322916666666662,0.36814814814814806,3.2288000000119155],[-0.014583333333333334,0.3881481481481482,3.2487000000178767],[-0.0012500000000000473,0.4024074074074073,3.2649999999999935],[-0.02041666666666669,0.3794444444444444,3.282499999999999],[-0.02041666666666669,0.3794444444444444,3.295499999999997],[-0.043958333333333384,0.33000000000000007,3.3155],[-0.043958333333333384,0.33000000000000007,3.328700000017875],[-0.07520833333333338,0.2837037037037038,3.3454000000059594],[-0.08187500000000002,0.2596296296296297,3.364999999999995],[-0.08468749999999996,0.25277777777777777,3.3787000000178793],[-0.11385416666666662,0.24092592592592596,3.3954000000059565],[-0.13072916666666667,0.23185185185185195,3.411999999999999],[-0.1476041666666667,0.22277777777777769,3.431400000005958],[-0.17447916666666666,0.19462962962962968,3.4484999999999957],[-0.20604166666666662,0.17222222222222222,3.4626000000238406],[-0.19083333333333338,0.18703703703703703,3.4827000000178785],[-0.16854166666666662,0.18499999999999997,3.497800000011921],[-0.15177083333333338,0.18222222222222217,3.5127000000178796],[-0.16312500000000002,0.15925925925925927,3.533800000011915],[-0.16312500000000002,0.15925925925925927,3.545499999999997],[-0.16354166666666667,0.12907407407407415,3.5621000000238396],[-0.15197916666666664,0.1579629629629629,3.5791000000238355],[-0.13656250000000003,0.1259259259259259,3.5984000000059595],[-0.11197916666666667,0.13055555555555556,3.612499999999997],[-0.07979166666666669,0.12259259259259268,3.6286000000238374],[-0.049374999999999974,0.1368518518518518,3.6487000000178753],[-0.028125,0.15092592592592594,3.6624000000059596],[-0.028125,0.15092592592592594,3.6784999999999997],[-0.012187500000000047,0.1725925925925927,3.695300000011919],[0.0203125,0.19499999999999992,3.711999999999996],[0.03572916666666662,0.244074074074074,3.728600000023839],[0.03854166666666667,0.24833333333333338,3.7479000000059557],[0.04874999999999995,0.23074074074074077,3.7621000000238354],[0.04802083333333336,0.24962962962962953,3.779300000011915],[0.03812500000000003,0.23185185185185195,3.7952000000178785],[0.06708333333333343,0.26666666666666666,3.811800000011921],[0.09656250000000005,0.2824074074074074,3.8286000000238403],[0.10291666666666661,0.2727777777777777,3.846999999999994],[0.10291666666666661,0.2727777777777777,3.86190000000596],[0.10927083333333343,0.27240740740740743,3.8786000000238374],[0.10927083333333343,0.27240740740740743,3.8976000000238358],[0.09270833333333334,0.28462962962962973,3.911900000005957],[0.09104166666666676,0.27074074074074084,3.9364000000059605],[0.09104166666666676,0.27074074074074084,3.9454000000059537],[0.0984375,0.27814814814814826,3.9619000000059543],[0.0984375,0.27814814814814826,3.978600000023839],[0.10729166666666666,0.285,3.9952000000178813],[0.10729166666666666,0.285,4.011900000005959],[0.11531250000000005,0.3050000000000001,4.028600000023836],[0.11531250000000005,0.3050000000000001,4.04530000001192],[0.12020833333333343,0.2959259259259258,4.064400000005961],[0.08375000000000009,0.27907407407407414,4.079400000005954],[0.04854166666666669,0.259074074074074,4.0953000000119175],[0.04822916666666662,0.2668518518518519,4.114200000017881],[0.049374999999999974,0.27092592592592585,4.128700000017879],[0.057083333333333285,0.2844444444444445,4.145700000017875],[0.078125,0.2777777777777778,4.163600000023841],[0.07416666666666671,0.2727777777777777,4.178999999999995],[0.06812500000000009,0.2683333333333333,4.195800000011914],[0.08010416666666677,0.24018518518518528,4.21330000001192],[0.08635416666666676,0.2300000000000001,4.228499999999997],[0.11916666666666677,0.2153703703703703,4.247900000005956],[0.15197916666666675,0.2012962962962964,4.262200000017877],[0.153125,0.20537037037037034,4.279300000011915],[0.15395833333333328,0.19685185185185178,4.2952000000178785],[0.1544791666666666,0.16407407407407412,4.311900000005956],[0.1525000000000001,0.16148148148148156,4.3289999999999935],[0.15093750000000009,0.17240740740740745,4.347800000011915],[0.1599999999999999,0.18370370370370379,4.362100000023837],[0.15458333333333343,0.19759259259259268,4.380999999999993],[0.14645833333333325,0.22611111111111115,4.397499999999994],[0.11822916666666666,0.24240740740740738,4.412499999999994],[0.0974999999999999,0.26370370370370366,4.4326000000238395],[0.06083333333333331,0.24814814814814815,4.448999999999998],[0.024479166666666666,0.24518518518518514,4.464499999999994],[0.001145833333333357,0.21388888888888888,4.48090000000596],[-0.02802083333333331,0.17592592592592593,4.495700000017877],[-0.06625000000000002,0.1479629629629629,4.513900000005954],[-0.09822916666666662,0.1175925925925926,4.528499999999994],[-0.13927083333333337,0.09000000000000004,4.548499999999997],[-0.16875,0.0588888888888888,4.56210000002384],[-0.19416666666666665,0.0448148148148149,4.5791000000238355],[-0.21947916666666673,0.013888888888888888,4.595200000017876],[-0.21916666666666665,0.02388888888888885,4.61190000000596],[-0.2203125,0.03759259259259251,4.628499999999995],[-0.23104166666666662,0.0418518518518519,4.64670000001788],[-0.2413541666666667,0.04611111111111107,4.661900000005957],[-0.234375,0.04685185185185177,4.6785],[-0.2436458333333333,0.049629629629629544,4.695200000017877],[-0.24416666666666664,0.04537037037037037,4.711900000005954],[-0.23125,0.04092592592592597,4.728499999999997],[-0.21739583333333337,0.03166666666666671,4.7451000000238395],[-0.2319791666666667,0.040740740740740744,4.761900000005959],[-0.24156249999999999,0.0235185185185186,4.778999999999996],[-0.24375,-0.031111111111111027,4.795100000023837],[-0.23822916666666671,-0.03833333333333342,4.811900000005956],[-0.2439583333333334,-0.05351851851851848,4.828499999999998],[-0.2172916666666667,-0.018518518518518517,4.8477000000178805],[-0.2172916666666667,-0.018518518518518517,4.862499999999997],[-0.190625,0.01648148148148144,4.878700000017879],[-0.16625000000000004,0.06425925925925935,4.899200000017878],[-0.15729166666666666,0.0911111111111112,4.91430000001192],[-0.14583333333333334,0.11129629629629634,4.9287000000178764],[-0.11385416666666662,0.1307407407407408,4.947999999999993],[-0.08562500000000005,0.1492592592592593,4.961900000005954],[-0.052187500000000026,0.18425925925925926,4.979900000005955],[-0.029791666666666692,0.2111111111111111,4.995200000017881],[-0.029791666666666692,0.2111111111111111,5.011900000005959],[0.000833333333333286,0.23833333333333342,5.028600000023836],[-0.00791666666666669,0.2192592592592592,5.048200000017879],[-0.013333333333333286,0.20203703703703707,5.061900000005956],[0.01229166666666662,0.1455555555555556,5.0822000000178775],[0.0067708333333333336,0.11166666666666658,5.098200000017876],[0.007083333333333286,0.04888888888888885,5.1123000000119205],[0.022395833333333334,-0.0012962962962963806,5.128499999999995],[0.03770833333333338,-0.0514814814814814,5.1478000000119195],[0.036458333333333336,-0.11166666666666669,5.161900000005957],[0.035208333333333286,-0.17185185185185187,5.178600000023842],[0.033645833333333285,-0.21203703703703702,5.195200000017877],[0.044166666666666646,-0.26425925925925925,5.211999999999996],[0.05135416666666662,-0.3183333333333333,5.228600000023839],[0.035104166666666714,-0.3537037037037037,5.2466000000238395],[0.05656249999999995,-0.40240740740740744,5.261900000005959],[0.04718749999999995,-0.4118518518518518,5.278499999999994],[0.02312500000000005,-0.4401851851851852,5.2952000000178785],[0.010520833333333358,-0.42462962962962963,5.311800000011921],[0.003333333333333381,-0.38185185185185183,5.328499999999998],[0.0003124999999999526,-0.39240740740740737,5.347600000023839],[0.000416666666666643,-0.41518518518518516,5.36190000000596],[-0.013645833333333357,-0.39944444444444444,5.378499999999995],[-0.027708333333333356,-0.38370370370370366,5.3954000000059565],[-0.03322916666666664,-0.22740740740740742,5.411800000011915],[-0.043333333333333356,-0.05925925925925926,5.4285],[-0.04135416666666671,0.19000000000000003,5.447800000011917],[-0.03937499999999995,0.43925925925925935,5.46330000001192],[-0.04083333333333338,0.6105555555555556,5.47980000001192],[-0.04083333333333338,0.768888888888889,5.495200000017881],[-0.05947916666666669,0.9781481481481482,5.512400000005954],[-0.08885416666666662,1.1235185185185186,5.528499999999994],[-0.10406249999999997,1.2303703703703706,5.54790000000596],[-0.12270833333333328,1.3042592592592592,5.564300000011919],[-0.1514583333333333,1.2046296296296297,5.579300000011919],[-0.16937500000000003,1.0859259259259262,5.595200000017876],[-0.17437499999999997,0.8757407407407407,5.611800000011918],[-0.17937500000000003,0.6655555555555556,5.628499999999995],[-0.20666666666666664,0.5187037037037038,5.6454000000059565],[-0.23541666666666666,0.3848148148148147,5.661900000005957],[-0.22614583333333335,0.22277777777777769,5.6785],[-0.19583333333333333,0.1368518518518518,5.697700000017875],[-0.17739583333333328,0.00851851851851856,5.71480000001192],[-0.15552083333333327,-0.0868518518518518,5.728999999999999],[-0.13333333333333333,-0.12240740740740745,5.7497000000178815],[-0.11916666666666664,-0.12037037037037036,5.764499999999998],[-0.10510416666666664,-0.15185185185185185,5.779499999999999],[-0.09104166666666665,-0.18333333333333332,5.79530000001192],[-0.06291666666666665,-0.21870370370370373,5.8152000000178745],[-0.035000000000000024,-0.2531481481481481,5.830200000017875],[-0.04989583333333331,-0.2770370370370371,5.8459999999999965],[-0.06697916666666662,-0.3125925925925926,5.870999999999995],[-0.06697916666666662,-0.3125925925925926,5.878700000017879],[-0.06281249999999995,-0.3,5.89560000002384],[-0.06281249999999995,-0.3,5.912200000017876],[-0.0640625,-0.3007407407407407,5.935300000011921],[-0.0640625,-0.3007407407407407,5.945600000023838],[-0.06166666666666672,-0.27240740740740743,5.961999999999996],[-0.06166666666666672,-0.27240740740740743,5.978600000023839],[-0.04520833333333331,-0.28055555555555556,6.00110000002384],[-0.04520833333333331,-0.28055555555555556,6.011999999999993],[-0.029166666666666667,-0.25759259259259265,6.0289000000059545],[-0.033958333333333354,-0.24259259259259258,6.0537000000178764],[-0.033958333333333354,-0.24259259259259258,6.061900000005956],[-0.03166666666666664,-0.25759259259259265,6.078499999999998],[-0.027083333333333334,-0.2733333333333334,6.0953000000119175],[-0.005624999999999976,-0.2603703703703704,6.112400000005955],[0.007708333333333309,-0.2479629629629629,6.128600000023837],[0.0015625,-0.2614814814814815,6.147900000005954],[0.000833333333333286,-0.2616666666666667,6.161900000005957],[0.0015625,-0.29814814814814816,6.180999999999997],[-0.014583333333333334,-0.31666666666666665,6.195200000017877],[-0.028541666666666642,-0.3274074074074074,6.211900000005954],[-0.02166666666666662,-0.3301851851851852,6.228600000023839],[-0.024479166666666666,-0.3412962962962963,6.248700000017877],[-0.029375000000000047,-0.35259259259259257,6.26420000001788],[-0.029375000000000047,-0.35259259259259257,6.284200000017876],[-0.035104166666666714,-0.36518518518518517,6.299300000011918],[-0.035104166666666714,-0.36518518518518517,6.311999999999998],[-0.035312499999999976,-0.3646296296296296,6.328499999999998],[-0.035312499999999976,-0.3646296296296296,6.3453000000119175],[-0.03260416666666662,-0.34518518518518515,6.36190000000596],[-0.010520833333333358,-0.33499999999999996,6.378499999999995],[-0.01572916666666669,-0.32833333333333337,6.395100000023838],[-0.020937500000000022,-0.32166666666666666,6.411800000011915],[-0.02781250000000005,-0.32037037037037036,6.4285],[-0.033645833333333285,-0.3309259259259259,6.4479000000059585],[-0.030624999999999975,-0.3198148148148148,6.461999999999996],[-0.03458333333333338,-0.3085185185185186,6.4788000000119155],[-0.035312499999999976,-0.30462962962962964,6.495300000011916],[-0.027708333333333356,-0.31611111111111106,6.515300000011919],[-0.01906249999999995,-0.31925925925925924,6.5289000000059545],[-0.04895833333333333,-0.3301851851851852,6.5476000000238415],[-0.06031249999999998,-0.3453703703703704,6.561900000005956],[-0.058645833333333286,-0.3592592592592593,6.578499999999998],[-0.05697916666666671,-0.3731481481481482,6.595200000017876],[-0.06375000000000004,-0.357962962962963,6.61190000000596],[-0.07218749999999995,-0.3635185185185185,6.628600000023837],[-0.07833333333333338,-0.35962962962962963,6.647200000017875],[-0.08447916666666669,-0.3557407407407408,6.661800000011915],[-0.0938541666666667,-0.3351851851851852,6.679900000005958],[-0.09708333333333338,-0.32166666666666666,6.695200000017877],[-0.0765625,-0.31203703703703706,6.711900000005954],[-0.05604166666666662,-0.3024074074074074,6.728499999999997],[-0.07322916666666662,-0.30777777777777776,6.748300000011916],[-0.07124999999999998,-0.3044444444444444,6.762400000005954],[-0.06187499999999998,-0.3183333333333333,6.778499999999994],[-0.049687500000000044,-0.3025925925925925,6.79530000001192],[-0.0328125,-0.2964814814814815,6.81210000002384],[-0.015625,-0.2905555555555555,6.828499999999998],[-0.005833333333333357,-0.32037037037037036,6.846600000023841],[0.003958333333333286,-0.3501851851851852,6.86190000000596],[-0.009583333333333381,-0.3588888888888889,6.878499999999995],[-0.009583333333333381,-0.3588888888888889,6.89520000001788],[-0.02312500000000005,-0.3675925925925926,6.911900000005957],[-0.02312500000000005,-0.3675925925925926,6.928600000023842],[-0.02510416666666669,-0.36944444444444446,6.945200000017877],[-0.02510416666666669,-0.36944444444444446,6.961900000005954],[-0.029062499999999977,-0.35407407407407404,6.978600000023839],[-0.01864583333333331,-0.34370370370370373,6.995200000017881],[-0.022395833333333334,-0.35537037037037034,7.013300000011917],[-0.026145833333333358,-0.367037037037037,7.028499999999994],[-0.02833333333333338,-0.38629629629629636,7.047100000023839],[-0.044062499999999956,-0.3918518518518519,7.061900000005956],[-0.06749999999999995,-0.3609259259259259,7.078499999999998],[-0.07635416666666663,-0.3375925925925926,7.095200000017876],[-0.05458333333333331,-0.32703703703703707,7.11190000000596]]","[0.00020000001787678912,0.042100000023836515,0.06649999999999778,0.07340000000595381,0.09610000002383856,0.10449999999999449,0.13330000001191422,0.14260000002384032,0.1646000000238388,0.1711000000238414,0.19760000002384004,0.2044999999999959,0.23440000000595518,0.24280000001191837,0.2453000000119161,0.2812000000178756,0.2901000000238412,0.31449999999999534,0.3292000000178774,0.34849999999999426,0.35549999999999926,0.3838000000119166,0.3906000000238379,0.4129999999999967,0.4197000000178761,0.44920000001787486,0.4554999999999936,0.4794999999999945,0.48770000001788105,0.5146000000238402,0.5214000000059542,0.5459999999999994,0.5532000000178812,0.5823000000119194,0.5891000000238407,0.6128000000119158,0.620400000005958,0.6461000000238357,0.6547000000178755,0.6812000000178813,0.6889000000059582,0.7128000000119172,0.7212000000178804,0.7481000000238396,0.756200000017877,0.7814000000059593,0.7884000000059572,0.8128000000119187,0.8208000000119142,0.8479000000059571,0.8563000000119203,0.8814000000059536,0.8892000000178797,0.9144999999999968,0.9214000000059599,0.9478000000119167,0.9549999999999983,0.979200000017876,0.98690000000596,1.0144999999999982,1.0214000000059542,1.0461000000238414,1.053300000011916,1.080900000005954,1.088100000023836,1.1184999999999974,1.1253000000119187,1.1284999999999954,1.1484999999999985,1.1794000000059555,1.1878000000119187,1.2144000000059592,1.2211000000238386,1.248400000005958,1.2558000000119165,1.2809999999999988,1.2879000000059548,1.3127000000178768,1.320200000017877,1.3461000000238386,1.3541000000238412,1.3813000000119189,1.3888000000119192,1.39520000001788,1.4141000000238364,1.44610000002384,1.453800000011917,1.4794000000059597,1.4869999999999948,1.5149000000059587,1.5219000000059566,1.5461000000238414,1.5546000000238394,1.5814000000059565,1.589499999999994,1.5952000000178757,1.6144000000059577,1.6459999999999937,1.6537000000178779,1.6809999999999974,1.6879000000059605,1.7127000000178754,1.7203000000119175,1.747800000011921,1.7551000000238375,1.7811000000238408,1.7883000000119154,1.812600000023835,1.820200000017877,1.8477000000178805,1.855700000017876,1.8881000000238402,1.8999000000059567,1.9119000000059572,1.9286000000238417,1.945300000011919,1.9619999999999962,1.9786000000238388,2.0015,2.0119000000059586,2.028499999999994,2.0516000000238392,2.0619000000059557,2.0784999999999982,2.1047000000178784,2.123600000023842,2.1414000000059588,2.152100000023836,2.161900000005957,2.1788000000119183,2.195200000017877,2.2119000000059543,2.228499999999997,2.2472000000178767,2.2619999999999933,2.279300000011915,2.2952000000178785,2.3119000000059557,2.3301000000238403,2.3483000000119176,2.3619999999999948,2.3786000000238374,2.39520000001788,2.412100000023841,2.4284999999999997,2.4454000000059537,2.4618000000119196,2.478499999999997,2.495300000011916,2.5137000000178773,2.528499999999994,2.5468000000119204,2.564900000005956,2.5814999999999984,2.59580000001192,2.6123000000119205,2.628900000005956,2.6461000000238357,2.6618000000119153,2.67890000000596,2.695200000017877,2.712100000023838,2.728600000023839,2.748600000023842,2.7619999999999933,2.778499999999994,2.7952000000178785,2.8151000000238398,2.828800000011917,2.8454000000059594,2.864999999999995,2.879499999999993,2.895900000005959,2.9164000000059573,2.929900000005958,2.945300000011919,2.96220000001788,2.978600000023839,2.9981000000238396,3.012300000011919,3.028600000023836,3.0498000000119205,3.0649999999999977,3.080400000005959,3.095100000023841,3.11190000000596,3.131200000017877,3.145700000017875,3.16280000001192,3.1788000000119183,3.1979999999999933,3.213800000011915,3.2288000000119155,3.2487000000178767,3.2649999999999935,3.282499999999999,3.295499999999997,3.3155,3.328700000017875,3.3454000000059594,3.364999999999995,3.3787000000178793,3.3954000000059565,3.411999999999999,3.431400000005958,3.4484999999999957,3.4626000000238406,3.4827000000178785,3.497800000011921,3.5127000000178796,3.533800000011915,3.545499999999997,3.5621000000238396,3.5791000000238355,3.5984000000059595,3.612499999999997,3.6286000000238374,3.6487000000178753,3.6624000000059596,3.6784999999999997,3.695300000011919,3.711999999999996,3.728600000023839,3.7479000000059557,3.7621000000238354,3.779300000011915,3.7952000000178785,3.811800000011921,3.8286000000238403,3.846999999999994,3.86190000000596,3.8786000000238374,3.8976000000238358,3.911900000005957,3.9364000000059605,3.9454000000059537,3.9619000000059543,3.978600000023839,3.9952000000178813,4.011900000005959,4.028600000023836,4.04530000001192,4.064400000005961,4.079400000005954,4.0953000000119175,4.114200000017881,4.128700000017879,4.145700000017875,4.163600000023841,4.178999999999995,4.195800000011914,4.21330000001192,4.228499999999997,4.247900000005956,4.262200000017877,4.279300000011915,4.2952000000178785,4.311900000005956,4.3289999999999935,4.347800000011915,4.362100000023837,4.380999999999993,4.397499999999994,4.412499999999994,4.4326000000238395,4.448999999999998,4.464499999999994,4.48090000000596,4.495700000017877,4.513900000005954,4.528499999999994,4.548499999999997,4.56210000002384,4.5791000000238355,4.595200000017876,4.61190000000596,4.628499999999995,4.64670000001788,4.661900000005957,4.6785,4.695200000017877,4.711900000005954,4.728499999999997,4.7451000000238395,4.761900000005959,4.778999999999996,4.795100000023837,4.811900000005956,4.828499999999998,4.8477000000178805,4.862499999999997,4.878700000017879,4.899200000017878,4.91430000001192,4.9287000000178764,4.947999999999993,4.961900000005954,4.979900000005955,4.995200000017881,5.011900000005959,5.028600000023836,5.048200000017879,5.061900000005956,5.0822000000178775,5.098200000017876,5.1123000000119205,5.128499999999995,5.1478000000119195,5.161900000005957,5.178600000023842,5.195200000017877,5.211999999999996,5.228600000023839,5.2466000000238395,5.261900000005959,5.278499999999994,5.2952000000178785,5.311800000011921,5.328499999999998,5.347600000023839,5.36190000000596,5.378499999999995,5.3954000000059565,5.411800000011915,5.4285,5.447800000011917,5.46330000001192,5.47980000001192,5.495200000017881,5.512400000005954,5.528499999999994,5.54790000000596,5.564300000011919,5.579300000011919,5.595200000017876,5.611800000011918,5.628499999999995,5.6454000000059565,5.661900000005957,5.6785,5.697700000017875,5.71480000001192,5.728999999999999,5.7497000000178815,5.764499999999998,5.779499999999999,5.79530000001192,5.8152000000178745,5.830200000017875,5.8459999999999965,5.870999999999995,5.878700000017879,5.89560000002384,5.912200000017876,5.935300000011921,5.945600000023838,5.961999999999996,5.978600000023839,6.00110000002384,6.011999999999993,6.0289000000059545,6.0537000000178764,6.061900000005956,6.078499999999998,6.0953000000119175,6.112400000005955,6.128600000023837,6.147900000005954,6.161900000005957,6.180999999999997,6.195200000017877,6.211900000005954,6.228600000023839,6.248700000017877,6.26420000001788,6.284200000017876,6.299300000011918,6.311999999999998,6.328499999999998,6.3453000000119175,6.36190000000596,6.378499999999995,6.395100000023838,6.411800000011915,6.4285,6.4479000000059585,6.461999999999996,6.4788000000119155,6.495300000011916,6.515300000011919,6.5289000000059545,6.5476000000238415,6.561900000005956,6.578499999999998,6.595200000017876,6.61190000000596,6.628600000023837,6.647200000017875,6.661800000011915,6.679900000005958,6.695200000017877,6.711900000005954,6.728499999999997,6.748300000011916,6.762400000005954,6.778499999999994,6.79530000001192,6.81210000002384,6.828499999999998,6.846600000023841,6.86190000000596,6.878499999999995,6.89520000001788,6.911900000005957,6.928600000023842,6.945200000017877,6.961900000005954,6.978600000023839,6.995200000017881,7.013300000011917,7.028499999999994,7.047100000023839,7.061900000005956,7.078499999999998,7.095200000017876,7.11190000000596]","[1732770159608,1732770159643,1732770159667,1732770159674,1732770159697,1732770159705,1732770159734,1732770159743,1732770159765,1732770159772,1732770159798,1732770159805,1732770159835,1732770159844,1732770159846,1732770159882,1732770159891,1732770159915,1732770159930,1732770159949,1732770159956,1732770159985,1732770159991,1732770160014,1732770160020,1732770160050,1732770160056,1732770160080,1732770160088,1732770160115,1732770160122,1732770160147,1732770160154,1732770160183,1732770160190,1732770160213,1732770160221,1732770160247,1732770160255,1732770160282,1732770160290,1732770160314,1732770160322,1732770160349,1732770160357,1732770160382,1732770160389,1732770160414,1732770160422,1732770160449,1732770160457,1732770160482,1732770160490,1732770160515,1732770160522,1732770160549,1732770160556,1732770160580,1732770160588,1732770160615,1732770160622,1732770160647,1732770160654,1732770160682,1732770160689,1732770160719,1732770160726,1732770160729,1732770160749,1732770160780,1732770160788,1732770160815,1732770160822,1732770160849,1732770160857,1732770160882,1732770160889,1732770160913,1732770160921,1732770160947,1732770160955,1732770160982,1732770160990,1732770160996,1732770161015,1732770161047,1732770161055,1732770161080,1732770161088,1732770161116,1732770161123,1732770161147,1732770161155,1732770161182,1732770161190,1732770161196,1732770161215,1732770161247,1732770161254,1732770161282,1732770161289,1732770161313,1732770161321,1732770161349,1732770161356,1732770161382,1732770161389,1732770161413,1732770161421,1732770161448,1732770161456,1732770161489,1732770161501,1732770161513,1732770161529,1732770161546,1732770161563,1732770161579,1732770161602,1732770161613,1732770161629,1732770161652,1732770161663,1732770161679,1732770161705,1732770161724,1732770161742,1732770161753,1732770161763,1732770161780,1732770161796,1732770161813,1732770161829,1732770161848,1732770161863,1732770161880,1732770161896,1732770161913,1732770161931,1732770161949,1732770161963,1732770161979,1732770161996,1732770162013,1732770162029,1732770162046,1732770162063,1732770162079,1732770162096,1732770162115,1732770162129,1732770162148,1732770162166,1732770162182,1732770162197,1732770162213,1732770162230,1732770162247,1732770162263,1732770162280,1732770162296,1732770162313,1732770162329,1732770162349,1732770162363,1732770162379,1732770162396,1732770162416,1732770162430,1732770162446,1732770162466,1732770162480,1732770162497,1732770162517,1732770162531,1732770162546,1732770162563,1732770162579,1732770162599,1732770162613,1732770162629,1732770162651,1732770162666,1732770162681,1732770162696,1732770162713,1732770162732,1732770162746,1732770162763,1732770162780,1732770162799,1732770162815,1732770162830,1732770162850,1732770162866,1732770162883,1732770162896,1732770162916,1732770162929,1732770162946,1732770162966,1732770162979,1732770162996,1732770163013,1732770163032,1732770163049,1732770163063,1732770163083,1732770163099,1732770163113,1732770163135,1732770163146,1732770163163,1732770163180,1732770163199,1732770163213,1732770163229,1732770163249,1732770163263,1732770163279,1732770163296,1732770163313,1732770163329,1732770163349,1732770163363,1732770163380,1732770163396,1732770163413,1732770163429,1732770163448,1732770163463,1732770163479,1732770163498,1732770163513,1732770163537,1732770163546,1732770163563,1732770163579,1732770163596,1732770163613,1732770163629,1732770163646,1732770163665,1732770163680,1732770163696,1732770163715,1732770163729,1732770163746,1732770163764,1732770163780,1732770163797,1732770163814,1732770163829,1732770163849,1732770163863,1732770163880,1732770163896,1732770163913,1732770163930,1732770163949,1732770163963,1732770163982,1732770163998,1732770164013,1732770164033,1732770164050,1732770164065,1732770164082,1732770164096,1732770164115,1732770164129,1732770164149,1732770164163,1732770164180,1732770164196,1732770164213,1732770164229,1732770164247,1732770164263,1732770164279,1732770164296,1732770164313,1732770164329,1732770164346,1732770164363,1732770164380,1732770164396,1732770164413,1732770164429,1732770164448,1732770164463,1732770164479,1732770164500,1732770164515,1732770164529,1732770164549,1732770164563,1732770164581,1732770164596,1732770164613,1732770164629,1732770164649,1732770164663,1732770164683,1732770164699,1732770164713,1732770164729,1732770164749,1732770164763,1732770164779,1732770164796,1732770164813,1732770164829,1732770164847,1732770164863,1732770164879,1732770164896,1732770164913,1732770164929,1732770164948,1732770164963,1732770164979,1732770164996,1732770165013,1732770165029,1732770165049,1732770165064,1732770165081,1732770165096,1732770165113,1732770165129,1732770165149,1732770165165,1732770165180,1732770165196,1732770165213,1732770165229,1732770165246,1732770165263,1732770165279,1732770165298,1732770165316,1732770165330,1732770165350,1732770165365,1732770165380,1732770165396,1732770165416,1732770165431,1732770165447,1732770165472,1732770165479,1732770165496,1732770165513,1732770165536,1732770165546,1732770165563,1732770165579,1732770165602,1732770165613,1732770165630,1732770165654,1732770165663,1732770165679,1732770165696,1732770165713,1732770165729,1732770165749,1732770165763,1732770165782,1732770165796,1732770165813,1732770165829,1732770165849,1732770165865,1732770165885,1732770165900,1732770165913,1732770165929,1732770165946,1732770165963,1732770165979,1732770165996,1732770166013,1732770166029,1732770166049,1732770166063,1732770166079,1732770166096,1732770166116,1732770166130,1732770166148,1732770166163,1732770166179,1732770166196,1732770166213,1732770166229,1732770166248,1732770166263,1732770166281,1732770166296,1732770166313,1732770166329,1732770166349,1732770166363,1732770166379,1732770166396,1732770166413,1732770166429,1732770166447,1732770166463,1732770166479,1732770166496,1732770166513,1732770166529,1732770166546,1732770166563,1732770166579,1732770166596,1732770166614,1732770166629,1732770166648,1732770166663,1732770166679,1732770166696,1732770166713]","[[899.4,607.4],[899.4,607.4],[889.5,607.3],[889.5,607.3],[876,580.3],[876,580.3],[877.8,583],[877.8,583],[875,596.3],[875,596.3],[865,582.4],[865,582.4],[834.5,540.3],[834.5,540.3],[834.5,540.3],[842.8,577.1],[842.8,577.1],[867.9,596.6],[867.9,596.6],[880.9,632.3],[880.9,632.3],[906.2,656.8],[906.2,656.8],[934.5,654.2],[934.5,654.2],[945.2,708.7],[945.2,708.7],[937.5,730.7],[937.5,730.7],[939,728.5],[939,728.5],[929,759.4],[929,759.4],[936.2,802.5],[936.2,802.5],[935.7,789.3],[935.7,789.3],[911.7,803.5],[911.7,803.5],[884.1,805],[884.1,805],[832.2,813.7],[832.2,813.7],[812.6,789.6],[812.6,789.6],[789,767.4],[789,767.4],[771.7,764],[771.7,764],[739.6,761],[739.6,761],[737.1,740.6],[737.1,740.6],[725,747.9],[725,747.9],[707.1,752],[707.1,752],[702.6,755.1],[702.6,755.1],[707.6,747.5],[707.6,747.5],[743.7,747.4],[743.7,747.4],[733.4,750.6],[733.4,750.6],[768,781.9],[768,781.9],[768,781.9],[768,781.9],[782.5,790.9],[782.5,790.9],[810.6,803.3],[810.6,803.3],[821.2,812.5],[821.2,812.5],[849.5,806.9],[849.5,806.9],[867.2,815.9],[867.2,815.9],[875,809.4],[875,809.4],[886.7,817.7],[886.7,817.7],[886.7,817.7],[886.7,817.7],[888.1,827.2],[888.1,827.2],[896.3,825.7],[896.3,825.7],[866.5,819.4],[866.5,819.4],[855.7,813.3],[855.7,813.3],[854.6,809],[854.6,809],[854.6,809],[854.6,809],[853,813.8],[853,813.8],[850.5,818.1],[850.5,818.1],[840.9,801.8],[840.9,801.8],[843,794.2],[843,794.2],[825.1,780.9],[825.1,780.9],[796,727.6],[796,727.6],[777.8,703.7],[777.8,703.7],[759.3,662.4],[759.3,662.4],[758.4,622.6],[758.4,622.6],[733.1,599.5],[733.1,599.5],[717.7,581.9],[699.2,581.5],[699.2,581.5],[691,589],[688.3,564.7],[688.3,564.7],[692.6,546.2],[695,565.7],[695,565.7],[698.4,563.4],[698.4,563.4],[699,570.9],[687,578.9],[686.3,578.2],[677.9,545.4],[668.7,499],[652.7,472.3],[629,456.7],[600.4,473.5],[576.8,490.1],[572.3,513.6],[558.7,528.6],[550.1,546.7],[541.2,556.5],[535.4,553.8],[523.4,569.1],[514.2,561.5],[514.2,561.5],[502.7,575.5],[505.5,550.8],[505.5,550.8],[517.6,538.1],[521.6,536.2],[534.9,525.2],[558.9,518.9],[580.5,511.6],[600.4,545.9],[637.8,560.4],[655.5,576.8],[669.2,590],[703.2,596],[710.9,580.1],[740.6,579.1],[770.3,578.1],[770,560.4],[768.1,549.6],[763.1,527.2],[756.7,535.4],[768.4,526.5],[797.7,509.2],[806.4,503.6],[829.1,540.1],[829.1,540.1],[845.8,556.1],[833.3,571.2],[840.1,598.3],[865.1,628.6],[894.5,667.6],[894.6,666.4],[894.6,666.4],[900.3,683.6],[879.7,703.7],[884.3,732.9],[883.8,722.4],[862.4,701.3],[863,694.6],[863.6,687.9],[850.3,680.4],[836.3,665.7],[842.8,678.7],[862,690.4],[890.4,704.3],[893.6,709.1],[910.9,701.5],[920.7,726.9],[937.7,738.8],[946,749.6],[958.8,757.3],[940.4,744.9],[940.4,744.9],[917.8,718.2],[917.8,718.2],[887.8,693.2],[881.4,680.2],[878.7,676.5],[850.7,670.1],[834.5,665.2],[818.3,660.3],[792.5,645.1],[762.2,633],[776.8,641],[798.2,639.9],[814.3,638.4],[803.4,626],[803.4,626],[803,609.7],[814.1,625.3],[828.9,608],[852.5,610.5],[883.4,606.2],[912.6,613.9],[933,621.5],[933,621.5],[948.3,633.2],[979.5,645.3],[994.3,671.8],[997,674.1],[1006.8,664.6],[1006.1,674.8],[996.6,665.2],[1024.4,684],[1052.7,692.5],[1058.8,687.3],[1058.8,687.3],[1064.9,687.1],[1064.9,687.1],[1049,693.7],[1047.4,686.2],[1047.4,686.2],[1054.5,690.2],[1054.5,690.2],[1063,693.9],[1063,693.9],[1070.7,704.7],[1070.7,704.7],[1075.4,699.8],[1040.4,690.7],[1006.6,679.9],[1006.3,684.1],[1007.4,686.3],[1014.8,693.6],[1035,690],[1031.2,687.3],[1025.4,684.9],[1036.9,669.7],[1042.9,664.2],[1074.4,656.3],[1105.9,648.7],[1107,650.9],[1107.8,646.3],[1108.3,628.6],[1106.4,627.2],[1104.9,633.1],[1113.6,639.2],[1108.4,646.7],[1100.6,662.1],[1073.5,670.9],[1053.6,682.4],[1018.4,674],[983.5,672.4],[961.1,655.5],[933.1,635],[896.4,619.9],[865.7,603.5],[826.3,588.6],[798,571.8],[773.6,564.2],[749.3,547.5],[749.6,552.9],[748.5,560.3],[738.2,562.6],[728.3,564.9],[735,565.3],[726.1,566.8],[725.6,564.5],[738,562.1],[751.3,557.1],[737.3,562],[728.1,552.7],[726,523.2],[731.3,519.3],[725.8,511.1],[751.4,530],[751.4,530],[777,548.9],[800.4,574.7],[809,589.2],[820,600.1],[850.7,610.6],[877.8,620.6],[909.9,639.5],[931.4,654],[931.4,654],[960.8,668.7],[952.4,658.4],[947.2,649.1],[971.8,618.6],[966.5,600.3],[966.8,566.4],[981.5,539.3],[996.2,512.2],[995,479.7],[993.8,447.2],[992.3,425.5],[1002.4,397.3],[1009.3,368.1],[993.7,349],[1014.3,322.7],[1005.3,317.6],[982.2,302.3],[970.1,310.7],[963.2,333.8],[960.3,328.1],[960.4,315.8],[946.9,324.3],[933.4,332.8],[928.1,417.2],[918.4,508],[920.3,642.6],[922.2,777.2],[920.8,869.7],[920.8,955.2],[902.9,1068.2],[874.7,1146.7],[860.1,1204.4],[842.2,1244.3],[814.6,1190.5],[797.4,1126.4],[792.6,1012.9],[787.8,899.4],[761.6,820.1],[734,747.8],[742.9,660.3],[772,613.9],[789.7,544.6],[810.7,493.1],[832,473.9],[845.6,475],[859.1,458],[872.6,441],[899.6,421.9],[926.4,403.3],[912.1,390.4],[895.7,371.2],[895.7,371.2],[899.7,378],[899.7,378],[898.5,377.6],[898.5,377.6],[900.8,392.9],[900.8,392.9],[916.6,388.5],[916.6,388.5],[932,400.9],[927.4,409],[927.4,409],[929.6,400.9],[934,392.4],[954.6,399.4],[967.4,406.1],[961.5,398.8],[960.8,398.7],[961.5,379],[946,369],[932.6,363.2],[939.2,361.7],[936.5,355.7],[931.8,349.6],[931.8,349.6],[926.3,342.8],[926.3,342.8],[926.1,343.1],[926.1,343.1],[928.7,353.6],[949.9,359.1],[944.9,362.7],[939.9,366.3],[933.3,367],[927.7,361.3],[930.6,367.3],[926.8,373.4],[926.1,375.5],[933.4,369.3],[941.7,367.6],[913,361.7],[902.1,353.5],[903.7,346],[905.3,338.5],[898.8,346.7],[890.7,343.7],[884.8,345.8],[878.9,347.9],[869.9,359],[866.8,366.3],[886.5,371.5],[906.2,376.7],[889.7,373.8],[891.6,375.6],[900.6,368.1],[912.3,376.6],[928.5,379.9],[945,383.1],[954.4,367],[963.8,350.9],[950.8,346.2],[950.8,346.2],[937.8,341.5],[937.8,341.5],[935.9,340.5],[935.9,340.5],[932.1,348.8],[942.1,354.4],[938.5,348.1],[934.9,341.8],[932.8,331.4],[917.7,328.4],[895.2,345.1],[886.7,357.7],[907.6,363.4]]","[0,0.37864299999999995]","[0.37864299999999995,0.37864299999999995]","[-0.37864299999999995,0]","[-0.37864299999999995,-0.37864299999999995]","[0,0]","[0.37864299999999995,0]","[0,-0.37864299999999995]","[0.37864299999999995,-0.37864299999999995]",0,0,0,0,1,3,Laptop,11,9,9,1
