inst1_resp.keys,inst1_resp.rt,calibrationMouse.x,calibrationMouse.y,calibrationMouse.leftButton,calibrationMouse.midButton,calibrationMouse.rightButton,calibrationClick.x,calibrationClick.y,calibrationClick.leftButton,calibrationClick.midButton,calibrationClick.rightButton,calibrationClick.clicked_name,trialsc.thisRepN,trialsc.thisTrialN,trialsc.thisN,trialsc.thisIndex,trialsc.ran,calibration_x,calibration_y,participant,session,date,expName,psychopyVersion,OS,frameRate,ScreenRes_pixels,Camera_pixels,mouse_2.x,mouse_2.y,mouse_2.leftButton,mouse_2.midButton,mouse_2.rightButton,mouse_2.time,mouse_2.clicked_name,mouse.x,mouse.y,mouse.leftButton,mouse.midButton,mouse.rightButton,mouse.time,mouse.clicked_name,Choice,Trial,TrialDuration,MOUSE_GAZE,ET_GAZE,ET_GAZE_x_T,time,unixTime,ET_GAZE_NF,Loc_Option1_label,Loc_Option2_label,Loc_Cost_label,Loc_Qual_label,Loc_Option1_cost,Loc_Option2_cost,Loc_Option1_quality,Loc_Option2_quality,trials.thisRepN,trials.thisTrialN,trials.thisN,trials.thisIndex,trials.ran,Block,Device,cost1,qual1,cost2,qual2
space,2.2347,0.109375,-0.294444444,1,0,0,-0.00625,-0.672222222,1,0,0,calibration_square,0,0,0,9,1,0,-0.67,48,001,2024-12-03_15h32.52.659,Attention_exp_legacy,2023.1.0,Win32,59.88023952,,,,,,,,,,,,,,,,,,,,,,,,,,,,,,,,,,,,,,,,,,,,
,,,,,,,-0.329166667,0.333333333,1,0,0,calibration_square,0,1,1,7,1,-0.33,0.33,48,001,2024-12-03_15h32.52.659,Attention_exp_legacy,2023.1.0,Win32,59.88023952,,,,,,,,,,,,,,,,,,,,,,,,,,,,,,,,,,,,,,,,,,,,
,,,,,,,-0.330208333,0.67962963,1,0,0,calibration_square,0,2,2,8,1,-0.33,0.67,48,001,2024-12-03_15h32.52.659,Attention_exp_legacy,2023.1.0,Win32,59.88023952,,,,,,,,,,,,,,,,,,,,,,,,,,,,,,,,,,,,,,,,,,,,
,,,,,,,-0.333333333,-0.338888889,1,0,0,calibration_square,0,3,3,5,1,-0.33,-0.33,48,001,2024-12-03_15h32.52.659,Attention_exp_legacy,2023.1.0,Win32,59.88023952,,,,,,,,,,,,,,,,,,,,,,,,,,,,,,,,,,,,,,,,,,,,
,,,,,,,-0.004166667,0.001851852,1,0,0,calibration_square,0,4,4,11,1,0,0,48,001,2024-12-03_15h32.52.659,Attention_exp_legacy,2023.1.0,Win32,59.88023952,,,,,,,,,,,,,,,,,,,,,,,,,,,,,,,,,,,,,,,,,,,,
,,,,,,,-0.666666667,-0.67037037,1,0,0,calibration_square,0,5,5,0,1,-0.67,-0.67,48,001,2024-12-03_15h32.52.659,Attention_exp_legacy,2023.1.0,Win32,59.88023952,,,,,,,,,,,,,,,,,,,,,,,,,,,,,,,,,,,,,,,,,,,,
,,,,,,,-0.328125,-0.675925926,1,0,0,calibration_square,0,6,6,4,1,-0.33,-0.67,48,001,2024-12-03_15h32.52.659,Attention_exp_legacy,2023.1.0,Win32,59.88023952,,,,,,,,,,,,,,,,,,,,,,,,,,,,,,,,,,,,,,,,,,,,
,,,,,,,-0.00625,-0.331481481,1,0,0,calibration_square,0,7,7,10,1,0,-0.33,48,001,2024-12-03_15h32.52.659,Attention_exp_legacy,2023.1.0,Win32,59.88023952,,,,,,,,,,,,,,,,,,,,,,,,,,,,,,,,,,,,,,,,,,,,
,,,,,,,0.325,0.668518519,1,0,0,calibration_square,0,8,8,18,1,0.33,0.67,48,001,2024-12-03_15h32.52.659,Attention_exp_legacy,2023.1.0,Win32,59.88023952,,,,,,,,,,,,,,,,,,,,,,,,,,,,,,,,,,,,,,,,,,,,
,,,,,,,-0.671875,-0.001851852,1,0,0,calibration_square,0,9,9,2,1,-0.67,0,48,001,2024-12-03_15h32.52.659,Attention_exp_legacy,2023.1.0,Win32,59.88023952,,,,,,,,,,,,,,,,,,,,,,,,,,,,,,,,,,,,,,,,,,,,
,,,,,,,0.330208333,0.007407407,1,0,0,calibration_square,0,10,10,16,1,0.33,0,48,001,2024-12-03_15h32.52.659,Attention_exp_legacy,2023.1.0,Win32,59.88023952,,,,,,,,,,,,,,,,,,,,,,,,,,,,,,,,,,,,,,,,,,,,
,,,,,,,-0.3375,-0.001851852,1,0,0,calibration_square,0,11,11,6,1,-0.33,0,48,001,2024-12-03_15h32.52.659,Attention_exp_legacy,2023.1.0,Win32,59.88023952,,,,,,,,,,,,,,,,,,,,,,,,,,,,,,,,,,,,,,,,,,,,
,,,,,,,0.6625,-0.683333333,1,0,0,,0,12,12,20,1,0.67,-0.67,48,001,2024-12-03_15h32.52.659,Attention_exp_legacy,2023.1.0,Win32,59.88023952,,,,,,,,,,,,,,,,,,,,,,,,,,,,,,,,,,,,,,,,,,,,
,,,,,,,0.321875,-0.335185185,1,0,0,calibration_square,0,13,13,15,1,0.33,-0.33,48,001,2024-12-03_15h32.52.659,Attention_exp_legacy,2023.1.0,Win32,59.88023952,,,,,,,,,,,,,,,,,,,,,,,,,,,,,,,,,,,,,,,,,,,,
,,,,,,,0.323958333,-0.681481481,1,0,0,,0,14,14,14,1,0.33,-0.67,48,001,2024-12-03_15h32.52.659,Attention_exp_legacy,2023.1.0,Win32,59.88023952,,,,,,,,,,,,,,,,,,,,,,,,,,,,,,,,,,,,,,,,,,,,
,,,,,,,0.669791667,0.683333333,1,0,0,,0,15,15,19,1,0.67,0.67,48,001,2024-12-03_15h32.52.659,Attention_exp_legacy,2023.1.0,Win32,59.88023952,,,,,,,,,,,,,,,,,,,,,,,,,,,,,,,,,,,,,,,,,,,,
,,,,,,,-0.008333333,0.32962963,1,0,0,calibration_square,0,16,16,12,1,0,0.33,48,001,2024-12-03_15h32.52.659,Attention_exp_legacy,2023.1.0,Win32,59.88023952,,,,,,,,,,,,,,,,,,,,,,,,,,,,,,,,,,,,,,,,,,,,
,,,,,,,-0.672916667,0.325925926,1,0,0,calibration_square,0,17,17,3,1,-0.67,0.33,48,001,2024-12-03_15h32.52.659,Attention_exp_legacy,2023.1.0,Win32,59.88023952,,,,,,,,,,,,,,,,,,,,,,,,,,,,,,,,,,,,,,,,,,,,
,,,,,,,0.0125,0.677777778,1,0,0,,0,18,18,13,1,0,0.67,48,001,2024-12-03_15h32.52.659,Attention_exp_legacy,2023.1.0,Win32,59.88023952,,,,,,,,,,,,,,,,,,,,,,,,,,,,,,,,,,,,,,,,,,,,
,,,,,,,0.332291667,0.32962963,1,0,0,calibration_square,0,19,19,17,1,0.33,0.33,48,001,2024-12-03_15h32.52.659,Attention_exp_legacy,2023.1.0,Win32,59.88023952,,,,,,,,,,,,,,,,,,,,,,,,,,,,,,,,,,,,,,,,,,,,
,,,,,,,-0.6625,-0.325925926,1,0,0,calibration_square,0,20,20,1,1,-0.67,-0.33,48,001,2024-12-03_15h32.52.659,Attention_exp_legacy,2023.1.0,Win32,59.88023952,,,,,,,,,,,,,,,,,,,,,,,,,,,,,,,,,,,,,,,,,,,,
,,,,,,,,,,,,,,,,,,,,48,001,2024-12-03_15h32.52.659,Attention_exp_legacy,2023.1.0,Win32,59.88023952,"[1920,1080]","[640,480]",[0.004166666666666667],[-0.4925925925925926],[1],[0],[0],[1.7352999999998175],"[""StartButton""]",[0.31666666666666665],[0.37222222222222223],[1],[0],[0],[2.271500000000003],"[""Option2_label""]",Option2_label,1,3.2797,"[[-0.028125,-0.5296296296296297],[-0.028125,-0.5296296296296297],[-0.028125,-0.5296296296296297],[-0.028125,-0.5296296296296297],[-0.028125,-0.5296296296296297],[-0.028125,-0.5296296296296297],[-0.028125,-0.5296296296296297],[-0.028125,-0.5296296296296297],[-0.028125,-0.5296296296296297],[-0.028125,-0.5296296296296297],[-0.028125,-0.5296296296296297],[-0.028125,-0.5296296296296297],[-0.028125,-0.5296296296296297],[-0.028125,-0.5296296296296297],[-0.028125,-0.5296296296296297],[-0.028125,-0.5296296296296297],[-0.028125,-0.5296296296296297],[-0.028125,-0.5296296296296297],[-0.028125,-0.5296296296296297],[-0.028125,-0.5296296296296297],[-0.028125,-0.5296296296296297],[-0.029166666666666667,-0.5296296296296297],[-0.03229166666666667,-0.5222222222222223],[-0.035416666666666666,-0.4981481481481482],[-0.040625,-0.4703703703703704],[-0.046875,-0.4462962962962963],[-0.053125,-0.4222222222222222],[-0.06041666666666667,-0.40185185185185185],[-0.06354166666666666,-0.3925925925925926],[-0.06458333333333334,-0.3907407407407407],[-0.065625,-0.3888888888888889],[-0.065625,-0.387037037037037],[-0.065625,-0.387037037037037],[-0.065625,-0.387037037037037],[-0.065625,-0.387037037037037],[-0.065625,-0.387037037037037],[-0.065625,-0.387037037037037],[-0.065625,-0.387037037037037],[-0.065625,-0.387037037037037],[-0.065625,-0.387037037037037],[-0.065625,-0.387037037037037],[-0.065625,-0.387037037037037],[-0.065625,-0.387037037037037],[-0.065625,-0.387037037037037],[-0.065625,-0.387037037037037],[-0.065625,-0.387037037037037],[-0.065625,-0.387037037037037],[-0.065625,-0.387037037037037],[-0.065625,-0.387037037037037],[-0.065625,-0.387037037037037],[-0.065625,-0.387037037037037],[-0.065625,-0.387037037037037],[-0.065625,-0.387037037037037],[-0.065625,-0.387037037037037],[-0.065625,-0.387037037037037],[-0.065625,-0.387037037037037],[-0.065625,-0.387037037037037],[-0.065625,-0.387037037037037],[-0.065625,-0.387037037037037],[-0.065625,-0.387037037037037],[-0.065625,-0.387037037037037],[-0.065625,-0.387037037037037],[-0.065625,-0.387037037037037],[-0.065625,-0.387037037037037],[-0.065625,-0.387037037037037],[-0.065625,-0.387037037037037],[-0.065625,-0.387037037037037],[-0.065625,-0.387037037037037],[-0.065625,-0.3851851851851852],[-0.06041666666666667,-0.37777777777777777],[-0.03854166666666667,-0.36666666666666664],[0.011458333333333333,-0.34814814814814815],[0.11875,-0.32037037037037036],[0.2375,-0.29444444444444445],[0.36041666666666666,-0.26851851851851855],[0.446875,-0.2574074074074074],[0.48854166666666665,-0.2537037037037037],[0.4895833333333333,-0.2537037037037037],[0.4895833333333333,-0.2537037037037037],[0.4895833333333333,-0.2537037037037037],[0.4895833333333333,-0.2537037037037037],[0.4895833333333333,-0.2537037037037037],[0.4895833333333333,-0.2537037037037037],[0.4895833333333333,-0.2537037037037037],[0.4895833333333333,-0.2537037037037037],[0.48333333333333334,-0.2462962962962963],[0.475,-0.23703703703703705],[0.45208333333333334,-0.21296296296296297],[0.43333333333333335,-0.18518518518518517],[0.4166666666666667,-0.16111111111111112],[0.4010416666666667,-0.13703703703703704],[0.38958333333333334,-0.12037037037037036],[0.38229166666666664,-0.10555555555555556],[0.37604166666666666,-0.09444444444444444],[0.371875,-0.08888888888888889],[0.36666666666666664,-0.07777777777777778],[0.3614583333333333,-0.06481481481481481],[0.35625,-0.05],[0.35,-0.03148148148148148],[0.34791666666666665,-0.025925925925925925],[0.3458333333333333,-0.014814814814814815],[0.34270833333333334,-0.001851851851851852],[0.3375,0.022222222222222223],[0.3333333333333333,0.05],[0.328125,0.07407407407407407],[0.3260416666666667,0.09074074074074075],[0.32395833333333335,0.10185185185185185],[0.321875,0.10555555555555556],[0.31979166666666664,0.10925925925925926],[0.31979166666666664,0.11296296296296296],[0.31875,0.12037037037037036],[0.315625,0.12777777777777777],[0.30833333333333335,0.15],[0.30416666666666664,0.16296296296296298],[0.30104166666666665,0.17592592592592593],[0.29791666666666666,0.18333333333333332],[0.2947916666666667,0.19074074074074074],[0.29270833333333335,0.19814814814814816],[0.28854166666666664,0.20555555555555555],[0.2864583333333333,0.2111111111111111],[0.284375,0.21666666666666667],[0.28229166666666666,0.22592592592592592],[0.28020833333333334,0.2388888888888889],[0.2791666666666667,0.26481481481481484],[0.2791666666666667,0.28888888888888886],[0.2833333333333333,0.31296296296296294],[0.2916666666666667,0.3333333333333333],[0.3,0.35],[0.30625,0.3574074074074074],[0.3104166666666667,0.362962962962963],[0.31354166666666666,0.3685185185185185],[0.31666666666666665,0.37222222222222223],[0.31666666666666665,0.37222222222222223],[0.31666666666666665,0.37222222222222223],[0.31666666666666665,0.37222222222222223],[0.31666666666666665,0.37222222222222223],[0.31666666666666665,0.37222222222222223],[0.31666666666666665,0.37222222222222223],[0.31666666666666665,0.37222222222222223],[0.31666666666666665,0.37222222222222223],[0.31666666666666665,0.37222222222222223],[0.31666666666666665,0.37222222222222223],[0.31666666666666665,0.37222222222222223],[0.31666666666666665,0.37222222222222223],[0.31666666666666665,0.37222222222222223],[0.31666666666666665,0.37222222222222223],[0.31666666666666665,0.37222222222222223],[0.31666666666666665,0.37222222222222223],[0.31666666666666665,0.37222222222222223],[0.31666666666666665,0.37222222222222223],[0.31666666666666665,0.37222222222222223],[0.31666666666666665,0.37222222222222223],[0.31666666666666665,0.37222222222222223],[0.31666666666666665,0.37222222222222223],[0.31666666666666665,0.37222222222222223],[0.31666666666666665,0.37222222222222223],[0.31666666666666665,0.37222222222222223],[0.31666666666666665,0.37222222222222223],[0.31666666666666665,0.37222222222222223],[0.31666666666666665,0.37222222222222223],[0.31666666666666665,0.37222222222222223],[0.31666666666666665,0.37222222222222223],[0.31666666666666665,0.37222222222222223],[0.31666666666666665,0.37222222222222223],[0.31666666666666665,0.37222222222222223],[0.31666666666666665,0.37222222222222223],[0.31666666666666665,0.37222222222222223],[0.31666666666666665,0.37222222222222223],[0.31666666666666665,0.37222222222222223],[0.31666666666666665,0.37222222222222223],[0.31666666666666665,0.37222222222222223],[0.31666666666666665,0.37222222222222223],[0.31666666666666665,0.37222222222222223],[0.31666666666666665,0.37222222222222223],[0.31666666666666665,0.37222222222222223],[0.31666666666666665,0.37222222222222223],[0.31666666666666665,0.37222222222222223],[0.31666666666666665,0.37222222222222223],[0.31666666666666665,0.37222222222222223],[0.31666666666666665,0.37222222222222223],[0.31666666666666665,0.37222222222222223],[0.31666666666666665,0.37222222222222223],[0.31666666666666665,0.37222222222222223],[0.31666666666666665,0.37222222222222223],[0.31666666666666665,0.37222222222222223],[0.31666666666666665,0.37222222222222223],[0.31666666666666665,0.37222222222222223],[0.31666666666666665,0.37222222222222223],[0.31666666666666665,0.37222222222222223],[0.31666666666666665,0.37222222222222223],[0.31666666666666665,0.37222222222222223],[0.31666666666666665,0.37222222222222223],[0.31666666666666665,0.37222222222222223],[0.31666666666666665,0.37222222222222223],[0.31666666666666665,0.37222222222222223],[0.31666666666666665,0.37222222222222223],[0.31666666666666665,0.37222222222222223]]","[[0.029895833333333382,-0.23499999999999996],[0.029895833333333382,-0.23499999999999996],[0.029895833333333382,-0.23499999999999996],[0.024374999999999977,-0.2324074074074074],[0.03999999999999997,-0.23740740740740737],[0.03999999999999997,-0.23740740740740737],[0.042708333333333334,-0.21722222222222223],[0.03718750000000005,-0.22018518518518515],[0.042708333333333334,-0.2183333333333333],[0.04239583333333338,-0.19685185185185186],[0.04593750000000003,-0.14777777777777779],[0.036249999999999956,-0.1096296296296296],[0.042499999999999954,-0.07000000000000002],[0.029166666666666667,-0.07018518518518514],[0.02802083333333331,-0.06666666666666667],[0.021354166666666667,-0.05611111111111113],[0.021354166666666667,-0.05611111111111113],[0.015104166666666667,-0.03777777777777774],[0.01114583333333338,-0.014259259259259343],[0.01395833333333331,0.022777777777777692],[0.0012500000000000473,0.012962962962962963],[-0.012812499999999952,0.03537037037037041],[-0.027083333333333334,0.06666666666666667],[-0.03833333333333329,0.08277777777777787],[-0.016458333333333287,0.12148148148148152],[-0.013541666666666667,0.14000000000000004],[-0.02666666666666669,0.1448148148148149],[-0.03135416666666669,0.12444444444444452],[-0.05916666666666662,0.1316666666666667],[-0.08979166666666671,0.14629629629629629],[-0.09468749999999998,0.1875925925925925],[-0.10093749999999997,0.1896296296296296],[-0.10322916666666669,0.18259259259259264],[-0.13062499999999996,0.1418518518518519],[-0.18531249999999996,0.08870370370370366],[-0.21343749999999997,0.08129629629629626],[-0.23999999999999996,0.10166666666666663],[-0.2319791666666667,0.12222222222222222],[-0.19489583333333335,0.1331481481481481],[-0.15281250000000005,0.12740740740740733],[-0.1310416666666666,0.11037037037037041],[-0.10291666666666661,0.1124074074074075],[-0.07479166666666662,0.11444444444444436],[-0.03729166666666662,0.13666666666666658],[0.015104166666666667,0.19074074074074074],[0.05510416666666664,0.2140740740740741],[0.09281249999999991,0.22074074074074082],[0.1040625000000001,0.27444444444444455],[0.11510416666666666,0.3101851851851852],[0.12666666666666657,0.3948148148148149],[0.15739583333333323,0.5199999999999999],[0.16135416666666677,0.6157407407407407],[0.1724999999999999,0.7218518518518517],[0.19635416666666666,0.8566666666666667],[0.2053124999999999,0.9596296296296297],[0.21822916666666667,0.9909259259259258],[0.22864583333333333,1.0157407407407408],[0.25666666666666677,1.0951851851851853],[0.2664583333333333,1.1470370370370373],[0.253125,1.174074074074074],[0.23156249999999995,1.1857407407407408],[0.23291666666666658,1.2007407407407409],[0.22708333333333333,1.2053703703703706],[0.24083333333333337,1.219814814814815],[0.25458333333333344,1.2342592592592592],[0.2681250000000001,1.3388888888888888],[0.3017708333333334,1.4766666666666668],[0.2830208333333334,1.4755555555555555],[0.28270833333333345,1.52],[0.2816666666666668,1.4266666666666667],[0.27541666666666675,1.312777777777778],[0.2686458333333334,1.2175925925925926],[0.26802083333333326,1.1394444444444443],[0.24104166666666677,1.0399999999999998],[0.21749999999999994,0.905925925925926],[0.19500000000000003,0.7585185185185186],[0.19500000000000003,0.7585185185185186],[0.1671875,0.619074074074074],[0.12145833333333324,0.4737037037037036],[0.07645833333333343,0.35592592592592603],[0.04583333333333333,0.3475925925925927],[0.02041666666666669,0.34666666666666673],[-0.003854166666666714,0.3412962962962962],[-0.020937500000000022,0.2975925925925927],[-0.06197916666666667,0.24537037037037038],[-0.09656250000000005,0.28944444444444434],[-0.06218750000000005,0.29796296296296293],[-0.06635416666666671,0.2624074074074075],[-0.06635416666666671,0.2624074074074075],[-0.003541666666666643,0.27611111111111114],[0.043020833333333286,0.22740740740740734],[0.08677083333333328,0.15500000000000008],[0.13927083333333337,0.12722222222222232],[0.12645833333333342,0.19944444444444454],[0.10031249999999996,0.29296296296296304],[0.1568749999999999,0.3127777777777777],[0.20270833333333324,0.2733333333333334],[0.1892708333333334,0.30685185185185193],[0.20729166666666668,0.337037037037037],[0.22531249999999994,0.3375925925925925],[0.2400000000000001,0.3170370370370371],[0.2400000000000001,0.3170370370370371],[0.2543750000000001,0.3562962962962963],[0.24666666666666662,0.38333333333333336],[0.3038541666666667,0.3101851851851852],[0.3803124999999999,0.20333333333333325],[0.40479166666666655,0.19018518518518526],[0.4176041666666668,0.1544444444444444],[0.4367708333333333,0.057962962962962876],[0.45510416666666675,-0.020185185185185143],[0.4510416666666667,-0.075],[0.4510416666666667,-0.075],[0.4211458333333333,-0.036481481481481566],[0.4211458333333333,-0.036481481481481566],[0.3977083333333333,-0.03518518518518519],[0.3977083333333333,-0.03518518518518519],[0.40083333333333326,-0.0940740740740741],[0.40083333333333326,-0.0940740740740741],[0.37354166666666655,-0.14574074074074073],[0.37354166666666655,-0.14574074074074073],[0.33624999999999994,-0.18981481481481483],[0.33624999999999994,-0.18981481481481483],[0.29656250000000006,-0.20425925925925928],[0.2819791666666667,-0.19037037037037038],[0.2819791666666667,-0.19037037037037038],[0.2698958333333332,-0.16055555555555553],[0.24104166666666677,-0.1559259259259259],[0.21083333333333343,-0.1653703703703704],[0.22531249999999994,-0.21222222222222226],[0.23833333333333329,-0.27814814814814814],[0.2349999999999999,-0.2946296296296297],[0.25,-0.33648148148148144],[0.25,-0.33648148148148144],[0.2557291666666667,-0.3522222222222222],[0.2782291666666666,-0.39222222222222225],[0.2934375000000001,-0.3827777777777778],[0.29010416666666666,-0.365925925925926],[0.2872916666666666,-0.35611111111111116],[0.30322916666666655,-0.30648148148148147],[0.32135416666666666,-0.2833333333333333],[0.3376041666666666,-0.24000000000000005],[0.3403125000000001,-0.23648148148148146],[0.35052083333333334,-0.21296296296296297],[0.3523958333333333,-0.18425925925925926],[0.3398958333333333,-0.1609259259259259],[0.3315624999999999,-0.17740740740740743],[0.3147916666666667,-0.255],[0.30343749999999997,-0.3005555555555556],[0.2690624999999999,-0.32833333333333337],[0.22239583333333332,-0.2742592592592593],[0.17572916666666671,-0.22018518518518515],[0.1556250000000001,-0.2140740740740741],[0.14010416666666667,-0.20981481481481484],[0.09343750000000005,-0.25259259259259254],[0.04677083333333331,-0.2953703703703704],[0.04677083333333331,-0.2953703703703704],[-0.020624999999999952,-0.31851851851851853],[-0.06052083333333336,-0.27814814814814814],[-0.09989583333333331,-0.27999999999999997],[-0.13770833333333338,-0.3],[-0.16541666666666663,-0.37537037037037035],[-0.16541666666666663,-0.37537037037037035],[-0.1704166666666667,-0.39518518518518514],[-0.15281250000000005,-0.36018518518518516],[-0.1352083333333333,-0.32518518518518524],[-0.08531249999999997,-0.26944444444444443],[-0.03250000000000005,-0.21388888888888888],[0.04239583333333338,-0.18481481481481485],[0.09812500000000005,-0.16277777777777774],[0.15458333333333343,-0.10537037037037032],[0.21124999999999997,-0.08055555555555556],[0.2679166666666667,-0.055740740740740785],[0.31354166666666666,-0.07000000000000002],[0.32145833333333323,-0.08037037037037033],[0.32937500000000003,-0.09074074074074075],[0.3246875000000001,-0.10648148148148148],[0.3167708333333332,-0.12611111111111115],[0.30229166666666674,-0.14611111111111108],[0.28791666666666677,-0.16148148148148145],[0.28312499999999996,-0.15685185185185183],[0.2821875000000001,-0.14500000000000002],[0.27677083333333335,-0.14962962962962964],[0.25968749999999996,-0.17074074074074072],[0.22531249999999994,-0.18037037037037032],[0.20114583333333325,-0.20185185185185187],[0.2107291666666666,-0.17925925925925928],[0.21916666666666676,-0.15166666666666662],[0.21437499999999995,-0.14592592592592596],[0.20958333333333337,-0.14018518518518516],[0.20562500000000009,-0.14629629629629629],[0.19947916666666668,-0.1574074074074074],[0.2039583333333333,-0.16111111111111112],[0.20843749999999991,-0.1648148148148148],[0.23166666666666677,-0.16870370370370374],[0.24249999999999997,-0.15388888888888894],[0.23937499999999995,-0.1566666666666667],[0.23760416666666656,-0.1794444444444444]]","[[0.029895833333333382,-0.23499999999999996,0.000299999999811007],[0.029895833333333382,-0.23499999999999996,0.043799999999812655],[0.029895833333333382,-0.23499999999999996,0.0457999999998151],[0.024374999999999977,-0.2324074074074074,0.062099999999624345],[0.03999999999999997,-0.23740740740740737,0.07940000000036918],[0.03999999999999997,-0.23740740740740737,0.09559999999962798],[0.042708333333333334,-0.21722222222222223,0.11209999999962861],[0.03718750000000005,-0.22018518518518515,0.1287999999998135],[0.042708333333333334,-0.2183333333333333,0.14540000000037168],[0.04239583333333338,-0.19685185185185186,0.1622000000001833],[0.04593750000000003,-0.14777777777777779,0.17890000000037531],[0.036249999999999956,-0.1096296296296296,0.1955999999996294],[0.042499999999999954,-0.07000000000000002,0.21209999999963003],[0.029166666666666667,-0.07018518518518514,0.22890000000037247],[0.02802083333333331,-0.06666666666666667,0.24549999999999983],[0.021354166666666667,-0.05611111111111113,0.26220000000018473],[0.021354166666666667,-0.05611111111111113,0.27890000000036963],[0.015104166666666667,-0.03777777777777774,0.295499999999997],[0.01114583333333338,-0.014259259259259343,0.31209999999962434],[0.01395833333333331,0.022777777777777692,0.3289000000003739],[0.0012500000000000473,0.012962962962962963,0.3459000000003698],[-0.012812499999999952,0.03537037037037041,0.3647999999998106],[-0.027083333333333334,0.06666666666666667,0.3790999999996245],[-0.03833333333333329,0.08277777777777787,0.39559999999962514],[-0.016458333333333287,0.12148148148148152,0.41229999999981715],[-0.013541666666666667,0.14000000000000004,0.4312999999998155],[-0.02666666666666669,0.1448148148148149,0.44570000000018695],[-0.03135416666666669,0.12444444444444452,0.4627999999998167],[-0.05916666666666662,0.1316666666666667,0.4789999999999992],[-0.08979166666666671,0.14629629629629629,0.49799999999999756],[-0.09468749999999998,0.1875925925925925,0.5122000000001847],[-0.10093749999999997,0.1896296296296296,0.5290000000000035],[-0.10322916666666669,0.18259259259259264,0.5454000000003703],[-0.13062499999999996,0.1418518518518519,0.562200000000189],[-0.18531249999999996,0.08870370370370366,0.5790000000000006],[-0.21343749999999997,0.08129629629629626,0.5955000000000013],[-0.23999999999999996,0.10166666666666663,0.6127999999998153],[-0.2319791666666667,0.12222222222222222,0.6290999999996245],[-0.19489583333333335,0.1331481481481481,0.6454000000003717],[-0.15281250000000005,0.12740740740740733,0.6622000000001833],[-0.1310416666666666,0.11037037037037041,0.6810999999996241],[-0.10291666666666661,0.1124074074074075,0.6955999999996294],[-0.07479166666666662,0.11444444444444436,0.71209999999963],[-0.03729166666666662,0.13666666666666658,0.7289000000003725],[0.015104166666666667,0.19074074074074074,0.7454999999999998],[0.05510416666666664,0.2140740740740741,0.7620999999996272],[0.09281249999999991,0.22074074074074082,0.7789000000003696],[0.1040625000000001,0.27444444444444455,0.795499999999997],[0.11510416666666666,0.3101851851851852,0.8120999999996243],[0.12666666666666657,0.3948148148148149,0.8287999999998164],[0.15739583333333323,0.5199999999999999,0.8454000000003745],[0.16135416666666677,0.6157407407407407,0.8622999999998129],[0.1724999999999999,0.7218518518518517,0.8805999999996246],[0.19635416666666666,0.8566666666666667,0.8955999999996251],[0.2053124999999999,0.9596296296296297,0.9120999999996258],[0.21822916666666667,0.9909259259259258,0.9289000000003753],[0.22864583333333333,1.0157407407407408,0.9455000000000027],[0.25666666666666677,1.0951851851851853,0.9622000000001876],[0.2664583333333333,1.1470370370370373,0.9787999999998149],[0.253125,1.174074074074074,0.9955999999996266],[0.23156249999999995,1.1857407407407408,1.0120999999996272],[0.23291666666666658,1.2007407407407409,1.028799999999812],[0.22708333333333333,1.2053703703703706,1.0454000000003703],[0.24083333333333337,1.219814814814815,1.062200000000189],[0.25458333333333344,1.2342592592592592,1.078900000000374],[0.2681250000000001,1.3388888888888888,1.0957000000001855],[0.3017708333333334,1.4766666666666668,1.1120999999996286],[0.2830208333333334,1.4755555555555555,1.128900000000371],[0.28270833333333345,1.52,1.1489000000003742],[0.2816666666666668,1.4266666666666667,1.1625000000000014],[0.27541666666666675,1.312777777777778,1.1804000000003754],[0.2686458333333334,1.2175925925925926,1.1957999999998137],[0.26802083333333326,1.1394444444444443,1.2150000000000034],[0.24104166666666677,1.0399999999999998,1.229099999999626],[0.21749999999999994,0.905925925925926,1.2459000000003755],[0.19500000000000003,0.7585185185185186,1.266099999999625],[0.19500000000000003,0.7585185185185186,1.2790999999996302],[0.1671875,0.619074074074074,1.295799999999815],[0.12145833333333324,0.4737037037037036,1.312200000000189],[0.07645833333333343,0.35592592592592603,1.328900000000374],[0.04583333333333333,0.3475925925925927,1.3454000000003745],[0.02041666666666669,0.34666666666666673,1.3620999999996286],[-0.003854166666666714,0.3412962962962962,1.3787999999998135],[-0.020937500000000022,0.2975925925925927,1.3954999999999984],[-0.06197916666666667,0.24537037037037038,1.4120999999996258],[-0.09656250000000005,0.28944444444444434,1.4309999999999974],[-0.06218750000000005,0.29796296296296293,1.4455999999996294],[-0.06635416666666671,0.2624074074074075,1.463900000000372],[-0.06635416666666671,0.2624074074074075,1.4837000000001836],[-0.003541666666666643,0.27611111111111114,1.495700000000184],[0.043020833333333286,0.22740740740740734,1.5122999999998115],[0.08677083333333328,0.15500000000000008,1.5315000000000012],[0.13927083333333337,0.12722222222222232,1.5457000000001884],[0.12645833333333342,0.19944444444444454,1.5624000000003733],[0.10031249999999996,0.29296296296296304,1.5825000000000031],[0.1568749999999999,0.3127777777777777,1.596200000000188],[0.20270833333333324,0.2733333333333334,1.6124000000003704],[0.1892708333333334,0.30685185185185193,1.6327000000001846],[0.20729166666666668,0.337037037037037,1.6479000000003694],[0.22531249999999994,0.3375925925925925,1.6627000000001857],[0.2400000000000001,0.3170370370370371,1.683599999999629],[0.2400000000000001,0.3170370370370371,1.6957999999998137],[0.2543750000000001,0.3562962962962963,1.7124000000003718],[0.24666666666666662,0.38333333333333336,1.7307999999998103],[0.3038541666666667,0.3101851851851852,1.749099999999629],[0.3803124999999999,0.20333333333333325,1.7637999999998115],[0.40479166666666655,0.19018518518518526,1.7790000000000035],[0.4176041666666668,0.1544444444444444,1.7977000000001837],[0.4367708333333333,0.057962962962962876,1.812200000000189],[0.45510416666666675,-0.020185185185185143,1.8290999999996274],[0.4510416666666667,-0.075,1.8457000000001855],[0.4510416666666667,-0.075,1.867400000000373],[0.4211458333333333,-0.036481481481481566,1.8792000000001892],[0.4211458333333333,-0.036481481481481566,1.8957999999998165],[0.3977083333333333,-0.03518518518518519,1.9122999999998171],[0.3977083333333333,-0.03518518518518519,1.9327999999998156],[0.40083333333333326,-0.0940740740740741,1.9457999999998137],[0.40083333333333326,-0.0940740740740741,1.9622999999998143],[0.37354166666666655,-0.14574074074074073,1.9849000000003727],[0.37354166666666655,-0.14574074074074073,1.9957999999998108],[0.33624999999999994,-0.18981481481481483,2.012400000000369],[0.33624999999999994,-0.18981481481481483,2.0290000000000035],[0.29656250000000006,-0.20425925925925928,2.049400000000375],[0.2819791666666667,-0.19037037037037038,2.0654000000003734],[0.2819791666666667,-0.19037037037037038,2.079200000000185],[0.2698958333333332,-0.16055555555555553,2.0977999999998147],[0.24104166666666677,-0.1559259259259259,2.112200000000186],[0.21083333333333343,-0.1653703703703704,2.128999999999998],[0.22531249999999994,-0.21222222222222226,2.1454999999999984],[0.23833333333333329,-0.27814814814814814,2.1642999999998125],[0.2349999999999999,-0.2946296296296297,2.179000000000002],[0.25,-0.33648148148148144,2.1989000000003713],[0.25,-0.33648148148148144,2.2152999999998144],[0.2557291666666667,-0.3522222222222222,2.2289000000003725],[0.2782291666666666,-0.39222222222222225,2.245400000000373],[0.2934375000000001,-0.3827777777777778,2.2622999999998115],[0.29010416666666666,-0.365925925925926,2.2789000000003696],[0.2872916666666666,-0.35611111111111116,2.295599999999631],[0.30322916666666655,-0.30648148148148147,2.3120999999996243],[0.32135416666666666,-0.2833333333333333,2.328900000000374],[0.3376041666666666,-0.24000000000000005,2.345599999999628],[0.3403125000000001,-0.23648148148148146,2.362200000000186],[0.35052083333333334,-0.21296296296296297,2.3787999999998135],[0.3523958333333333,-0.18425925925925926,2.3954999999999984],[0.3398958333333333,-0.1609259259259259,2.4122000000001833],[0.3315624999999999,-0.17740740740740743,2.4287999999998107],[0.3147916666666667,-0.255,2.445400000000376],[0.30343749999999997,-0.3005555555555556,2.4622000000001876],[0.2690624999999999,-0.32833333333333337,2.480299999999815],[0.22239583333333332,-0.2742592592592593,2.4955],[0.17572916666666671,-0.22018518518518515,2.512099999999627],[0.1556250000000001,-0.2140740740740741,2.528799999999812],[0.14010416666666667,-0.20981481481481484,2.5454000000003703],[0.09343750000000005,-0.25259259259259254,2.562200000000189],[0.04677083333333331,-0.2953703703703704,2.5787999999998164],[0.04677083333333331,-0.2953703703703704,2.5955000000000013],[-0.020624999999999952,-0.31851851851851853,2.6120999999996286],[-0.06052083333333336,-0.27814814814814814,2.6287999999998135],[-0.09989583333333331,-0.27999999999999997,2.6454999999999984],[-0.13770833333333338,-0.3,2.663499999999999],[-0.16541666666666663,-0.37537037037037035,2.6787999999998107],[-0.16541666666666663,-0.37537037037037035,2.6955999999996294],[-0.1704166666666667,-0.39518518518518514,2.71209999999963],[-0.15281250000000005,-0.36018518518518516,2.728799999999815],[-0.1352083333333333,-0.32518518518518524,2.7455],[-0.08531249999999997,-0.26944444444444443,2.7622000000001847],[-0.03250000000000005,-0.21388888888888888,2.77909999999963],[0.04239583333333338,-0.18481481481481485,2.795499999999997],[0.09812500000000005,-0.16277777777777774,2.8120999999996243],[0.15458333333333343,-0.10537037037037032,2.8287999999998164],[0.21124999999999997,-0.08055555555555556,2.8454000000003745],[0.2679166666666667,-0.055740740740740785,2.862200000000186],[0.31354166666666666,-0.07000000000000002,2.8794000000003734],[0.32145833333333323,-0.08037037037037033,2.895599999999625],[0.32937500000000003,-0.09074074074074075,2.9120999999996258],[0.3246875000000001,-0.10648148148148148,2.9287999999998107],[0.3167708333333332,-0.12611111111111115,2.945400000000376],[0.30229166666666674,-0.14611111111111108,2.9622000000001876],[0.28791666666666677,-0.16148148148148145,2.98140000000037],[0.28312499999999996,-0.15685185185185183,2.9955],[0.2821875000000001,-0.14500000000000002,3.0147000000001896],[0.27677083333333335,-0.14962962962962964,3.0289000000003696],[0.25968749999999996,-0.17074074074074072,3.0454000000003703],[0.22531249999999994,-0.18037037037037032,3.062200000000189],[0.20114583333333325,-0.20185185185185187,3.0787999999998164],[0.2107291666666666,-0.17925925925925928,3.095599999999628],[0.21916666666666676,-0.15166666666666662,3.1120999999996286],[0.21437499999999995,-0.14592592592592596,3.128900000000371],[0.20958333333333337,-0.14018518518518516,3.1454999999999984],[0.20562500000000009,-0.14629629629629629,3.1620999999996258],[0.19947916666666668,-0.1574074074074074,3.1804000000003754],[0.2039583333333333,-0.16111111111111112,3.1955000000000027],[0.20843749999999991,-0.1648148148148148,3.21209999999963],[0.23166666666666677,-0.16870370370370374,3.228799999999815],[0.24249999999999997,-0.15388888888888894,3.245400000000373],[0.23937499999999995,-0.1566666666666667,3.262500000000003],[0.23760416666666656,-0.1794444444444444,3.279700000000183]]","[0.000299999999811007,0.043799999999812655,0.0457999999998151,0.062099999999624345,0.07940000000036918,0.09559999999962798,0.11209999999962861,0.1287999999998135,0.14540000000037168,0.1622000000001833,0.17890000000037531,0.1955999999996294,0.21209999999963003,0.22890000000037247,0.24549999999999983,0.26220000000018473,0.27890000000036963,0.295499999999997,0.31209999999962434,0.3289000000003739,0.3459000000003698,0.3647999999998106,0.3790999999996245,0.39559999999962514,0.41229999999981715,0.4312999999998155,0.44570000000018695,0.4627999999998167,0.4789999999999992,0.49799999999999756,0.5122000000001847,0.5290000000000035,0.5454000000003703,0.562200000000189,0.5790000000000006,0.5955000000000013,0.6127999999998153,0.6290999999996245,0.6454000000003717,0.6622000000001833,0.6810999999996241,0.6955999999996294,0.71209999999963,0.7289000000003725,0.7454999999999998,0.7620999999996272,0.7789000000003696,0.795499999999997,0.8120999999996243,0.8287999999998164,0.8454000000003745,0.8622999999998129,0.8805999999996246,0.8955999999996251,0.9120999999996258,0.9289000000003753,0.9455000000000027,0.9622000000001876,0.9787999999998149,0.9955999999996266,1.0120999999996272,1.028799999999812,1.0454000000003703,1.062200000000189,1.078900000000374,1.0957000000001855,1.1120999999996286,1.128900000000371,1.1489000000003742,1.1625000000000014,1.1804000000003754,1.1957999999998137,1.2150000000000034,1.229099999999626,1.2459000000003755,1.266099999999625,1.2790999999996302,1.295799999999815,1.312200000000189,1.328900000000374,1.3454000000003745,1.3620999999996286,1.3787999999998135,1.3954999999999984,1.4120999999996258,1.4309999999999974,1.4455999999996294,1.463900000000372,1.4837000000001836,1.495700000000184,1.5122999999998115,1.5315000000000012,1.5457000000001884,1.5624000000003733,1.5825000000000031,1.596200000000188,1.6124000000003704,1.6327000000001846,1.6479000000003694,1.6627000000001857,1.683599999999629,1.6957999999998137,1.7124000000003718,1.7307999999998103,1.749099999999629,1.7637999999998115,1.7790000000000035,1.7977000000001837,1.812200000000189,1.8290999999996274,1.8457000000001855,1.867400000000373,1.8792000000001892,1.8957999999998165,1.9122999999998171,1.9327999999998156,1.9457999999998137,1.9622999999998143,1.9849000000003727,1.9957999999998108,2.012400000000369,2.0290000000000035,2.049400000000375,2.0654000000003734,2.079200000000185,2.0977999999998147,2.112200000000186,2.128999999999998,2.1454999999999984,2.1642999999998125,2.179000000000002,2.1989000000003713,2.2152999999998144,2.2289000000003725,2.245400000000373,2.2622999999998115,2.2789000000003696,2.295599999999631,2.3120999999996243,2.328900000000374,2.345599999999628,2.362200000000186,2.3787999999998135,2.3954999999999984,2.4122000000001833,2.4287999999998107,2.445400000000376,2.4622000000001876,2.480299999999815,2.4955,2.512099999999627,2.528799999999812,2.5454000000003703,2.562200000000189,2.5787999999998164,2.5955000000000013,2.6120999999996286,2.6287999999998135,2.6454999999999984,2.663499999999999,2.6787999999998107,2.6955999999996294,2.71209999999963,2.728799999999815,2.7455,2.7622000000001847,2.77909999999963,2.795499999999997,2.8120999999996243,2.8287999999998164,2.8454000000003745,2.862200000000186,2.8794000000003734,2.895599999999625,2.9120999999996258,2.9287999999998107,2.945400000000376,2.9622000000001876,2.98140000000037,2.9955,3.0147000000001896,3.0289000000003696,3.0454000000003703,3.062200000000189,3.0787999999998164,3.095599999999628,3.1120999999996286,3.128900000000371,3.1454999999999984,3.1620999999996258,3.1804000000003754,3.1955000000000027,3.21209999999963,3.228799999999815,3.245400000000373,3.262500000000003,3.279700000000183]","[1733211218415,1733211218451,1733211218453,1733211218470,1733211218487,1733211218503,1733211218520,1733211218537,1733211218553,1733211218570,1733211218587,1733211218603,1733211218620,1733211218637,1733211218653,1733211218670,1733211218687,1733211218703,1733211218720,1733211218737,1733211218754,1733211218772,1733211218787,1733211218803,1733211218820,1733211218839,1733211218853,1733211218871,1733211218887,1733211218906,1733211218920,1733211218937,1733211218953,1733211218970,1733211218987,1733211219003,1733211219020,1733211219037,1733211219053,1733211219070,1733211219089,1733211219103,1733211219120,1733211219136,1733211219153,1733211219170,1733211219187,1733211219203,1733211219220,1733211219236,1733211219253,1733211219270,1733211219288,1733211219303,1733211219320,1733211219337,1733211219353,1733211219370,1733211219387,1733211219403,1733211219420,1733211219437,1733211219453,1733211219470,1733211219487,1733211219503,1733211219520,1733211219537,1733211219557,1733211219570,1733211219588,1733211219603,1733211219623,1733211219637,1733211219654,1733211219674,1733211219687,1733211219703,1733211219720,1733211219737,1733211219753,1733211219770,1733211219787,1733211219803,1733211219820,1733211219839,1733211219853,1733211219872,1733211219891,1733211219903,1733211219920,1733211219939,1733211219953,1733211219970,1733211219990,1733211220004,1733211220020,1733211220040,1733211220056,1733211220070,1733211220091,1733211220103,1733211220120,1733211220138,1733211220157,1733211220172,1733211220187,1733211220205,1733211220220,1733211220237,1733211220253,1733211220275,1733211220287,1733211220304,1733211220320,1733211220341,1733211220353,1733211220370,1733211220393,1733211220403,1733211220420,1733211220437,1733211220457,1733211220473,1733211220487,1733211220505,1733211220520,1733211220537,1733211220553,1733211220572,1733211220587,1733211220606,1733211220623,1733211220637,1733211220653,1733211220670,1733211220687,1733211220703,1733211220720,1733211220737,1733211220753,1733211220770,1733211220786,1733211220803,1733211220820,1733211220836,1733211220853,1733211220870,1733211220888,1733211220903,1733211220920,1733211220936,1733211220953,1733211220970,1733211220986,1733211221003,1733211221020,1733211221036,1733211221053,1733211221071,1733211221087,1733211221103,1733211221120,1733211221136,1733211221153,1733211221170,1733211221187,1733211221203,1733211221220,1733211221236,1733211221253,1733211221270,1733211221287,1733211221303,1733211221320,1733211221336,1733211221353,1733211221370,1733211221389,1733211221403,1733211221422,1733211221437,1733211221453,1733211221470,1733211221487,1733211221503,1733211221520,1733211221537,1733211221553,1733211221570,1733211221588,1733211221603,1733211221620,1733211221637,1733211221653,1733211221670,1733211221687]","[[988.7,413.1],[988.7,413.1],[988.7,413.1],[983.4,414.5],[998.4,411.8],[998.4,411.8],[1001,422.7],[995.7,421.1],[1001,422.1],[1000.7,433.7],[1004.1,460.2],[994.8,480.8],[1000.8,502.2],[988,502.1],[986.9,504],[980.5,509.7],[980.5,509.7],[974.5,519.6],[970.7,532.3],[973.4,552.3],[961.2,547],[947.7,559.1],[934,576],[923.2,584.7],[944.2,605.6],[947,615.6],[934.4,618.2],[929.9,607.2],[903.2,611.1],[873.8,619],[869.1,641.3],[863.1,642.4],[860.9,638.6],[834.6,616.6],[782.1,587.9],[755.1,583.9],[729.6,594.9],[737.3,606],[772.9,611.9],[813.3,608.8],[834.2,599.6],[861.2,600.7],[888.2,601.8],[924.2,613.8],[974.5,643],[1012.9,655.6],[1049.1,659.2],[1059.9,688.2],[1070.5,707.5],[1081.6,753.2],[1111.1,820.8],[1114.9,872.5],[1125.6,929.8],[1148.5,1002.6],[1157.1,1058.2],[1169.5,1075.1],[1179.5,1088.5],[1206.4,1131.4],[1215.8,1159.4],[1203,1174],[1182.3,1180.3],[1183.6,1188.4],[1178,1190.9],[1191.2,1198.7],[1204.4,1206.5],[1217.4,1263],[1249.7,1337.4],[1231.7,1336.8],[1231.4,1360.8],[1230.4,1310.4],[1224.4,1248.9],[1217.9,1197.5],[1217.3,1155.3],[1191.4,1101.6],[1168.8,1029.2],[1147.2,949.6],[1147.2,949.6],[1120.5,874.3],[1076.6,795.8],[1033.4,732.2],[1004,727.7],[979.6,727.2],[956.3,724.3],[939.9,700.7],[900.5,672.5],[867.3,696.3],[900.3,700.9],[896.3,681.7],[896.3,681.7],[956.6,689.1],[1001.3,662.8],[1043.3,623.7],[1093.7,608.7],[1081.4,647.7],[1056.3,698.2],[1110.6,708.9],[1154.6,687.6],[1141.7,705.7],[1159,722],[1176.3,722.3],[1190.4,711.2],[1190.4,711.2],[1204.2,732.4],[1196.8,747],[1251.7,707.5],[1325.1,649.8],[1348.6,642.7],[1360.9,623.4],[1379.3,571.3],[1396.9,529.1],[1393,499.5],[1393,499.5],[1364.3,520.3],[1364.3,520.3],[1341.8,521],[1341.8,521],[1344.8,489.2],[1344.8,489.2],[1318.6,461.3],[1318.6,461.3],[1282.8,437.5],[1282.8,437.5],[1244.7,429.7],[1230.7,437.2],[1230.7,437.2],[1219.1,453.3],[1191.4,455.8],[1162.4,450.7],[1176.3,425.4],[1188.8,389.8],[1185.6,380.9],[1200,358.3],[1200,358.3],[1205.5,349.8],[1227.1,328.2],[1241.7,333.3],[1238.5,342.4],[1235.8,347.7],[1251.1,374.5],[1268.5,387],[1284.1,410.4],[1286.7,412.3],[1296.5,425],[1298.3,440.5],[1286.3,453.1],[1278.3,444.2],[1262.2,402.3],[1251.3,377.7],[1218.3,362.7],[1173.5,391.9],[1128.7,421.1],[1109.4,424.4],[1094.5,426.7],[1049.7,403.6],[1004.9,380.5],[1004.9,380.5],[940.2,368],[901.9,389.8],[864.1,388.8],[827.8,378],[801.2,337.3],[801.2,337.3],[796.4,326.6],[813.3,345.5],[830.2,364.4],[878.1,394.5],[928.8,424.5],[1000.7,440.2],[1054.2,452.1],[1108.4,483.1],[1162.8,496.5],[1217.2,509.9],[1261,502.2],[1268.6,496.6],[1276.2,491],[1271.7,482.5],[1264.1,471.9],[1250.2,461.1],[1236.4,452.8],[1231.8,455.3],[1230.9,461.7],[1225.7,459.2],[1209.3,447.8],[1176.3,442.6],[1153.1,431],[1162.3,443.2],[1170.4,458.1],[1165.8,461.2],[1161.2,464.3],[1157.4,461],[1151.5,455],[1155.8,453],[1160.1,451],[1182.4,448.9],[1192.8,456.9],[1189.8,455.4],[1188.1,443.1]]","[0,0.37864299999999995]","[0.37864299999999995,0.37864299999999995]","[-0.37864299999999995,0]","[-0.37864299999999995,-0.37864299999999995]","[0,0]","[0.37864299999999995,0]","[0,-0.37864299999999995]","[0.37864299999999995,-0.37864299999999995]",0,0,0,0,1,4,Laptop,11,5,13,9
,,,,,,,,,,,,,,,,,,,,48,001,2024-12-03_15h32.52.659,Attention_exp_legacy,2023.1.0,Win32,59.88023952,,,,,,,,,,[0.2864583333333333],[0.34444444444444444],[1],[0],[0],[2.6482000000001875],"[""Option2_label""]",Option2_label,2,3.6664,"[[0.31666666666666665,0.37222222222222223],[0.31666666666666665,0.37222222222222223],[0.31666666666666665,0.37222222222222223],[0.31666666666666665,0.37222222222222223],[0.31666666666666665,0.37222222222222223],[0.31666666666666665,0.37222222222222223],[0.31666666666666665,0.37222222222222223],[0.31666666666666665,0.37222222222222223],[0.31666666666666665,0.37222222222222223],[0.31666666666666665,0.37222222222222223],[0.31666666666666665,0.37222222222222223],[0.31666666666666665,0.37222222222222223],[0.31666666666666665,0.37222222222222223],[0.31666666666666665,0.37222222222222223],[0.31666666666666665,0.37222222222222223],[0.31666666666666665,0.37222222222222223],[0.31666666666666665,0.37222222222222223],[0.31666666666666665,0.37222222222222223],[0.31666666666666665,0.37222222222222223],[0.31666666666666665,0.37222222222222223],[0.31666666666666665,0.37222222222222223],[0.31666666666666665,0.37222222222222223],[0.31666666666666665,0.37222222222222223],[0.31666666666666665,0.37222222222222223],[0.31666666666666665,0.37222222222222223],[0.31666666666666665,0.37222222222222223],[0.31666666666666665,0.37222222222222223],[0.31666666666666665,0.37222222222222223],[0.31666666666666665,0.37222222222222223],[0.31666666666666665,0.37222222222222223],[0.31666666666666665,0.37222222222222223],[0.31666666666666665,0.37222222222222223],[0.31666666666666665,0.37222222222222223],[0.31666666666666665,0.37222222222222223],[0.31666666666666665,0.37222222222222223],[0.31666666666666665,0.37222222222222223],[0.31666666666666665,0.37222222222222223],[0.31666666666666665,0.37222222222222223],[0.31666666666666665,0.37222222222222223],[0.31666666666666665,0.37222222222222223],[0.31666666666666665,0.37222222222222223],[0.31666666666666665,0.37222222222222223],[0.31666666666666665,0.37222222222222223],[0.31666666666666665,0.37222222222222223],[0.31666666666666665,0.37222222222222223],[0.31666666666666665,0.37222222222222223],[0.31666666666666665,0.37222222222222223],[0.31666666666666665,0.37222222222222223],[0.31666666666666665,0.37222222222222223],[0.31666666666666665,0.37222222222222223],[0.31666666666666665,0.37222222222222223],[0.31666666666666665,0.37222222222222223],[0.31666666666666665,0.37222222222222223],[0.31666666666666665,0.37222222222222223],[0.31666666666666665,0.37222222222222223],[0.31666666666666665,0.37222222222222223],[0.31666666666666665,0.37222222222222223],[0.31666666666666665,0.37222222222222223],[0.31666666666666665,0.37222222222222223],[0.31666666666666665,0.37222222222222223],[0.31666666666666665,0.37222222222222223],[0.31666666666666665,0.37222222222222223],[0.31666666666666665,0.37222222222222223],[0.31666666666666665,0.37222222222222223],[0.31666666666666665,0.37222222222222223],[0.31666666666666665,0.37222222222222223],[0.31666666666666665,0.37222222222222223],[0.31666666666666665,0.37222222222222223],[0.31666666666666665,0.37222222222222223],[0.31666666666666665,0.37222222222222223],[0.31666666666666665,0.37222222222222223],[0.31666666666666665,0.37222222222222223],[0.31666666666666665,0.37222222222222223],[0.31666666666666665,0.37222222222222223],[0.31666666666666665,0.37222222222222223],[0.31666666666666665,0.37222222222222223],[0.31666666666666665,0.37222222222222223],[0.31666666666666665,0.37222222222222223],[0.31666666666666665,0.37222222222222223],[0.31666666666666665,0.37222222222222223],[0.31666666666666665,0.37222222222222223],[0.31666666666666665,0.37222222222222223],[0.31666666666666665,0.37222222222222223],[0.31666666666666665,0.37222222222222223],[0.31666666666666665,0.37222222222222223],[0.31666666666666665,0.37222222222222223],[0.31666666666666665,0.37222222222222223],[0.31666666666666665,0.37222222222222223],[0.31666666666666665,0.37222222222222223],[0.31666666666666665,0.37222222222222223],[0.31666666666666665,0.37222222222222223],[0.31666666666666665,0.37222222222222223],[0.31666666666666665,0.37222222222222223],[0.31666666666666665,0.37222222222222223],[0.31666666666666665,0.37222222222222223],[0.31666666666666665,0.37222222222222223],[0.315625,0.37222222222222223],[0.3125,0.37222222222222223],[0.303125,0.37037037037037035],[0.2947916666666667,0.362962962962963],[0.284375,0.3574074074074074],[0.275,0.35185185185185186],[0.26666666666666666,0.34444444444444444],[0.2604166666666667,0.3388888888888889],[0.2520833333333333,0.3314814814814815],[0.24583333333333332,0.3277777777777778],[0.23645833333333333,0.32037037037037036],[0.225,0.3111111111111111],[0.21458333333333332,0.3055555555555556],[0.2,0.3037037037037037],[0.18645833333333334,0.29814814814814816],[0.171875,0.29444444444444445],[0.15729166666666666,0.29074074074074074],[0.14583333333333334,0.28703703703703703],[0.14270833333333333,0.28703703703703703],[0.13958333333333334,0.28703703703703703],[0.134375,0.2851851851851852],[0.128125,0.2851851851851852],[0.12395833333333334,0.2851851851851852],[0.115625,0.2851851851851852],[0.11041666666666666,0.2851851851851852],[0.10520833333333333,0.2851851851851852],[0.09895833333333333,0.2851851851851852],[0.09270833333333334,0.2851851851851852],[0.0875,0.2851851851851852],[0.08020833333333334,0.2851851851851852],[0.075,0.2851851851851852],[0.06979166666666667,0.2851851851851852],[0.06770833333333333,0.2851851851851852],[0.06666666666666667,0.2851851851851852],[0.06666666666666667,0.2851851851851852],[0.06666666666666667,0.2851851851851852],[0.06666666666666667,0.2851851851851852],[0.06666666666666667,0.2851851851851852],[0.06666666666666667,0.2851851851851852],[0.06666666666666667,0.2851851851851852],[0.06770833333333333,0.28703703703703703],[0.075,0.29259259259259257],[0.08229166666666667,0.29444444444444445],[0.090625,0.3],[0.10104166666666667,0.3037037037037037],[0.11666666666666667,0.3074074074074074],[0.13229166666666667,0.31296296296296294],[0.15104166666666666,0.31666666666666665],[0.159375,0.31851851851851853],[0.16666666666666666,0.32037037037037036],[0.171875,0.32037037037037036],[0.18125,0.32407407407407407],[0.19375,0.32407407407407407],[0.20625,0.32592592592592595],[0.22395833333333334,0.3314814814814815],[0.240625,0.3351851851851852],[0.25833333333333336,0.3388888888888889],[0.27291666666666664,0.3425925925925926],[0.2833333333333333,0.34444444444444444],[0.2864583333333333,0.34444444444444444],[0.2864583333333333,0.34444444444444444],[0.2864583333333333,0.34444444444444444],[0.2864583333333333,0.34444444444444444],[0.2864583333333333,0.34444444444444444],[0.2864583333333333,0.34444444444444444],[0.2864583333333333,0.34444444444444444],[0.2864583333333333,0.34444444444444444],[0.2864583333333333,0.34444444444444444],[0.2864583333333333,0.34444444444444444],[0.2864583333333333,0.34444444444444444],[0.2864583333333333,0.34444444444444444],[0.2864583333333333,0.34444444444444444],[0.2864583333333333,0.34444444444444444],[0.2864583333333333,0.34444444444444444],[0.2864583333333333,0.34444444444444444],[0.2864583333333333,0.34444444444444444],[0.2864583333333333,0.34444444444444444],[0.2864583333333333,0.34444444444444444],[0.2864583333333333,0.34444444444444444],[0.2864583333333333,0.34444444444444444],[0.2864583333333333,0.34444444444444444],[0.2864583333333333,0.34444444444444444],[0.2864583333333333,0.34444444444444444],[0.2864583333333333,0.34444444444444444],[0.2864583333333333,0.34444444444444444],[0.2864583333333333,0.34444444444444444],[0.2864583333333333,0.34444444444444444],[0.2864583333333333,0.34444444444444444],[0.2864583333333333,0.34444444444444444],[0.2864583333333333,0.34444444444444444],[0.2864583333333333,0.34444444444444444],[0.2864583333333333,0.34444444444444444],[0.2864583333333333,0.34444444444444444],[0.2864583333333333,0.34444444444444444],[0.2864583333333333,0.34444444444444444],[0.2864583333333333,0.34444444444444444],[0.2864583333333333,0.34444444444444444],[0.2864583333333333,0.34444444444444444],[0.2864583333333333,0.34444444444444444],[0.2864583333333333,0.34444444444444444],[0.2864583333333333,0.34444444444444444],[0.2864583333333333,0.34444444444444444],[0.2864583333333333,0.34444444444444444],[0.2864583333333333,0.34444444444444444],[0.2864583333333333,0.34444444444444444],[0.2864583333333333,0.34444444444444444],[0.2864583333333333,0.34444444444444444],[0.2864583333333333,0.34444444444444444],[0.2864583333333333,0.34444444444444444],[0.2864583333333333,0.34444444444444444],[0.2864583333333333,0.34444444444444444],[0.2864583333333333,0.34444444444444444],[0.2864583333333333,0.34444444444444444],[0.2864583333333333,0.34444444444444444],[0.2864583333333333,0.34444444444444444],[0.2864583333333333,0.34444444444444444],[0.2864583333333333,0.34444444444444444],[0.2864583333333333,0.34444444444444444],[0.2864583333333333,0.34444444444444444],[0.2864583333333333,0.34444444444444444],[0.2864583333333333,0.34444444444444444],[0.2864583333333333,0.34444444444444444],[0.2864583333333333,0.34444444444444444],[0.2864583333333333,0.34444444444444444],[0.2864583333333333,0.34444444444444444]]","[[0.08416666666666663,0.17518518518518522],[0.10697916666666671,0.12074074074074083],[0.1310416666666666,0.10629629629629625],[0.15354166666666677,0.10018518518518522],[0.146875,0.07240740740740745],[0.0921875,-0.009074074074074031],[0.12114583333333329,-0.01703703703703712],[0.1460416666666667,-0.049629629629629544],[0.16572916666666657,-0.0242592592592593],[0.16572916666666657,-0.0242592592592593],[0.20427083333333323,-0.0198148148148149],[0.20427083333333323,-0.0198148148148149],[0.18322916666666675,-0.052962962962963],[0.16760416666666675,-0.0764814814814815],[0.14343750000000005,-0.09703703703703699],[0.12322916666666663,-0.13259259259259262],[0.13020833333333334,-0.1624074074074074],[0.1474999999999999,-0.15703703703703706],[0.11583333333333339,-0.1633333333333333],[0.08822916666666672,-0.14500000000000002],[0.0796875,-0.15962962962962962],[0.050625000000000024,-0.14722222222222223],[0.06124999999999995,-0.1270370370370371],[0.06364583333333336,-0.11537037037037039],[0.08083333333333324,-0.09425925925925922],[0.10260416666666666,-0.046481481481481526],[0.11281249999999995,-0.020370370370370372],[0.12822916666666656,-0.0025925925925925505],[0.13479166666666675,0.005370370370370328],[0.14135416666666673,0.013333333333333417],[0.1515625,0.01907407407407399],[0.16177083333333328,0.024814814814814772],[0.16052083333333325,0.027037037037037078],[0.15458333333333343,0.024074074074074074],[0.13416666666666663,0.02555555555555547],[0.12385416666666677,-0.006851851851851936],[0.10125000000000005,-0.024629629629629547],[0.07593750000000009,-0.039074074074074115],[0.07822916666666657,-0.0257407407407407],[0.0787499999999999,-0.029259259259259176],[0.08125,-0.018888888888888972],[0.09197916666666663,-0.026111111111111154],[0.10010416666666658,0.021481481481481525],[0.11354166666666667,0.036481481481481566],[0.12447916666666667,0.03629629629629634],[0.1209374999999999,0.04685185185185177],[0.15177083333333338,0.09314814814814806],[0.17697916666666677,0.11370370370370367],[0.18072916666666666,0.12407407407407407],[0.18624999999999994,0.15129629629629637],[0.1962500000000001,0.15407407407407417],[0.20083333333333328,0.14629629629629629],[0.21708333333333343,0.1581481481481481],[0.23729166666666662,0.20259259259259255],[0.2445833333333333,0.2381481481481482],[0.2445833333333333,0.27314814814814814],[0.2353125000000001,0.2833333333333333],[0.21489583333333329,0.2801851851851851],[0.20062499999999991,0.2614814814814816],[0.17468750000000005,0.2324074074074074],[0.1462500000000001,0.2111111111111111],[0.11500000000000009,0.21796296296296305],[0.07010416666666662,0.16407407407407412],[0.02520833333333338,0.11018518518518519],[-0.01864583333333331,0.11259259259259251],[-0.0578125,0.11870370370370374],[-0.1063541666666667,0.0794444444444444],[-0.13541666666666666,0.07592592592592592],[-0.15854166666666672,0.08148148148148149],[-0.17000000000000004,0.09740740740740746],[-0.1734375,0.11962962962962967],[-0.17687499999999995,0.1418518518518519],[-0.18520833333333328,0.13203703703703695],[-0.1935416666666666,0.12222222222222222],[-0.2107291666666666,0.10555555555555556],[-0.22791666666666663,0.08888888888888889],[-0.2626041666666667,0.07814814814814823],[-0.29572916666666665,0.07037037037037037],[-0.3180208333333333,0.07185185185185176],[-0.3047916666666667,0.06129629629629634],[-0.29958333333333337,0.044444444444444446],[-0.27281249999999996,0.05129629629629638],[-0.24145833333333327,0.08222222222222218],[-0.21677083333333336,0.11166666666666658],[-0.16395833333333332,0.1111111111111111],[-0.11114583333333337,0.11055555555555564],[-0.040625,0.14740740740740746],[0.02833333333333338,0.18129629629629626],[0.08666666666666671,0.20055555555555546],[0.10947916666666657,0.23185185185185195],[0.11906249999999995,0.2522222222222223],[0.10708333333333328,0.24888888888888885],[0.10187499999999995,0.23962962962962958],[0.10187499999999995,0.23962962962962958],[0.10333333333333337,0.23185185185185195],[0.10333333333333337,0.23185185185185195],[0.10864583333333329,0.22833333333333325],[0.1068749999999999,0.16777777777777783],[0.1068749999999999,0.16777777777777783],[0.1015625,0.13740740740740748],[0.1015625,0.13740740740740748],[0.09718749999999995,0.13944444444444437],[0.09718749999999995,0.13944444444444437],[0.07427083333333329,0.22092592592592583],[0.07427083333333329,0.22092592592592583],[0.08937499999999995,0.22592592592592592],[0.08614583333333338,0.24537037037037038],[0.08614583333333338,0.24537037037037038],[0.1015625,0.2170370370370371],[0.11020833333333328,0.19462962962962968],[0.12020833333333343,0.15462962962962962],[0.1243750000000001,0.10611111111111103],[0.1243750000000001,0.10611111111111103],[0.13895833333333343,0.07814814814814823],[0.13895833333333343,0.07814814814814823],[0.16906249999999995,0.04425925925925922],[0.1977083333333333,-0.014259259259259343],[0.2459374999999999,-0.11740740740740736],[0.2459374999999999,-0.11740740740740736],[0.24354166666666663,-0.16351851851851854],[0.2777083333333332,-0.24611111111111106],[0.2694791666666667,-0.2668518518518519],[0.28624999999999995,-0.29000000000000004],[0.3016666666666666,-0.29555555555555557],[0.29562499999999997,-0.3014814814814815],[0.28239583333333323,-0.2638888888888889],[0.26197916666666665,-0.252962962962963],[0.24208333333333343,-0.24981481481481477],[0.22239583333333332,-0.32518518518518524],[0.19854166666666656,-0.34870370370370374],[0.1696875000000001,-0.33925925925925926],[0.18218750000000009,-0.34592592592592597],[0.1696875000000001,-0.3501851851851852],[0.1571875000000001,-0.3544444444444444],[0.17697916666666677,-0.327962962962963],[0.20062499999999991,-0.3085185185185186],[0.20802083333333338,-0.3138888888888889],[0.19947916666666668,-0.3168518518518519],[0.18093750000000006,-0.2740740740740741],[0.18937499999999996,-0.2651851851851852],[0.20750000000000005,-0.24648148148148152],[0.190625,-0.21203703703703702],[0.17458333333333323,-0.18592592592592588],[0.15822916666666675,-0.1455555555555556],[0.13770833333333338,-0.1685185185185185],[0.12625000000000006,-0.19222222222222224],[0.12916666666666668,-0.14370370370370375],[0.14802083333333324,-0.09759259259259258],[0.17041666666666658,-0.1],[0.18260416666666662,-0.10092592592592593],[0.14718749999999994,-0.1559259259259259],[0.16281249999999994,-0.18833333333333332],[0.17770833333333325,-0.20129629629629628],[0.1929166666666667,-0.22851851851851848],[0.20822916666666677,-0.22111111111111106],[0.18322916666666675,-0.24740740740740744],[0.15354166666666677,-0.32407407407407407],[0.12385416666666677,-0.4007407407407407],[0.09322916666666667,-0.4083333333333333],[0.0626041666666667,-0.415925925925926],[0.04468749999999998,-0.38425925925925924],[-0.0068750000000000235,-0.3888888888888889],[-0.04895833333333333,-0.4281481481481481],[-0.10072916666666672,-0.45629629629629626],[-0.12052083333333338,-0.45981481481481484],[-0.12479166666666662,-0.44351851851851853],[-0.12364583333333339,-0.352962962962963],[-0.12364583333333339,-0.352962962962963],[-0.12250000000000003,-0.26240740740740737],[-0.12885416666666671,-0.1962962962962963],[-0.1530208333333333,-0.1242592592592593],[-0.15197916666666664,-0.04722222222222222],[-0.14812500000000003,0.009629629629629714],[-0.16312500000000002,0.07296296296296292],[-0.153125,0.1705555555555556],[-0.1798958333333334,0.24611111111111106],[-0.19885416666666664,0.3111111111111111],[-0.1857291666666666,0.3237037037037036],[-0.17260416666666673,0.34],[-0.1492708333333333,0.33611111111111114],[-0.10812499999999996,0.32629629629629636],[-0.06666666666666667,0.3168518518518519],[-0.03937499999999995,0.35907407407407405],[-0.002291666666666714,0.3890740740740741],[-0.010312499999999976,0.3655555555555555],[-0.02322916666666662,0.3412962962962962],[-0.03979166666666671,0.2957407407407408],[-0.05677083333333333,0.2716666666666668],[-0.04593750000000003,0.227962962962963],[-0.05916666666666662,0.20833333333333334],[-0.036145833333333384,0.18351851851851855],[-0.036145833333333384,0.18351851851851855],[0.01427083333333338,0.1866666666666666],[0.027708333333333356,0.09370370370370375],[0.035625000000000046,0.057962962962962876],[0.07781250000000005,0.00592592592592601],[0.11229166666666662,-0.0492592592592593],[0.14697916666666658,-0.06777777777777783],[0.16239583333333343,-0.12407407407407407],[0.15,-0.16444444444444448],[0.18885416666666663,-0.1507407407407407],[0.16937499999999991,-0.1925925925925926],[0.1388541666666666,-0.23296296296296298],[0.16416666666666657,-0.19759259259259257],[0.1912499999999999,-0.19129629629629633],[0.21385416666666662,-0.16055555555555553],[0.25239583333333326,-0.14166666666666666],[0.2881249999999999,-0.12333333333333338],[0.3108333333333334,-0.06888888888888887],[0.3223958333333333,-0.012407407407407492],[0.309375,-0.05092592592592592],[0.32093749999999993,-0.02833333333333325],[0.30416666666666664,-0.01703703703703712],[0.2798958333333334,-0.016851851851851896],[0.28250000000000003,0.005185185185185101],[0.2782291666666666,0.014629629629629588],[0.24885416666666677,0.021481481481481525],[0.23364583333333327,0.038703703703703664],[0.2335416666666667,0.044444444444444446],[0.24833333333333343,0.04740740740740745],[0.23041666666666671,0.06796296296296304]]","[[0.08416666666666663,0.17518518518518522,0.00010000000055754299],[0.10697916666666671,0.12074074074074083,0.020700000000182683],[0.1310416666666666,0.10629629629629625,0.03629999999981237],[0.15354166666666677,0.10018518518518522,0.05160000000055476],[0.146875,0.07240740740740745,0.06640000000037105],[0.0921875,-0.009074074074074031,0.0835000000000008],[0.12114583333333329,-0.01703703703703712,0.09970000000018331],[0.1460416666666667,-0.049629629629629544,0.11620000000018393],[0.16572916666666657,-0.0242592592592593,0.13310000000056021],[0.16572916666666657,-0.0242592592592593,0.14960000000056084],[0.20427083333333323,-0.0198148148148149,0.16660000000055675],[0.20427083333333323,-0.0198148148148149,0.1832000000001841],[0.18322916666666675,-0.052962962962963,0.19970000000018473],[0.16760416666666675,-0.0764814814814815,0.2162999999998121],[0.14343750000000005,-0.09703703703703699,0.23310000000055453],[0.12322916666666663,-0.13259259259259262,0.24960000000055516],[0.13020833333333334,-0.1624074074074074,0.26629999999980924],[0.1474999999999999,-0.15703703703703706,0.28300000000000125],[0.11583333333333339,-0.1633333333333333,0.30160000000055476],[0.08822916666666672,-0.14500000000000002,0.3162000000001868],[0.0796875,-0.15962962962962962,0.3329999999999984],[0.050625000000000024,-0.14722222222222223,0.3497000000001833],[0.06124999999999995,-0.1270370370370371,0.36629999999981067],[0.06364583333333336,-0.11537037037037039,0.3857999999998114],[0.08083333333333324,-0.09425925925925922,0.40179999999980964],[0.10260416666666666,-0.046481481481481526,0.4162000000001882],[0.11281249999999995,-0.020370370370370372,0.43299999999999983],[0.12822916666666656,-0.0025925925925925505,0.4501000000005604],[0.13479166666666675,0.005370370370370328,0.4662999999998121],[0.14135416666666673,0.013333333333333417,0.482999999999997],[0.1515625,0.01907407407407399,0.4997000000001819],[0.16177083333333328,0.024814814814814772,0.5162999999998092],[0.16052083333333325,0.027037037037037078,0.5330000000000013],[0.15458333333333343,0.024074074074074074,0.5509000000003681],[0.13416666666666663,0.02555555555555547,0.566400000000371],[0.12385416666666677,-0.006851851851851936,0.583100000000556],[0.10125000000000005,-0.024629629629629547,0.5997000000001833],[0.07593750000000009,-0.039074074074074115,0.6162000000001839],[0.07822916666666657,-0.0257407407407407,0.6329999999999956],[0.0787499999999999,-0.029259259259259176,0.6494999999999962],[0.08125,-0.018888888888888972,0.6664000000003725],[0.09197916666666663,-0.026111111111111154,0.6829999999999998],[0.10010416666666658,0.021481481481481525,0.6997000000001847],[0.11354166666666667,0.036481481481481566,0.7162999999998121],[0.12447916666666667,0.03629629629629634,0.732999999999997],[0.1209374999999999,0.04685185185185177,0.7496000000005552],[0.15177083333333338,0.09314814814814806,0.7664000000003739],[0.17697916666666677,0.11370370370370367,0.7830000000000013],[0.18072916666666666,0.12407407407407407,0.8014999999999972],[0.18624999999999994,0.15129629629629637,0.8162999999998135],[0.1962500000000001,0.15407407407407417,0.8329999999999984],[0.20083333333333328,0.14629629629629629,0.849499999999999],[0.21708333333333343,0.1581481481481481,0.8664000000003682],[0.23729166666666662,0.20259259259259255,0.8829000000003688],[0.2445833333333333,0.2381481481481482,0.8997000000001876],[0.2445833333333333,0.27314814814814814,0.9162000000001882],[0.2353125000000001,0.2833333333333333,0.9329999999999998],[0.21489583333333329,0.2801851851851851,0.9495000000000005],[0.20062499999999991,0.2614814814814816,0.9662999999998121],[0.17468750000000005,0.2324074074074074,0.9836000000005569],[0.1462500000000001,0.2111111111111111,0.9997000000001819],[0.11500000000000009,0.21796296296296305,1.0162000000001825],[0.07010416666666662,0.16407407407407412,1.0329000000003745],[0.02520833333333338,0.11018518518518519,1.0495000000000019],[-0.01864583333333331,0.11259259259259251,1.066400000000371],[-0.0578125,0.11870370370370374,1.084600000000556],[-0.1063541666666667,0.0794444444444444,1.0996000000005566],[-0.13541666666666666,0.07592592592592592,1.116200000000184],[-0.15854166666666672,0.08148148148148149,1.1329999999999956],[-0.17000000000000004,0.09740740740740746,1.1494999999999962],[-0.1734375,0.11962962962962967,1.1664000000003725],[-0.17687499999999995,0.1418518518518519,1.182900000000373],[-0.18520833333333328,0.13203703703703695,1.199600000000558],[-0.1935416666666666,0.12222222222222222,1.2162000000001854],[-0.2107291666666666,0.10555555555555556,1.2331000000005545],[-0.22791666666666663,0.08888888888888889,1.2526000000005553],[-0.2626041666666667,0.07814814814814823,1.269100000000556],[-0.29572916666666665,0.07037037037037037,1.2862000000001856],[-0.3180208333333333,0.07185185185185176,1.302500000000002],[-0.3047916666666667,0.06129629629629634,1.3182999999998088],[-0.29958333333333337,0.044444444444444446,1.3350000000000009],[-0.27281249999999996,0.05129629629629638,1.3496000000005566],[-0.24145833333333327,0.08222222222222218,1.3662999999998107],[-0.21677083333333336,0.11166666666666658,1.383200000000187],[-0.16395833333333332,0.1111111111111111,1.3997000000001876],[-0.11114583333333337,0.11055555555555564,1.416299999999815],[-0.040625,0.14740740740740746,1.4329999999999998],[0.02833333333333338,0.18129629629629626,1.449600000000558],[0.08666666666666671,0.20055555555555546,1.4664000000003696],[0.10947916666666657,0.23185185185185195,1.482999999999997],[0.11906249999999995,0.2522222222222223,1.4997000000001819],[0.10708333333333328,0.24888888888888885,1.5162000000001825],[0.10187499999999995,0.23962962962962958,1.5330000000000013],[0.10187499999999995,0.23962962962962958,1.5497000000001862],[0.10333333333333337,0.23185185185185195,1.566400000000371],[0.10333333333333337,0.23185185185185195,1.5829000000003717],[0.10864583333333329,0.22833333333333325,1.6037000000001882],[0.1068749999999999,0.16777777777777783,1.6219000000003732],[0.1068749999999999,0.16777777777777783,1.6331000000005602],[0.1015625,0.13740740740740748,1.6497000000001876],[0.1015625,0.13740740740740748,1.6699000000003679],[0.09718749999999995,0.13944444444444437,1.6834000000003684],[0.09718749999999995,0.13944444444444437,1.699900000000369],[0.07427083333333329,0.22092592592592583,1.7216000000005565],[0.07427083333333329,0.22092592592592583,1.733299999999815],[0.08937499999999995,0.22592592592592592,1.75],[0.08614583333333338,0.24537037037037038,1.7696000000005583],[0.08614583333333338,0.24537037037037038,1.7832999999998123],[0.1015625,0.2170370370370371,1.7999000000003704],[0.11020833333333328,0.19462962962962968,1.8164999999999978],[0.12020833333333343,0.15462962962962962,1.8354000000003694],[0.1243750000000001,0.10611111111111103,1.8502000000001857],[0.1243750000000001,0.10611111111111103,1.87710000000056],[0.13895833333333343,0.07814814814814823,1.8987000000001828],[0.13895833333333343,0.07814814814814823,1.9050000000000011],[0.16906249999999995,0.04425925925925922,1.916299999999815],[0.1977083333333333,-0.014259259259259343,1.933200000000184],[0.2459374999999999,-0.11740740740740736,1.9531000000005605],[0.2459374999999999,-0.11740740740740736,1.966600000000554],[0.24354166666666663,-0.16351851851851854,1.983600000000557],[0.2777083333333332,-0.24611111111111106,2.0026000000005553],[0.2694791666666667,-0.2668518518518519,2.0189000000003716],[0.28624999999999995,-0.29000000000000004,2.0344000000003746],[0.3016666666666666,-0.29555555555555557,2.0499000000003704],[0.29562499999999997,-0.3014814814814815,2.068200000000182],[0.28239583333333323,-0.2638888888888889,2.0832999999998094],[0.26197916666666665,-0.252962962962963,2.0999000000003676],[0.24208333333333343,-0.24981481481481477,2.116500000000002],[0.22239583333333332,-0.32518518518518524,2.1354000000003737],[0.19854166666666656,-0.34870370370370374,2.1497999999998143],[0.1696875000000001,-0.33925925925925926,2.166499999999999],[0.18218750000000009,-0.34592592592592597,2.1837999999998132],[0.1696875000000001,-0.3501851851851852,2.199600000000558],[0.1571875000000001,-0.3544444444444444,2.2162000000001854],[0.17697916666666677,-0.327962962962963,2.232999999999997],[0.20062499999999991,-0.3085185185185186,2.249600000000555],[0.20802083333333338,-0.3138888888888889,2.268200000000185],[0.19947916666666668,-0.3168518518518519,2.2832999999998123],[0.18093750000000006,-0.2740740740740741,2.299999999999997],[0.18937499999999996,-0.2651851851851852,2.316400000000371],[0.20750000000000005,-0.24648148148148152,2.334900000000374],[0.190625,-0.21203703703703702,2.3497000000001833],[0.17458333333333323,-0.18592592592592588,2.366500000000002],[0.15822916666666675,-0.1455555555555556,2.386499999999998],[0.13770833333333338,-0.1685185185185185,2.3997999999998143],[0.12625000000000006,-0.19222222222222224,2.4166000000005567],[0.12916666666666668,-0.14370370370370375,2.433299999999811],[0.14802083333333324,-0.09759259259259258,2.4527999999998116],[0.17041666666666658,-0.1,2.466600000000554],[0.18260416666666662,-0.10092592592592593,2.4834000000003726],[0.14718749999999994,-0.1559259259259259,2.5016000000005576],[0.16281249999999994,-0.18833333333333332,2.5162999999998092],[0.17770833333333325,-0.20129629629629628,2.533100000000559],[0.1929166666666667,-0.22851851851851848,2.5529999999999973],[0.20822916666666677,-0.22111111111111106,2.5684000000003735],[0.18322916666666675,-0.24740740740740744,2.5844999999999985],[0.15354166666666677,-0.32407407407407407,2.5997000000001833],[0.12385416666666677,-0.4007407407407407,2.616200000000184],[0.09322916666666667,-0.4083333333333333,2.632900000000369],[0.0626041666666667,-0.415925925925926,2.649600000000561],[0.04468749999999998,-0.38425925925925924,2.666299999999815],[-0.0068750000000000235,-0.3888888888888889,2.683],[-0.04895833333333333,-0.4281481481481481,2.699600000000558],[-0.10072916666666672,-0.45629629629629626,2.7162000000001854],[-0.12052083333333338,-0.45981481481481484,2.7331000000005545],[-0.12479166666666662,-0.44351851851851853,2.7494999999999976],[-0.12364583333333339,-0.352962962962963,2.7662000000001825],[-0.12364583333333339,-0.352962962962963,2.7830000000000013],[-0.12250000000000003,-0.26240740740740737,2.799700000000186],[-0.12885416666666671,-0.1962962962962963,2.8162000000001868],[-0.1530208333333333,-0.1242592592592593,2.8329000000003717],[-0.15197916666666664,-0.04722222222222222,2.8496000000005566],[-0.14812500000000003,0.009629629629629714,2.8662999999998107],[-0.16312500000000002,0.07296296296296292,2.8829999999999956],[-0.153125,0.1705555555555556,2.899600000000561],[-0.1798958333333334,0.24611111111111106,2.916200000000188],[-0.19885416666666664,0.3111111111111111,2.933],[-0.1857291666666666,0.3237037037037036,2.9522000000001825],[-0.17260416666666673,0.34,2.966299999999812],[-0.1492708333333333,0.33611111111111114,2.9852999999998104],[-0.10812499999999996,0.32629629629629636,2.999700000000182],[-0.06666666666666667,0.3168518518518519,3.0162000000001825],[-0.03937499999999995,0.35907407407407405,3.0330000000000013],[-0.002291666666666714,0.3890740740740741,3.049500000000002],[-0.010312499999999976,0.3655555555555555,3.0662999999998135],[-0.02322916666666662,0.3412962962962962,3.0829000000003717],[-0.03979166666666671,0.2957407407407408,3.0997000000001833],[-0.05677083333333333,0.2716666666666668,3.116200000000184],[-0.04593750000000003,0.227962962962963,3.1329999999999956],[-0.05916666666666662,0.20833333333333334,3.149600000000561],[-0.036145833333333384,0.18351851851851855,3.166499999999999],[-0.036145833333333384,0.18351851851851855,3.183],[0.01427083333333338,0.1866666666666666,3.1997000000001847],[0.027708333333333356,0.09370370370370375,3.2162000000001854],[0.035625000000000046,0.057962962962962876,3.232999999999997],[0.07781250000000005,0.00592592592592601,3.2499000000003733],[0.11229166666666662,-0.0492592592592593,3.2662999999998092],[0.14697916666666658,-0.06777777777777783,3.2829000000003745],[0.16239583333333343,-0.12407407407407407,3.299700000000186],[0.15,-0.16444444444444448,3.3162000000001868],[0.18885416666666663,-0.1507407407407407,3.333100000000556],[0.16937499999999991,-0.1925925925925926,3.3496000000005566],[0.1388541666666666,-0.23296296296296298,3.366500000000002],[0.16416666666666657,-0.19759259259259257,3.3832999999998137],[0.1912499999999999,-0.19129629629629633,3.3997000000001876],[0.21385416666666662,-0.16055555555555553,3.416499999999999],[0.25239583333333326,-0.14166666666666666,3.432900000000373],[0.2881249999999999,-0.12333333333333338,3.4495000000000005],[0.3108333333333334,-0.06888888888888887,3.466299999999812],[0.3223958333333333,-0.012407407407407492,3.482999999999997],[0.309375,-0.05092592592592592,3.499700000000182],[0.32093749999999993,-0.02833333333333325,3.5162000000001825],[0.30416666666666664,-0.01703703703703712,3.5329000000003745],[0.2798958333333334,-0.016851851851851896,3.549500000000002],[0.28250000000000003,0.005185185185185101,3.5662999999998135],[0.2782291666666666,0.014629629629629588,3.5836000000005583],[0.24885416666666677,0.021481481481481525,3.6014000000003676],[0.23364583333333327,0.038703703703703664,3.6162999999998107],[0.2335416666666667,0.044444444444444446,3.6329999999999956],[0.24833333333333343,0.04740740740740745,3.649499999999996],[0.23041666666666671,0.06796296296296304,3.6664000000003725]]","[0.00010000000055754299,0.020700000000182683,0.03629999999981237,0.05160000000055476,0.06640000000037105,0.0835000000000008,0.09970000000018331,0.11620000000018393,0.13310000000056021,0.14960000000056084,0.16660000000055675,0.1832000000001841,0.19970000000018473,0.2162999999998121,0.23310000000055453,0.24960000000055516,0.26629999999980924,0.28300000000000125,0.30160000000055476,0.3162000000001868,0.3329999999999984,0.3497000000001833,0.36629999999981067,0.3857999999998114,0.40179999999980964,0.4162000000001882,0.43299999999999983,0.4501000000005604,0.4662999999998121,0.482999999999997,0.4997000000001819,0.5162999999998092,0.5330000000000013,0.5509000000003681,0.566400000000371,0.583100000000556,0.5997000000001833,0.6162000000001839,0.6329999999999956,0.6494999999999962,0.6664000000003725,0.6829999999999998,0.6997000000001847,0.7162999999998121,0.732999999999997,0.7496000000005552,0.7664000000003739,0.7830000000000013,0.8014999999999972,0.8162999999998135,0.8329999999999984,0.849499999999999,0.8664000000003682,0.8829000000003688,0.8997000000001876,0.9162000000001882,0.9329999999999998,0.9495000000000005,0.9662999999998121,0.9836000000005569,0.9997000000001819,1.0162000000001825,1.0329000000003745,1.0495000000000019,1.066400000000371,1.084600000000556,1.0996000000005566,1.116200000000184,1.1329999999999956,1.1494999999999962,1.1664000000003725,1.182900000000373,1.199600000000558,1.2162000000001854,1.2331000000005545,1.2526000000005553,1.269100000000556,1.2862000000001856,1.302500000000002,1.3182999999998088,1.3350000000000009,1.3496000000005566,1.3662999999998107,1.383200000000187,1.3997000000001876,1.416299999999815,1.4329999999999998,1.449600000000558,1.4664000000003696,1.482999999999997,1.4997000000001819,1.5162000000001825,1.5330000000000013,1.5497000000001862,1.566400000000371,1.5829000000003717,1.6037000000001882,1.6219000000003732,1.6331000000005602,1.6497000000001876,1.6699000000003679,1.6834000000003684,1.699900000000369,1.7216000000005565,1.733299999999815,1.75,1.7696000000005583,1.7832999999998123,1.7999000000003704,1.8164999999999978,1.8354000000003694,1.8502000000001857,1.87710000000056,1.8987000000001828,1.9050000000000011,1.916299999999815,1.933200000000184,1.9531000000005605,1.966600000000554,1.983600000000557,2.0026000000005553,2.0189000000003716,2.0344000000003746,2.0499000000003704,2.068200000000182,2.0832999999998094,2.0999000000003676,2.116500000000002,2.1354000000003737,2.1497999999998143,2.166499999999999,2.1837999999998132,2.199600000000558,2.2162000000001854,2.232999999999997,2.249600000000555,2.268200000000185,2.2832999999998123,2.299999999999997,2.316400000000371,2.334900000000374,2.3497000000001833,2.366500000000002,2.386499999999998,2.3997999999998143,2.4166000000005567,2.433299999999811,2.4527999999998116,2.466600000000554,2.4834000000003726,2.5016000000005576,2.5162999999998092,2.533100000000559,2.5529999999999973,2.5684000000003735,2.5844999999999985,2.5997000000001833,2.616200000000184,2.632900000000369,2.649600000000561,2.666299999999815,2.683,2.699600000000558,2.7162000000001854,2.7331000000005545,2.7494999999999976,2.7662000000001825,2.7830000000000013,2.799700000000186,2.8162000000001868,2.8329000000003717,2.8496000000005566,2.8662999999998107,2.8829999999999956,2.899600000000561,2.916200000000188,2.933,2.9522000000001825,2.966299999999812,2.9852999999998104,2.999700000000182,3.0162000000001825,3.0330000000000013,3.049500000000002,3.0662999999998135,3.0829000000003717,3.0997000000001833,3.116200000000184,3.1329999999999956,3.149600000000561,3.166499999999999,3.183,3.1997000000001847,3.2162000000001854,3.232999999999997,3.2499000000003733,3.2662999999998092,3.2829000000003745,3.299700000000186,3.3162000000001868,3.333100000000556,3.3496000000005566,3.366500000000002,3.3832999999998137,3.3997000000001876,3.416499999999999,3.432900000000373,3.4495000000000005,3.466299999999812,3.482999999999997,3.499700000000182,3.5162000000001825,3.5329000000003745,3.549500000000002,3.5662999999998135,3.5836000000005583,3.6014000000003676,3.6162999999998107,3.6329999999999956,3.649499999999996,3.6664000000003725]","[1733211222705,1733211222724,1733211222740,1733211222755,1733211222770,1733211222787,1733211222803,1733211222820,1733211222837,1733211222853,1733211222870,1733211222887,1733211222903,1733211222920,1733211222937,1733211222953,1733211222970,1733211222986,1733211223005,1733211223020,1733211223037,1733211223053,1733211223070,1733211223089,1733211223105,1733211223120,1733211223136,1733211223154,1733211223170,1733211223186,1733211223203,1733211223220,1733211223236,1733211223254,1733211223270,1733211223287,1733211223303,1733211223320,1733211223336,1733211223353,1733211223370,1733211223386,1733211223403,1733211223420,1733211223436,1733211223453,1733211223470,1733211223487,1733211223505,1733211223520,1733211223536,1733211223553,1733211223570,1733211223586,1733211223603,1733211223620,1733211223636,1733211223653,1733211223670,1733211223687,1733211223703,1733211223720,1733211223736,1733211223753,1733211223770,1733211223788,1733211223803,1733211223820,1733211223836,1733211223853,1733211223870,1733211223886,1733211223903,1733211223920,1733211223937,1733211223956,1733211223973,1733211223990,1733211224006,1733211224022,1733211224038,1733211224053,1733211224070,1733211224087,1733211224103,1733211224120,1733211224136,1733211224153,1733211224170,1733211224186,1733211224203,1733211224220,1733211224236,1733211224253,1733211224270,1733211224286,1733211224307,1733211224325,1733211224337,1733211224353,1733211224373,1733211224387,1733211224403,1733211224425,1733211224437,1733211224453,1733211224473,1733211224487,1733211224503,1733211224520,1733211224539,1733211224554,1733211224581,1733211224602,1733211224608,1733211224620,1733211224637,1733211224657,1733211224670,1733211224687,1733211224706,1733211224722,1733211224738,1733211224753,1733211224772,1733211224787,1733211224803,1733211224820,1733211224839,1733211224853,1733211224870,1733211224887,1733211224903,1733211224920,1733211224936,1733211224953,1733211224972,1733211224987,1733211225003,1733211225020,1733211225038,1733211225053,1733211225070,1733211225090,1733211225103,1733211225120,1733211225137,1733211225156,1733211225170,1733211225187,1733211225205,1733211225220,1733211225237,1733211225256,1733211225272,1733211225288,1733211225303,1733211225320,1733211225336,1733211225353,1733211225370,1733211225386,1733211225403,1733211225420,1733211225436,1733211225453,1733211225470,1733211225486,1733211225503,1733211225520,1733211225536,1733211225553,1733211225570,1733211225586,1733211225603,1733211225620,1733211225636,1733211225656,1733211225670,1733211225689,1733211225703,1733211225720,1733211225736,1733211225753,1733211225770,1733211225786,1733211225803,1733211225820,1733211225836,1733211225853,1733211225870,1733211225886,1733211225903,1733211225920,1733211225936,1733211225953,1733211225970,1733211225986,1733211226003,1733211226020,1733211226036,1733211226053,1733211226070,1733211226087,1733211226103,1733211226120,1733211226136,1733211226153,1733211226170,1733211226186,1733211226203,1733211226220,1733211226236,1733211226253,1733211226270,1733211226287,1733211226305,1733211226320,1733211226336,1733211226353,1733211226370]","[[1040.8,634.6],[1062.7,605.2],[1085.8,597.4],[1107.4,594.1],[1101,579.1],[1048.5,535.1],[1076.3,530.8],[1100.2,513.2],[1119.1,526.9],[1119.1,526.9],[1156.1,529.3],[1156.1,529.3],[1135.9,511.4],[1120.9,498.7],[1097.7,487.6],[1078.3,468.4],[1085,452.3],[1101.6,455.2],[1071.2,451.8],[1044.7,461.7],[1036.5,453.8],[1008.6,460.5],[1018.8,471.4],[1021.1,477.7],[1037.6,489.1],[1058.5,514.9],[1068.3,529],[1083.1,538.6],[1089.4,542.9],[1095.7,547.2],[1105.5,550.3],[1115.3,553.4],[1114.1,554.6],[1108.4,553],[1088.8,553.8],[1078.9,536.3],[1057.2,526.7],[1032.9,518.9],[1035.1,526.1],[1035.6,524.2],[1038,529.8],[1048.3,525.9],[1056.1,551.6],[1069,559.7],[1079.5,559.6],[1076.1,565.3],[1105.7,590.3],[1129.9,601.4],[1133.5,607],[1138.8,621.7],[1148.4,623.2],[1152.8,619],[1168.4,625.4],[1187.8,649.4],[1194.8,668.6],[1194.8,687.5],[1185.9,693],[1166.3,691.3],[1152.6,681.2],[1127.7,665.5],[1100.4,654],[1070.4,657.7],[1027.3,628.6],[984.2,599.5],[942.1,600.8],[904.5,604.1],[857.9,582.9],[830,581],[807.8,584],[796.8,592.6],[793.5,604.6],[790.2,616.6],[782.2,611.3],[774.2,606],[757.7,597],[741.2,588],[707.9,582.2],[676.1,578],[654.7,578.8],[667.4,573.1],[672.4,564],[698.1,567.7],[728.2,584.4],[751.9,600.3],[802.6,600],[853.3,599.7],[921,619.6],[987.2,637.9],[1043.2,648.3],[1065.1,665.2],[1074.3,676.2],[1062.8,674.4],[1057.8,669.4],[1057.8,669.4],[1059.2,665.2],[1059.2,665.2],[1064.3,663.3],[1062.6,630.6],[1062.6,630.6],[1057.5,614.2],[1057.5,614.2],[1053.3,615.3],[1053.3,615.3],[1031.3,659.3],[1031.3,659.3],[1045.8,662],[1042.7,672.5],[1042.7,672.5],[1057.5,657.2],[1065.8,645.1],[1075.4,623.5],[1079.4,597.3],[1079.4,597.3],[1093.4,582.2],[1093.4,582.2],[1122.3,563.9],[1149.8,532.3],[1196.1,476.6],[1196.1,476.6],[1193.8,451.7],[1226.6,407.1],[1218.7,395.9],[1234.8,383.4],[1249.6,380.4],[1243.8,377.2],[1231.1,397.5],[1211.5,403.4],[1192.4,405.1],[1173.5,364.4],[1150.6,351.7],[1122.9,356.8],[1134.9,353.2],[1122.9,350.9],[1110.9,348.6],[1129.9,362.9],[1152.6,373.4],[1159.7,370.5],[1151.5,368.9],[1133.7,392],[1141.8,396.8],[1159.2,406.9],[1143,425.5],[1127.6,439.6],[1111.9,461.4],[1092.2,449],[1081.2,436.2],[1084,462.4],[1102.1,487.3],[1123.6,486],[1135.3,485.5],[1101.3,455.8],[1116.3,438.3],[1130.6,431.3],[1145.2,416.6],[1159.9,420.6],[1135.9,406.4],[1107.4,365],[1078.9,323.6],[1049.5,319.5],[1020.1,315.4],[1002.9,332.5],[953.4,330],[913,308.8],[863.3,293.6],[844.3,291.7],[840.2,300.5],[841.3,349.4],[841.3,349.4],[842.4,398.3],[836.3,434],[813.1,472.9],[814.1,514.5],[817.8,545.2],[803.4,579.4],[813,632.1],[787.3,672.9],[769.1,708],[781.7,714.8],[794.3,723.6],[816.7,721.5],[856.2,716.2],[896,711.1],[922.2,733.9],[957.8,750.1],[950.1,737.4],[937.7,724.3],[921.8,699.7],[905.5,686.7],[915.9,663.1],[903.2,652.5],[925.3,639.1],[925.3,639.1],[973.7,640.8],[986.6,590.6],[994.2,571.3],[1034.7,543.2],[1067.8,513.4],[1101.1,503.4],[1115.9,473],[1104,451.2],[1141.3,458.6],[1122.6,436],[1093.3,414.2],[1117.6,433.3],[1143.6,436.7],[1165.3,453.3],[1202.3,463.5],[1236.6,473.4],[1258.4,502.8],[1269.5,533.3],[1257,512.5],[1268.1,524.7],[1252,530.8],[1228.7,530.9],[1231.2,542.8],[1227.1,547.9],[1198.9,551.6],[1184.3,560.9],[1184.2,564],[1198.4,565.6],[1181.2,576.7]]","[0,0.37864299999999995]","[0.37864299999999995,0.37864299999999995]","[-0.37864299999999995,-0.37864299999999995]","[-0.37864299999999995,0]","[0,-0.37864299999999995]","[0.37864299999999995,-0.37864299999999995]","[0,0]","[0.37864299999999995,0]",0,1,1,1,1,4,Laptop,5,1,13,7
