inst1_resp.keys,inst1_resp.rt,calibrationMouse.x,calibrationMouse.y,calibrationMouse.leftButton,calibrationMouse.midButton,calibrationMouse.rightButton,calibrationClick.x,calibrationClick.y,calibrationClick.leftButton,calibrationClick.midButton,calibrationClick.rightButton,calibrationClick.clicked_name,trialsc.thisRepN,trialsc.thisTrialN,trialsc.thisN,trialsc.thisIndex,trialsc.ran,calibration_x,calibration_y,participant,session,date,expName,psychopyVersion,OS,frameRate,ScreenRes_pixels,Camera_pixels,mouse_2.x,mouse_2.y,mouse_2.leftButton,mouse_2.midButton,mouse_2.rightButton,mouse_2.time,mouse_2.clicked_name,mouse.x,mouse.y,mouse.leftButton,mouse.midButton,mouse.rightButton,mouse.time,mouse.clicked_name,Choice,Trial,TrialDuration,MOUSE_GAZE,ET_GAZE,ET_GAZE_x_T,time,unixTime,ET_GAZE_NF,Loc_Option1_label,Loc_Option2_label,Loc_Cost_label,Loc_Qual_label,Loc_Option1_cost,Loc_Option2_cost,Loc_Option1_quality,Loc_Option2_quality,trials.thisRepN,trials.thisTrialN,trials.thisN,trials.thisIndex,trials.ran,Block,Device,cost1,qual1,cost2,qual2
space,2.5205,0.00625,-0.259259259,1,0,0,0.001041667,-0.674074074,1,0,0,calibration_square,0,0,0,9,1,0,-0.67,13,001,2024-12-03_15h29.34.976,Attention_exp_legacy,2023.1.0,Win32,60.24096386,,,,,,,,,,,,,,,,,,,,,,,,,,,,,,,,,,,,,,,,,,,,
,,,,,,,-0.3375,-0.677777778,1,0,0,calibration_square,0,1,1,4,1,-0.33,-0.67,13,001,2024-12-03_15h29.34.976,Attention_exp_legacy,2023.1.0,Win32,60.24096386,,,,,,,,,,,,,,,,,,,,,,,,,,,,,,,,,,,,,,,,,,,,
,,,,,,,-0.328125,-0.325925926,1,0,0,calibration_square,0,2,2,5,1,-0.33,-0.33,13,001,2024-12-03_15h29.34.976,Attention_exp_legacy,2023.1.0,Win32,60.24096386,,,,,,,,,,,,,,,,,,,,,,,,,,,,,,,,,,,,,,,,,,,,
,,,,,,,-0.678125,-0.324074074,1,0,0,calibration_square,0,3,3,1,1,-0.67,-0.33,13,001,2024-12-03_15h29.34.976,Attention_exp_legacy,2023.1.0,Win32,60.24096386,,,,,,,,,,,,,,,,,,,,,,,,,,,,,,,,,,,,,,,,,,,,
,,,,,,,-0.670833333,0.32962963,1,0,0,calibration_square,0,4,4,3,1,-0.67,0.33,13,001,2024-12-03_15h29.34.976,Attention_exp_legacy,2023.1.0,Win32,60.24096386,,,,,,,,,,,,,,,,,,,,,,,,,,,,,,,,,,,,,,,,,,,,
,,,,,,,-0.001041667,0.677777778,1,0,0,calibration_square,0,5,5,13,1,0,0.67,13,001,2024-12-03_15h29.34.976,Attention_exp_legacy,2023.1.0,Win32,60.24096386,,,,,,,,,,,,,,,,,,,,,,,,,,,,,,,,,,,,,,,,,,,,
,,,,,,,0.335416667,0.335185185,1,0,0,calibration_square,0,6,6,17,1,0.33,0.33,13,001,2024-12-03_15h29.34.976,Attention_exp_legacy,2023.1.0,Win32,60.24096386,,,,,,,,,,,,,,,,,,,,,,,,,,,,,,,,,,,,,,,,,,,,
,,,,,,,-0.0125,-0.337037037,1,0,0,,0,7,7,10,1,0,-0.33,13,001,2024-12-03_15h29.34.976,Attention_exp_legacy,2023.1.0,Win32,60.24096386,,,,,,,,,,,,,,,,,,,,,,,,,,,,,,,,,,,,,,,,,,,,
,,,,,,,0.335416667,0.677777778,1,0,0,calibration_square,0,8,8,18,1,0.33,0.67,13,001,2024-12-03_15h29.34.976,Attention_exp_legacy,2023.1.0,Win32,60.24096386,,,,,,,,,,,,,,,,,,,,,,,,,,,,,,,,,,,,,,,,,,,,
,,,,,,,-0.666666667,0,1,0,0,calibration_square,0,9,9,2,1,-0.67,0,13,001,2024-12-03_15h29.34.976,Attention_exp_legacy,2023.1.0,Win32,60.24096386,,,,,,,,,,,,,,,,,,,,,,,,,,,,,,,,,,,,,,,,,,,,
,,,,,,,-0.319791667,0.001851852,1,0,0,,0,10,10,6,1,-0.33,0,13,001,2024-12-03_15h29.34.976,Attention_exp_legacy,2023.1.0,Win32,60.24096386,,,,,,,,,,,,,,,,,,,,,,,,,,,,,,,,,,,,,,,,,,,,
,,,,,,,-0.661458333,-0.674074074,1,0,0,calibration_square,0,11,11,0,1,-0.67,-0.67,13,001,2024-12-03_15h29.34.976,Attention_exp_legacy,2023.1.0,Win32,60.24096386,,,,,,,,,,,,,,,,,,,,,,,,,,,,,,,,,,,,,,,,,,,,
,,,,,,,-0.323958333,0.331481481,1,0,0,calibration_square,0,12,12,7,1,-0.33,0.33,13,001,2024-12-03_15h29.34.976,Attention_exp_legacy,2023.1.0,Win32,60.24096386,,,,,,,,,,,,,,,,,,,,,,,,,,,,,,,,,,,,,,,,,,,,
,,,,,,,0.669791667,0.664814815,1,0,0,calibration_square,0,13,13,19,1,0.67,0.67,13,001,2024-12-03_15h29.34.976,Attention_exp_legacy,2023.1.0,Win32,60.24096386,,,,,,,,,,,,,,,,,,,,,,,,,,,,,,,,,,,,,,,,,,,,
,,,,,,,0.332291667,-0.333333333,1,0,0,calibration_square,0,14,14,15,1,0.33,-0.33,13,001,2024-12-03_15h29.34.976,Attention_exp_legacy,2023.1.0,Win32,60.24096386,,,,,,,,,,,,,,,,,,,,,,,,,,,,,,,,,,,,,,,,,,,,
,,,,,,,0.340625,-0.011111111,1,0,0,,0,15,15,16,1,0.33,0,13,001,2024-12-03_15h29.34.976,Attention_exp_legacy,2023.1.0,Win32,60.24096386,,,,,,,,,,,,,,,,,,,,,,,,,,,,,,,,,,,,,,,,,,,,
,,,,,,,-0.011458333,0.327777778,1,0,0,,0,16,16,12,1,0,0.33,13,001,2024-12-03_15h29.34.976,Attention_exp_legacy,2023.1.0,Win32,60.24096386,,,,,,,,,,,,,,,,,,,,,,,,,,,,,,,,,,,,,,,,,,,,
,,,,,,,0.335416667,-0.67962963,1,0,0,calibration_square,0,17,17,14,1,0.33,-0.67,13,001,2024-12-03_15h29.34.976,Attention_exp_legacy,2023.1.0,Win32,60.24096386,,,,,,,,,,,,,,,,,,,,,,,,,,,,,,,,,,,,,,,,,,,,
,,,,,,,0.66875,-0.675925926,1,0,0,calibration_square,0,18,18,20,1,0.67,-0.67,13,001,2024-12-03_15h29.34.976,Attention_exp_legacy,2023.1.0,Win32,60.24096386,,,,,,,,,,,,,,,,,,,,,,,,,,,,,,,,,,,,,,,,,,,,
,,,,,,,0.007291667,0,1,0,0,calibration_square,0,19,19,11,1,0,0,13,001,2024-12-03_15h29.34.976,Attention_exp_legacy,2023.1.0,Win32,60.24096386,,,,,,,,,,,,,,,,,,,,,,,,,,,,,,,,,,,,,,,,,,,,
,,,,,,,-0.330208333,0.668518519,1,0,0,calibration_square,0,20,20,8,1,-0.33,0.67,13,001,2024-12-03_15h29.34.976,Attention_exp_legacy,2023.1.0,Win32,60.24096386,,,,,,,,,,,,,,,,,,,,,,,,,,,,,,,,,,,,,,,,,,,,
,,,,,,,,,,,,,,,,,,,,13,001,2024-12-03_15h29.34.976,Attention_exp_legacy,2023.1.0,Win32,60.24096386,"[1920,1080]","[640,480]",[0.0020833333333333333],[-0.5111111111111111],[1],[0],[0],[2.7953999999994394],"[""StartButton""]",[0.37604166666666666],[0.3333333333333333],[1],[0],[0],[2.837300000000745],"[""Option2_label""]",Option2_label,1,3.8572,"[[-0.03854166666666667,-0.37407407407407406],[-0.03854166666666667,-0.37407407407407406],[-0.03854166666666667,-0.37407407407407406],[-0.03854166666666667,-0.37407407407407406],[-0.03854166666666667,-0.37407407407407406],[-0.03854166666666667,-0.37407407407407406],[-0.03854166666666667,-0.37407407407407406],[-0.03854166666666667,-0.37407407407407406],[-0.03854166666666667,-0.37407407407407406],[-0.03854166666666667,-0.37407407407407406],[-0.03854166666666667,-0.37407407407407406],[-0.03854166666666667,-0.37407407407407406],[-0.03854166666666667,-0.37407407407407406],[-0.03854166666666667,-0.37407407407407406],[-0.03854166666666667,-0.37407407407407406],[-0.03854166666666667,-0.37407407407407406],[-0.03854166666666667,-0.37407407407407406],[-0.03854166666666667,-0.37407407407407406],[-0.03854166666666667,-0.37407407407407406],[-0.03854166666666667,-0.37407407407407406],[-0.03854166666666667,-0.37407407407407406],[-0.03854166666666667,-0.37407407407407406],[-0.03854166666666667,-0.37407407407407406],[-0.03854166666666667,-0.37407407407407406],[-0.03854166666666667,-0.37407407407407406],[-0.03854166666666667,-0.37407407407407406],[-0.03854166666666667,-0.37407407407407406],[-0.03854166666666667,-0.37407407407407406],[-0.03854166666666667,-0.37407407407407406],[-0.03854166666666667,-0.37407407407407406],[-0.03854166666666667,-0.37407407407407406],[-0.03854166666666667,-0.37407407407407406],[-0.03854166666666667,-0.37407407407407406],[-0.03854166666666667,-0.37407407407407406],[-0.03854166666666667,-0.37407407407407406],[-0.03854166666666667,-0.37407407407407406],[-0.03854166666666667,-0.37407407407407406],[-0.03854166666666667,-0.37407407407407406],[-0.03854166666666667,-0.37407407407407406],[-0.03854166666666667,-0.37407407407407406],[-0.03854166666666667,-0.37407407407407406],[-0.03854166666666667,-0.37407407407407406],[-0.03854166666666667,-0.37407407407407406],[-0.03854166666666667,-0.37407407407407406],[-0.03854166666666667,-0.37407407407407406],[-0.03854166666666667,-0.37407407407407406],[-0.03854166666666667,-0.37407407407407406],[-0.03854166666666667,-0.37407407407407406],[-0.03854166666666667,-0.37407407407407406],[-0.03854166666666667,-0.37407407407407406],[-0.03854166666666667,-0.37407407407407406],[-0.03854166666666667,-0.37407407407407406],[-0.03854166666666667,-0.37407407407407406],[-0.03854166666666667,-0.37407407407407406],[-0.03854166666666667,-0.37407407407407406],[-0.03854166666666667,-0.37407407407407406],[-0.03854166666666667,-0.37407407407407406],[-0.03854166666666667,-0.37407407407407406],[-0.03854166666666667,-0.37407407407407406],[-0.03854166666666667,-0.37407407407407406],[-0.03854166666666667,-0.37407407407407406],[-0.03854166666666667,-0.37407407407407406],[-0.03854166666666667,-0.37407407407407406],[-0.03854166666666667,-0.37407407407407406],[-0.03854166666666667,-0.37407407407407406],[-0.03854166666666667,-0.37407407407407406],[-0.03854166666666667,-0.37407407407407406],[-0.03854166666666667,-0.37407407407407406],[-0.03854166666666667,-0.37407407407407406],[-0.03854166666666667,-0.37407407407407406],[-0.03854166666666667,-0.37407407407407406],[-0.03854166666666667,-0.37407407407407406],[-0.03854166666666667,-0.37407407407407406],[-0.03854166666666667,-0.37407407407407406],[-0.03854166666666667,-0.37407407407407406],[-0.03854166666666667,-0.37407407407407406],[-0.03854166666666667,-0.37407407407407406],[-0.03854166666666667,-0.37407407407407406],[-0.03854166666666667,-0.37407407407407406],[-0.03854166666666667,-0.37407407407407406],[-0.03854166666666667,-0.37407407407407406],[-0.03854166666666667,-0.37407407407407406],[-0.03854166666666667,-0.37407407407407406],[-0.03854166666666667,-0.37407407407407406],[-0.03854166666666667,-0.37407407407407406],[-0.03854166666666667,-0.37407407407407406],[-0.03854166666666667,-0.37407407407407406],[-0.03854166666666667,-0.37407407407407406],[-0.03854166666666667,-0.37407407407407406],[-0.03854166666666667,-0.37407407407407406],[-0.03854166666666667,-0.37407407407407406],[-0.03854166666666667,-0.37407407407407406],[-0.03854166666666667,-0.37407407407407406],[-0.03854166666666667,-0.37407407407407406],[-0.03854166666666667,-0.37407407407407406],[-0.05416666666666667,-0.37222222222222223],[-0.08020833333333334,-0.3648148148148148],[-0.10625,-0.3574074074074074],[-0.12916666666666668,-0.3537037037037037],[-0.15729166666666666,-0.3425925925925926],[-0.16875,-0.3425925925925926],[-0.18020833333333333,-0.3425925925925926],[-0.18645833333333334,-0.3425925925925926],[-0.18958333333333333,-0.3425925925925926],[-0.19270833333333334,-0.3425925925925926],[-0.19270833333333334,-0.3425925925925926],[-0.19479166666666667,-0.3425925925925926],[-0.19479166666666667,-0.3425925925925926],[-0.19479166666666667,-0.3425925925925926],[-0.19583333333333333,-0.3425925925925926],[-0.19583333333333333,-0.34074074074074073],[-0.19375,-0.3333333333333333],[-0.18020833333333333,-0.3277777777777778],[-0.153125,-0.31296296296296294],[-0.078125,-0.3074074074074074],[0.020833333333333332,-0.3074074074074074],[0.14166666666666666,-0.3074074074074074],[0.25729166666666664,-0.3074074074074074],[0.33645833333333336,-0.3074074074074074],[0.36875,-0.31296296296296294],[0.3770833333333333,-0.31666666666666665],[0.3770833333333333,-0.31666666666666665],[0.3770833333333333,-0.31666666666666665],[0.3770833333333333,-0.31666666666666665],[0.3770833333333333,-0.31666666666666665],[0.3770833333333333,-0.31666666666666665],[0.3770833333333333,-0.31666666666666665],[0.3770833333333333,-0.31666666666666665],[0.3770833333333333,-0.31666666666666665],[0.3770833333333333,-0.3148148148148148],[0.371875,-0.30925925925925923],[0.36354166666666665,-0.29814814814814816],[0.353125,-0.28703703703703703],[0.33229166666666665,-0.2611111111111111],[0.32708333333333334,-0.2537037037037037],[0.321875,-0.23333333333333334],[0.31666666666666665,-0.22037037037037038],[0.3145833333333333,-0.20555555555555555],[0.3145833333333333,-0.19074074074074074],[0.3145833333333333,-0.1685185185185185],[0.3125,-0.13518518518518519],[0.3072916666666667,-0.10555555555555556],[0.30104166666666665,-0.08148148148148149],[0.29583333333333334,-0.06111111111111111],[0.29375,-0.05185185185185185],[0.2916666666666667,-0.040740740740740744],[0.290625,-0.03333333333333333],[0.28958333333333336,-0.020370370370370372],[0.28958333333333336,-0.003703703703703704],[0.28958333333333336,0.027777777777777776],[0.2916666666666667,0.06666666666666667],[0.2989583333333333,0.10555555555555556],[0.3104166666666667,0.15185185185185185],[0.321875,0.19074074074074074],[0.3385416666666667,0.22777777777777777],[0.35104166666666664,0.2611111111111111],[0.36041666666666666,0.2796296296296296],[0.36770833333333336,0.3],[0.36875,0.3037037037037037],[0.3697916666666667,0.3074074074074074],[0.37083333333333335,0.30925925925925923],[0.37083333333333335,0.3111111111111111],[0.37083333333333335,0.3148148148148148],[0.3729166666666667,0.32037037037037036],[0.375,0.3296296296296296],[0.37604166666666666,0.3333333333333333],[0.37604166666666666,0.3333333333333333],[0.37604166666666666,0.3333333333333333],[0.37604166666666666,0.3333333333333333],[0.37604166666666666,0.3333333333333333],[0.37604166666666666,0.3333333333333333],[0.37604166666666666,0.3333333333333333],[0.37604166666666666,0.3333333333333333],[0.37604166666666666,0.3333333333333333],[0.37604166666666666,0.3333333333333333],[0.37604166666666666,0.3333333333333333],[0.37604166666666666,0.3333333333333333],[0.37604166666666666,0.3333333333333333],[0.37604166666666666,0.3333333333333333],[0.37604166666666666,0.3333333333333333],[0.37604166666666666,0.3333333333333333],[0.37604166666666666,0.3333333333333333],[0.37604166666666666,0.3333333333333333],[0.37604166666666666,0.3333333333333333],[0.37604166666666666,0.3333333333333333],[0.37604166666666666,0.3333333333333333],[0.37604166666666666,0.3333333333333333],[0.37604166666666666,0.3333333333333333],[0.37604166666666666,0.3333333333333333],[0.37604166666666666,0.3333333333333333],[0.37604166666666666,0.3333333333333333],[0.37604166666666666,0.3333333333333333],[0.37604166666666666,0.3333333333333333],[0.37604166666666666,0.3333333333333333],[0.37604166666666666,0.3333333333333333],[0.37604166666666666,0.3333333333333333],[0.37604166666666666,0.3333333333333333],[0.37604166666666666,0.3333333333333333],[0.37604166666666666,0.3333333333333333],[0.37604166666666666,0.3333333333333333],[0.37604166666666666,0.3333333333333333],[0.37604166666666666,0.3333333333333333],[0.37604166666666666,0.3333333333333333],[0.37395833333333334,0.3333333333333333],[0.36666666666666664,0.3333333333333333],[0.35,0.3333333333333333],[0.33125,0.3333333333333333],[0.30833333333333335,0.3333333333333333],[0.296875,0.3333333333333333],[0.290625,0.3333333333333333],[0.28854166666666664,0.3351851851851852],[0.28854166666666664,0.3388888888888889],[0.28854166666666664,0.3388888888888889],[0.28854166666666664,0.3388888888888889],[0.28854166666666664,0.3388888888888889],[0.28854166666666664,0.3388888888888889],[0.28854166666666664,0.3388888888888889],[0.28854166666666664,0.3388888888888889],[0.28854166666666664,0.3388888888888889],[0.28854166666666664,0.3388888888888889],[0.28854166666666664,0.3388888888888889],[0.28854166666666664,0.3388888888888889],[0.28854166666666664,0.3388888888888889],[0.28854166666666664,0.3388888888888889],[0.28854166666666664,0.3388888888888889],[0.28854166666666664,0.3388888888888889],[0.28854166666666664,0.3388888888888889],[0.28854166666666664,0.3388888888888889],[0.28854166666666664,0.3388888888888889],[0.28854166666666664,0.3388888888888889],[0.28854166666666664,0.3388888888888889]]","[[-0.09750000000000002,0.19907407407407407],[-0.09750000000000002,0.19907407407407407],[-0.09968750000000005,0.18351851851851855],[-0.08947916666666664,0.17814814814814822],[-0.10510416666666664,0.18055555555555555],[-0.11697916666666662,0.16666666666666666],[-0.10833333333333334,0.18518518518518517],[-0.08760416666666669,0.18555555555555564],[-0.08156249999999995,0.1411111111111112],[-0.06812499999999998,0.11055555555555564],[-0.08020833333333334,0.11999999999999991],[-0.06593749999999995,0.1361111111111111],[-0.057291666666666664,0.15629629629629627],[-0.043958333333333384,0.1714814814814815],[-0.01416666666666669,0.19222222222222213],[-0.001145833333333357,0.1735185185185186],[0.0125,0.14870370370370362],[0.0015625,0.17111111111111107],[-0.006666666666666643,0.21351851851851844],[-0.006666666666666643,0.21351851851851844],[-0.02687499999999995,0.24092592592592596],[-0.0046875,0.24444444444444444],[-0.016145833333333335,0.25388888888888894],[-0.027499999999999976,0.24518518518518514],[-0.04697916666666669,0.24870370370370362],[-0.04697916666666669,0.24870370370370362],[-0.06239583333333331,0.24722222222222223],[-0.07447916666666667,0.262037037037037],[-0.08489583333333334,0.25462962962962965],[-0.08718750000000004,0.21777777777777782],[-0.10187499999999995,0.1772222222222223],[-0.09145833333333328,0.16537037037037028],[-0.11156250000000002,0.15314814814814823],[-0.096875,0.1398148148148148],[-0.09968750000000005,0.1398148148148148],[-0.07312500000000005,0.11074074074074065],[-0.058749999999999976,0.1081481481481481],[-0.028958333333333287,0.08129629629629626],[-0.0014583333333333095,0.08277777777777787],[0.03354166666666671,0.10962962962962972],[0.08333333333333333,0.10944444444444448],[0.10031249999999996,0.14129629629629623],[0.13020833333333334,0.15999999999999995],[0.1414583333333333,0.19407407407407398],[0.18218750000000009,0.24759259259259267],[0.19697916666666657,0.3229629629629629],[0.19177083333333325,0.40611111111111103],[0.16666666666666666,0.4824074074074074],[0.14656250000000004,0.5655555555555555],[0.11895833333333337,0.6233333333333334],[0.08760416666666657,0.6985185185185186],[0.058854166666666666,0.7612962962962964],[0.058854166666666666,0.7612962962962964],[0.08864583333333324,0.8581481481481481],[0.08718750000000004,1.0157407407407408],[0.04229166666666669,1.097962962962963],[0.00010416666666669035,1.1111111111111112],[-0.014999999999999977,1.1462962962962964],[-0.022708333333333285,1.212037037037037],[-0.03718750000000005,1.257037037037037],[-0.06062500000000005,1.2687037037037034],[-0.06916666666666664,1.2668518518518517],[-0.06802083333333328,1.2177777777777776],[-0.11843750000000004,1.162222222222222],[-0.1420833333333333,1.0227777777777778],[-0.14020833333333335,0.9279629629629628],[-0.13531249999999997,0.9170370370370371],[-0.13531249999999997,0.9170370370370371],[-0.13010416666666663,0.846111111111111],[-0.1172916666666667,0.7687037037037038],[-0.11958333333333329,0.7237037037037036],[-0.11291666666666664,0.712037037037037],[-0.11312500000000002,0.7290740740740742],[-0.11312500000000002,0.7290740740740742],[-0.1,0.777962962962963],[-0.09583333333333334,0.7918518518518519],[-0.06958333333333329,0.8159259259259259],[-0.02052083333333338,0.844074074074074],[0.007187499999999976,0.8283333333333333],[0.050520833333333334,0.8416666666666667],[0.09375,0.8361111111111111],[0.1650000000000001,0.8168518518518519],[0.23510416666666673,0.7844444444444445],[0.29958333333333326,0.7496296296296295],[0.3507291666666667,0.6829629629629629],[0.3507291666666667,0.6829629629629629],[0.37395833333333334,0.6909259259259259],[0.3602083333333333,0.6624074074074074],[0.3294791666666666,0.6459259259259258],[0.32937500000000003,0.6885185185185184],[0.31364583333333323,0.7020370370370371],[0.31364583333333323,0.7020370370370371],[0.2775000000000001,0.7129629629629629],[0.23041666666666671,0.7001851851851852],[0.1993750000000001,0.7420370370370372],[0.16729166666666656,0.7844444444444445],[0.1140625,0.7498148148148148],[0.1140625,0.7498148148148148],[0.09520833333333342,0.6711111111111111],[0.08125,0.6287037037037037],[0.059375,0.6494444444444445],[0.022500000000000023,0.6401851851851853],[-0.018333333333333358,0.5912962962962962],[-0.02364583333333338,0.5590740740740741],[-0.04833333333333331,0.5420370370370371],[-0.04833333333333331,0.5420370370370371],[-0.058541666666666714,0.48333333333333334],[-0.058541666666666714,0.48333333333333334],[-0.034375,0.41518518518518527],[-0.034375,0.41518518518518527],[-0.05687500000000002,0.4448148148148149],[-0.05687500000000002,0.4448148148148149],[-0.035208333333333286,0.4920370370370371],[-0.035208333333333286,0.4920370370370371],[-0.011874999999999976,0.5527777777777778],[0.019375000000000024,0.5503703703703705],[0.07260416666666672,0.5962962962962963],[0.10916666666666662,0.5777777777777777],[0.03604166666666669,0.6231481481481481],[0.025833333333333285,0.6535185185185185],[-0.008541666666666715,0.692962962962963],[-0.01572916666666669,0.7],[0.011770833333333286,0.6946296296296297],[-0.0048958333333333805,0.6716666666666667],[0.005624999999999976,0.5953703703703703],[-0.017708333333333333,0.4959259259259258],[-0.06531250000000005,0.3603703703703704],[-0.005729166666666666,0.2772222222222223],[0.09541666666666657,0.13203703703703695],[0.11302083333333333,0.10185185185185185],[0.17458333333333323,0.05981481481481473],[0.1492708333333333,0.059999999999999956],[0.1570833333333333,0.05185185185185185],[0.14916666666666673,0.02555555555555547],[0.14479166666666668,0.056666666666666705],[0.20499999999999996,0.09240740740740737],[0.25,0.11629629629629622],[0.1946875000000001,0.175],[0.18489583333333334,0.24314814814814806],[0.22781250000000006,0.22759259259259254],[0.2265625,0.2125925925925925],[0.25062499999999993,0.19722222222222222],[0.2679166666666667,0.16222222222222227],[0.30135416666666665,0.15648148148148147],[0.3472916666666668,0.11185185185185181],[0.3625,0.08574074074074066],[0.37000000000000005,0.04759259259259268],[0.39124999999999993,0.02629629629629638],[0.41385416666666663,-0.006481481481481481],[0.3902083333333332,-0.05555555555555555],[0.39000000000000007,-0.059999999999999956],[0.3915625000000001,-0.07740740740740742],[0.39989583333333345,-0.07518518518518523],[0.4150000000000001,-0.09129629629629632],[0.38791666666666674,-0.11148148148148146],[0.38791666666666674,-0.11148148148148146],[0.3707291666666668,-0.1272222222222222],[0.3536458333333333,-0.13222222222222219],[0.3506249999999999,-0.14722222222222223],[0.36906249999999996,-0.15907407407407403],[0.41083333333333344,-0.15055555555555558],[0.41124999999999995,-0.20777777777777776],[0.4103125000000001,-0.2381481481481482],[0.4103125000000001,-0.2381481481481482],[0.409375,-0.26851851851851855],[0.40499999999999997,-0.2814814814814815],[0.39822916666666663,-0.28166666666666673],[0.3898958333333333,-0.28425925925925927],[0.3966666666666666,-0.285],[0.38937499999999997,-0.2757407407407407],[0.35947916666666657,-0.24148148148148144],[0.33958333333333335,-0.22388888888888886],[0.3147916666666667,-0.17999999999999997],[0.27979166666666655,-0.14240740740740737],[0.24177083333333324,-0.1361111111111111],[0.21583333333333338,-0.11888888888888886],[0.21739583333333337,-0.0801851851851852],[0.16802083333333329,-0.02388888888888885],[0.12864583333333332,0.03148148148148148],[0.13208333333333327,0.03759259259259251],[0.13166666666666677,0.01629629629629621],[0.07822916666666657,0.032037037037036954],[0.08624999999999995,0.03981481481481482],[0.07302083333333324,0.06351851851851843],[0.09593749999999991,0.06851851851851852],[0.08875000000000005,0.08518518518518518],[0.04739583333333333,0.10277777777777777],[0.04739583333333333,0.10277777777777777],[0.08499999999999991,0.0712962962962963],[0.11593749999999996,0.034074074074074034],[0.07229166666666677,0.0787037037037037],[0.024270833333333287,0.16722222222222213],[0.07270833333333329,0.1527777777777778],[0.07270833333333329,0.1527777777777778],[0.078125,0.13962962962962958],[0.11270833333333338,0.11148148148148157],[0.07083333333333333,0.09703703703703699],[0.049479166666666664,0.11870370370370374],[0.07468750000000005,0.10425925925925918],[0.07468750000000005,0.10425925925925918],[0.07718749999999991,0.1337037037037038],[0.08416666666666663,0.15037037037037046],[0.11906249999999995,0.12611111111111115],[0.12760416666666666,0.11185185185185181],[0.1388541666666666,0.09685185185185177],[0.1388541666666666,0.09685185185185177],[0.13291666666666657,0.1338888888888888],[0.1570833333333333,0.09722222222222222],[0.22458333333333325,0.09685185185185177],[0.28541666666666665,0.0485185185185186],[0.3076041666666666,0.02388888888888885],[0.3076041666666666,0.02388888888888885],[0.31614583333333335,-0.01518518518518527],[0.33531250000000007,-0.06425925925925924],[0.36770833333333336,-0.10388888888888893],[0.4431250000000001,-0.21277777777777773],[0.4626041666666666,-0.24888888888888885],[0.4626041666666666,-0.24888888888888885],[0.4986458333333334,-0.3331481481481481],[0.48562500000000003,-0.31500000000000006],[0.49072916666666655,-0.2953703703703704],[0.4905208333333334,-0.31925925925925924],[0.4795833333333334,-0.34333333333333327],[0.45854166666666674,-0.3531481481481481],[0.4724999999999999,-0.34444444444444444],[0.4724999999999999,-0.34444444444444444],[0.4595833333333334,-0.37703703703703706],[0.4484375,-0.3866666666666667],[0.4484375,-0.3866666666666667],[0.4470833333333334,-0.40240740740740744],[0.4470833333333334,-0.40240740740740744]]","[[-0.09750000000000002,0.19907407407407407,0.00029999999981811243],[-0.09750000000000002,0.19907407407407407,0.045599999999630825],[-0.09968750000000005,0.18351851851851855,0.057199999999255624],[-0.08947916666666664,0.17814814814814822,0.07389999999944052],[-0.10510416666666664,0.18055555555555555,0.0905000000000058],[-0.11697916666666662,0.16666666666666666,0.10929999999981277],[-0.10833333333333334,0.18518518518518517,0.12389999999944479],[-0.08760416666666669,0.18555555555555564,0.14269999999925886],[-0.08156249999999995,0.1411111111111112,0.15719999999925705],[-0.06812499999999998,0.11055555555555564,0.17389999999944195],[-0.08020833333333334,0.11999999999999991,0.19059999999962685],[-0.06593749999999995,0.1361111111111111,0.20750000000000313],[-0.057291666666666664,0.15629629629629627,0.2238999999994462],[-0.043958333333333384,0.1714814814814815,0.24239999999944217],[-0.01416666666666669,0.19222222222222213,0.25719999999925847],[-0.001145833333333357,0.1735185185185186,0.27389999999944337],[0.0125,0.14870370370370362,0.29050000000000153],[0.0015625,0.17111111111111107,0.307399999999447],[-0.006666666666666643,0.21351851851851844,0.32419999999925864],[-0.006666666666666643,0.21351851851851844,0.34059999999963253],[-0.02687499999999995,0.24092592592592596,0.35729999999981743],[-0.0046875,0.24444444444444444,0.37400000000000233],[-0.016145833333333335,0.25388888888888894,0.3905999999996297],[-0.027499999999999976,0.24518518518518514,0.4095000000000013],[-0.04697916666666669,0.24870370370370362,0.42389999999944195],[-0.04697916666666669,0.24870370370370362,0.4406999999992607],[-0.06239583333333331,0.24722222222222223,0.45729999999981885],[-0.07447916666666667,0.262037037037037,0.4738999999994462],[-0.08489583333333334,0.25462962962962965,0.4905999999996311],[-0.08718750000000004,0.21777777777777782,0.5071999999992585],[-0.10187499999999995,0.1772222222222223,0.5237999999998166],[-0.09145833333333328,0.16537037037037028,0.542799999999815],[-0.11156250000000002,0.15314814814814823,0.5572999999998132],[-0.096875,0.1398148148148148,0.5738999999994405],[-0.09968750000000005,0.1398148148148148,0.5905000000000058],[-0.07312500000000005,0.11074074074074065,0.6072999999998174],[-0.058749999999999976,0.1081481481481481,0.6238999999994448],[-0.028958333333333287,0.08129629629629626,0.6417999999998187],[-0.0014583333333333095,0.08277777777777787,0.657199999999257],[0.03354166666666671,0.10962962962962972,0.673899999999442],[0.08333333333333333,0.10944444444444448,0.6905999999996268],[0.10031249999999996,0.14129629629629623,0.7072999999998189],[0.13020833333333334,0.15999999999999995,0.7240999999996305],[0.1414583333333333,0.19407407407407398,0.7440999999996265],[0.18218750000000009,0.24759259259259267,0.7607999999998185],[0.19697916666666657,0.3229629629629629,0.7760999999996301],[0.19177083333333325,0.40611111111111103,0.7905999999996283],[0.16666666666666666,0.4824074074074074,0.8072999999998132],[0.14656250000000004,0.5655555555555555,0.8238999999994405],[0.11895833333333337,0.6233333333333334,0.8438999999994437],[0.08760416666666657,0.6985185185185186,0.8571999999992599],[0.058854166666666666,0.7612962962962964,0.8777999999998158],[0.058854166666666666,0.7612962962962964,0.8948999999994456],[0.08864583333333324,0.8581481481481481,0.9101999999992572],[0.08718750000000004,1.0157407407407408,0.9237999999998152],[0.04229166666666669,1.097962962962963,0.9417999999998159],[0.00010416666666669035,1.1111111111111112,0.9571999999992542],[-0.014999999999999977,1.1462962962962964,0.9738999999994462],[-0.022708333333333285,1.212037037037037,0.9905999999996311],[-0.03718750000000005,1.257037037037037,1.007299999999816],[-0.06062500000000005,1.2687037037037034,1.0238999999994434],[-0.06916666666666664,1.2668518518518517,1.0437999999998198],[-0.06802083333333328,1.2177777777777776,1.057399999999447],[-0.11843750000000004,1.162222222222222,1.0740000000000052],[-0.1420833333333333,1.0227777777777778,1.0905000000000058],[-0.14020833333333335,0.9279629629629628,1.1071999999992599],[-0.13531249999999997,0.9170370370370371,1.1238999999994448],[-0.13531249999999997,0.9170370370370371,1.1406999999992564],[-0.13010416666666663,0.846111111111111,1.157199999999257],[-0.1172916666666667,0.7687037037037038,1.173899999999442],[-0.11958333333333329,0.7237037037037036,1.1905999999996268],[-0.11291666666666664,0.712037037037037,1.2072999999998189],[-0.11312500000000002,0.7290740740740742,1.2237999999998195],[-0.11312500000000002,0.7290740740740742,1.240599999999631],[-0.1,0.777962962962963,1.257299999999816],[-0.09583333333333334,0.7918518518518519,1.2750999999996324],[-0.06958333333333329,0.8159259259259259,1.2905999999996283],[-0.02052083333333338,0.844074074074074,1.3072999999998132],[0.007187499999999976,0.8283333333333333,1.324099999999632],[0.050520833333333334,0.8416666666666667,1.3410999999996278],[0.09375,0.8361111111111111,1.3571999999992599],[0.1650000000000001,0.8168518518518519,1.3738999999994448],[0.23510416666666673,0.7844444444444445,1.3905999999996297],[0.29958333333333326,0.7496296296296295,1.407199999999257],[0.3507291666666667,0.6829629629629629,1.4239999999999995],[0.3507291666666667,0.6829629629629629,1.4406999999992607],[0.37395833333333334,0.6909259259259259,1.4572999999998189],[0.3602083333333333,0.6624074074074074,1.4738999999994462],[0.3294791666666666,0.6459259259259258,1.4905000000000044],[0.32937500000000003,0.6885185185185184,1.5071999999992585],[0.31364583333333323,0.7020370370370371,1.5237999999998166],[0.31364583333333323,0.7020370370370371,1.540699999999255],[0.2775000000000001,0.7129629629629629,1.5571999999992556],[0.23041666666666671,0.7001851851851852,1.5738999999994405],[0.1993750000000001,0.7420370370370372,1.5906999999992593],[0.16729166666666656,0.7844444444444445,1.6106999999992553],[0.1140625,0.7498148148148148,1.6240000000000023],[0.1140625,0.7498148148148148,1.640799999999814],[0.09520833333333342,0.6711111111111111,1.657500000000006],[0.08125,0.6287037037037037,1.6761999999992554],[0.059375,0.6494444444444445,1.6906999999992607],[0.022500000000000023,0.6401851851851853,1.7075000000000031],[-0.018333333333333358,0.5912962962962962,1.7242999999998148],[-0.02364583333333338,0.5590740740740741,1.7443999999994446],[-0.04833333333333331,0.5420370370370371,1.7598999999994405],[-0.04833333333333331,0.5420370370370371,1.7738999999994434],[-0.058541666666666714,0.48333333333333334,1.790699999999255],[-0.058541666666666714,0.48333333333333334,1.8071999999992556],[-0.034375,0.41518518518518527,1.8237999999998138],[-0.034375,0.41518518518518527,1.8442999999998193],[-0.05687500000000002,0.4448148148148149,1.8572999999998174],[-0.05687500000000002,0.4448148148148149,1.874099999999629],[-0.035208333333333286,0.4920370370370371,1.890799999999814],[-0.035208333333333286,0.4920370370370371,1.9115999999996305],[-0.011874999999999976,0.5527777777777778,1.92419999999926],[0.019375000000000024,0.5503703703703705,1.9443999999994404],[0.07260416666666672,0.5962962962962963,1.9625000000000057],[0.10916666666666662,0.5777777777777777,1.9770000000000039],[0.03604166666666669,0.6231481481481481,1.990599999999631],[0.025833333333333285,0.6535185185185185,2.0075000000000003],[-0.008541666666666715,0.692962962962963,2.0271999999992545],[-0.01572916666666669,0.7,2.0428999999994417],[0.011770833333333286,0.6946296296296297,2.0571999999992556],[-0.0048958333333333805,0.6716666666666667,2.0738999999994405],[0.005624999999999976,0.5953703703703703,2.090500000000006],[-0.017708333333333333,0.4959259259259258,2.1072999999998174],[-0.06531250000000005,0.3603703703703704,2.123899999999445],[-0.005729166666666666,0.2772222222222223,2.141699999999254],[0.09541666666666657,0.13203703703703695,2.1572999999998146],[0.11302083333333333,0.10185185185185185,2.176000000000002],[0.17458333333333323,0.05981481481481473,2.1906999999992607],[0.1492708333333333,0.059999999999999956,2.207500000000003],[0.1570833333333333,0.05185185185185185,2.2267999999998196],[0.14916666666666673,0.02555555555555547,2.243099999999629],[0.14479166666666668,0.056666666666666705,2.2575000000000003],[0.20499999999999996,0.09240740740740737,2.2762999999998144],[0.25,0.11629629629629622,2.2908999999994464],[0.1946875000000001,0.175,2.3075999999996313],[0.18489583333333334,0.24314814814814806,2.3275000000000006],[0.22781250000000006,0.22759259259259254,2.342899999999446],[0.2265625,0.2125925925925925,2.3572999999998174],[0.25062499999999993,0.19722222222222222,2.374099999999629],[0.2679166666666667,0.16222222222222227,2.3930000000000007],[0.30135416666666665,0.15648148148148147,2.408099999999628],[0.3472916666666668,0.11185185185185181,2.4239999999999995],[0.3625,0.08574074074074066,2.444500000000005],[0.37000000000000005,0.04759259259259268,2.4585999999996275],[0.39124999999999993,0.02629629629629638,2.4740999999996305],[0.41385416666666663,-0.006481481481481481,2.490699999999258],[0.3902083333333332,-0.05555555555555555,2.5098999999994405],[0.39000000000000007,-0.059999999999999956,2.5240999999996276],[0.3915625000000001,-0.07740740740740742,2.5420000000000016],[0.39989583333333345,-0.07518518518518523,2.557399999999447],[0.4150000000000001,-0.09129629629629632,2.5768999999994406],[0.38791666666666674,-0.11148148148148146,2.5906999999992593],[0.38791666666666674,-0.11148148148148146,2.6075000000000017],[0.3707291666666668,-0.1272222222222222,2.6240000000000023],[0.3536458333333333,-0.13222222222222219,2.645299999999814],[0.3506249999999999,-0.14722222222222223,2.6596999999992548],[0.36906249999999996,-0.15907407407407403,2.6739999999999995],[0.41083333333333344,-0.15055555555555558,2.690599999999627],[0.41124999999999995,-0.20777777777777776,2.709699999999259],[0.4103125000000001,-0.2381481481481482,2.7240000000000038],[0.4103125000000001,-0.2381481481481482,2.7409999999999997],[0.409375,-0.26851851851851855,2.757599999999627],[0.40499999999999997,-0.2814814814814815,2.778299999999817],[0.39822916666666663,-0.28166666666666673,2.7923999999994464],[0.3898958333333333,-0.28425925925925927,2.8071999999992556],[0.3966666666666666,-0.285,2.8238999999994405],[0.38937499999999997,-0.2757407407407407,2.844399999999446],[0.35947916666666657,-0.24148148148148144,2.8590999999996285],[0.33958333333333335,-0.22388888888888886,2.873899999999445],[0.3147916666666667,-0.17999999999999997,2.890500000000003],[0.27979166666666655,-0.14240740740740737,2.9095000000000013],[0.24177083333333324,-0.1361111111111111,2.923899999999442],[0.21583333333333338,-0.11888888888888886,2.943299999999816],[0.21739583333333337,-0.0801851851851852,2.959699999999259],[0.16802083333333329,-0.02388888888888885,2.974199999999257],[0.12864583333333332,0.03148148148148148,2.990899999999442],[0.13208333333333327,0.03759259259259251,3.0073999999994427],[0.13166666666666677,0.01629629629629621,3.0238999999994434],[0.07822916666666657,0.032037037037036954,3.0440999999996308],[0.08624999999999995,0.03981481481481482,3.0571999999992556],[0.07302083333333324,0.06351851851851843,3.0738999999994405],[0.09593749999999991,0.06851851851851852,3.090500000000006],[0.08875000000000005,0.08518518518518518,3.10719999999926],[0.04739583333333333,0.10277777777777777,3.123899999999445],[0.04739583333333333,0.10277777777777777,3.1405999999996297],[0.08499999999999991,0.0712962962962963,3.1570999999996303],[0.11593749999999996,0.034074074074074034,3.173899999999442],[0.07229166666666677,0.0787037037037037,3.190599999999627],[0.024270833333333287,0.16722222222222213,3.207199999999254],[0.07270833333333329,0.1527777777777778,3.223899999999446],[0.07270833333333329,0.1527777777777778,3.240599999999631],[0.078125,0.13962962962962958,3.2571999999992585],[0.11270833333333338,0.11148148148148157,3.2738999999994434],[0.07083333333333333,0.09703703703703699,3.2905000000000015],[0.049479166666666664,0.11870370370370374,3.3102999999998133],[0.07468750000000005,0.10425925925925918,3.325000000000003],[0.07468750000000005,0.10425925925925918,3.3405999999996325],[0.07718749999999991,0.1337037037037038,3.35719999999926],[0.08416666666666663,0.15037037037037046,3.373899999999445],[0.11906249999999995,0.12611111111111115,3.390500000000003],[0.12760416666666666,0.11185185185185181,3.409599999999628],[0.1388541666666666,0.09685185185185177,3.4240999999996333],[0.1388541666666666,0.09685185185185177,3.4410999999996292],[0.13291666666666657,0.1338888888888888,3.4607999999998142],[0.1570833333333333,0.09722222222222222,3.476399999999444],[0.22458333333333325,0.09685185185185177,3.4909999999999997],[0.28541666666666665,0.0485185185185186,3.511000000000003],[0.3076041666666666,0.02388888888888885,3.5255999999996277],[0.3076041666666666,0.02388888888888885,3.5408999999994464],[0.31614583333333335,-0.01518518518518527,3.5571999999992556],[0.33531250000000007,-0.06425925925925924,3.5738999999994405],[0.36770833333333336,-0.10388888888888893,3.590500000000006],[0.4431250000000001,-0.21277777777777773,3.60719999999926],[0.4626041666666666,-0.24888888888888885,3.623899999999445],[0.4626041666666666,-0.24888888888888885,3.6405999999996297],[0.4986458333333334,-0.3331481481481481,3.657199999999257],[0.48562500000000003,-0.31500000000000006,3.6743999999994443],[0.49072916666666655,-0.2953703703703704,3.6905],[0.4905208333333334,-0.31925925925925924,3.7086999999992543],[0.4795833333333334,-0.34333333333333327,3.723899999999446],[0.45854166666666674,-0.3531481481481481,3.743299999999813],[0.4724999999999999,-0.34444444444444444,3.757599999999627],[0.4724999999999999,-0.34444444444444444,3.7737999999998166],[0.4595833333333334,-0.37703703703703706,3.7905000000000015],[0.4484375,-0.3866666666666667,3.812799999999818],[0.4484375,-0.3866666666666667,3.8238999999994405],[0.4470833333333334,-0.40240740740740744,3.8405999999996325],[0.4470833333333334,-0.40240740740740744,3.85719999999926]]","[0.00029999999981811243,0.045599999999630825,0.057199999999255624,0.07389999999944052,0.0905000000000058,0.10929999999981277,0.12389999999944479,0.14269999999925886,0.15719999999925705,0.17389999999944195,0.19059999999962685,0.20750000000000313,0.2238999999994462,0.24239999999944217,0.25719999999925847,0.27389999999944337,0.29050000000000153,0.307399999999447,0.32419999999925864,0.34059999999963253,0.35729999999981743,0.37400000000000233,0.3905999999996297,0.4095000000000013,0.42389999999944195,0.4406999999992607,0.45729999999981885,0.4738999999994462,0.4905999999996311,0.5071999999992585,0.5237999999998166,0.542799999999815,0.5572999999998132,0.5738999999994405,0.5905000000000058,0.6072999999998174,0.6238999999994448,0.6417999999998187,0.657199999999257,0.673899999999442,0.6905999999996268,0.7072999999998189,0.7240999999996305,0.7440999999996265,0.7607999999998185,0.7760999999996301,0.7905999999996283,0.8072999999998132,0.8238999999994405,0.8438999999994437,0.8571999999992599,0.8777999999998158,0.8948999999994456,0.9101999999992572,0.9237999999998152,0.9417999999998159,0.9571999999992542,0.9738999999994462,0.9905999999996311,1.007299999999816,1.0238999999994434,1.0437999999998198,1.057399999999447,1.0740000000000052,1.0905000000000058,1.1071999999992599,1.1238999999994448,1.1406999999992564,1.157199999999257,1.173899999999442,1.1905999999996268,1.2072999999998189,1.2237999999998195,1.240599999999631,1.257299999999816,1.2750999999996324,1.2905999999996283,1.3072999999998132,1.324099999999632,1.3410999999996278,1.3571999999992599,1.3738999999994448,1.3905999999996297,1.407199999999257,1.4239999999999995,1.4406999999992607,1.4572999999998189,1.4738999999994462,1.4905000000000044,1.5071999999992585,1.5237999999998166,1.540699999999255,1.5571999999992556,1.5738999999994405,1.5906999999992593,1.6106999999992553,1.6240000000000023,1.640799999999814,1.657500000000006,1.6761999999992554,1.6906999999992607,1.7075000000000031,1.7242999999998148,1.7443999999994446,1.7598999999994405,1.7738999999994434,1.790699999999255,1.8071999999992556,1.8237999999998138,1.8442999999998193,1.8572999999998174,1.874099999999629,1.890799999999814,1.9115999999996305,1.92419999999926,1.9443999999994404,1.9625000000000057,1.9770000000000039,1.990599999999631,2.0075000000000003,2.0271999999992545,2.0428999999994417,2.0571999999992556,2.0738999999994405,2.090500000000006,2.1072999999998174,2.123899999999445,2.141699999999254,2.1572999999998146,2.176000000000002,2.1906999999992607,2.207500000000003,2.2267999999998196,2.243099999999629,2.2575000000000003,2.2762999999998144,2.2908999999994464,2.3075999999996313,2.3275000000000006,2.342899999999446,2.3572999999998174,2.374099999999629,2.3930000000000007,2.408099999999628,2.4239999999999995,2.444500000000005,2.4585999999996275,2.4740999999996305,2.490699999999258,2.5098999999994405,2.5240999999996276,2.5420000000000016,2.557399999999447,2.5768999999994406,2.5906999999992593,2.6075000000000017,2.6240000000000023,2.645299999999814,2.6596999999992548,2.6739999999999995,2.690599999999627,2.709699999999259,2.7240000000000038,2.7409999999999997,2.757599999999627,2.778299999999817,2.7923999999994464,2.8071999999992556,2.8238999999994405,2.844399999999446,2.8590999999996285,2.873899999999445,2.890500000000003,2.9095000000000013,2.923899999999442,2.943299999999816,2.959699999999259,2.974199999999257,2.990899999999442,3.0073999999994427,3.0238999999994434,3.0440999999996308,3.0571999999992556,3.0738999999994405,3.090500000000006,3.10719999999926,3.123899999999445,3.1405999999996297,3.1570999999996303,3.173899999999442,3.190599999999627,3.207199999999254,3.223899999999446,3.240599999999631,3.2571999999992585,3.2738999999994434,3.2905000000000015,3.3102999999998133,3.325000000000003,3.3405999999996325,3.35719999999926,3.373899999999445,3.390500000000003,3.409599999999628,3.4240999999996333,3.4410999999996292,3.4607999999998142,3.476399999999444,3.4909999999999997,3.511000000000003,3.5255999999996277,3.5408999999994464,3.5571999999992556,3.5738999999994405,3.590500000000006,3.60719999999926,3.623899999999445,3.6405999999996297,3.657199999999257,3.6743999999994443,3.6905,3.7086999999992543,3.723899999999446,3.743299999999813,3.757599999999627,3.7737999999998166,3.7905000000000015,3.812799999999818,3.8238999999994405,3.8405999999996325,3.85719999999926]","[1733211021356,1733211021394,1733211021406,1733211021423,1733211021439,1733211021458,1733211021473,1733211021492,1733211021506,1733211021523,1733211021539,1733211021556,1733211021573,1733211021591,1733211021606,1733211021623,1733211021639,1733211021656,1733211021673,1733211021689,1733211021706,1733211021723,1733211021739,1733211021758,1733211021773,1733211021789,1733211021806,1733211021823,1733211021839,1733211021856,1733211021873,1733211021892,1733211021906,1733211021923,1733211021939,1733211021956,1733211021973,1733211021991,1733211022006,1733211022023,1733211022039,1733211022056,1733211022073,1733211022093,1733211022110,1733211022125,1733211022139,1733211022156,1733211022173,1733211022193,1733211022206,1733211022227,1733211022244,1733211022259,1733211022273,1733211022291,1733211022306,1733211022323,1733211022339,1733211022356,1733211022373,1733211022393,1733211022406,1733211022423,1733211022439,1733211022456,1733211022473,1733211022489,1733211022506,1733211022523,1733211022539,1733211022556,1733211022573,1733211022589,1733211022606,1733211022624,1733211022639,1733211022656,1733211022673,1733211022690,1733211022706,1733211022723,1733211022739,1733211022756,1733211022773,1733211022789,1733211022806,1733211022823,1733211022839,1733211022856,1733211022873,1733211022889,1733211022906,1733211022923,1733211022939,1733211022959,1733211022973,1733211022990,1733211023006,1733211023025,1733211023039,1733211023056,1733211023073,1733211023093,1733211023109,1733211023123,1733211023140,1733211023156,1733211023173,1733211023193,1733211023206,1733211023223,1733211023240,1733211023260,1733211023273,1733211023293,1733211023311,1733211023326,1733211023339,1733211023356,1733211023376,1733211023392,1733211023406,1733211023423,1733211023439,1733211023456,1733211023473,1733211023490,1733211023506,1733211023525,1733211023539,1733211023556,1733211023576,1733211023592,1733211023606,1733211023625,1733211023640,1733211023656,1733211023676,1733211023692,1733211023706,1733211023723,1733211023742,1733211023757,1733211023773,1733211023793,1733211023807,1733211023823,1733211023839,1733211023859,1733211023873,1733211023891,1733211023906,1733211023926,1733211023940,1733211023956,1733211023973,1733211023994,1733211024008,1733211024023,1733211024039,1733211024058,1733211024073,1733211024090,1733211024106,1733211024127,1733211024141,1733211024156,1733211024173,1733211024193,1733211024208,1733211024223,1733211024239,1733211024258,1733211024273,1733211024292,1733211024308,1733211024323,1733211024340,1733211024356,1733211024373,1733211024393,1733211024406,1733211024423,1733211024439,1733211024456,1733211024473,1733211024489,1733211024506,1733211024523,1733211024539,1733211024556,1733211024573,1733211024589,1733211024606,1733211024623,1733211024639,1733211024659,1733211024674,1733211024689,1733211024706,1733211024723,1733211024739,1733211024758,1733211024773,1733211024790,1733211024810,1733211024825,1733211024840,1733211024860,1733211024874,1733211024890,1733211024906,1733211024923,1733211024939,1733211024956,1733211024973,1733211024989,1733211025006,1733211025023,1733211025039,1733211025058,1733211025073,1733211025092,1733211025106,1733211025123,1733211025139,1733211025162,1733211025173,1733211025189,1733211025206]","[[866.4,647.5],[866.4,647.5],[864.3,639.1],[874.1,636.2],[859.1,637.5],[847.7,630],[856,640],[875.9,640.2],[881.7,616.2],[894.6,599.7],[883,604.8],[896.7,613.5],[905,624.4],[917.8,632.6],[946.4,643.8],[958.9,633.7],[972,620.3],[961.5,632.4],[953.6,655.3],[953.6,655.3],[934.2,670.1],[955.5,672],[944.5,677.1],[933.6,672.4],[914.9,674.3],[914.9,674.3],[900.1,673.5],[888.5,681.5],[878.5,677.5],[876.3,657.6],[862.2,635.7],[872.2,629.3],[852.9,622.7],[867,615.5],[864.3,615.5],[889.8,599.8],[903.6,598.4],[932.2,583.9],[958.6,584.7],[992.2,599.2],[1040,599.1],[1056.3,616.3],[1085,626.4],[1095.8,644.8],[1134.9,673.7],[1149.1,714.4],[1144.1,759.3],[1120,800.5],[1100.7,845.4],[1074.2,876.6],[1044.1,917.2],[1016.5,951.1],[1016.5,951.1],[1045.1,1003.4],[1043.7,1088.5],[1000.6,1132.9],[960.1,1140],[945.6,1159],[938.2,1194.5],[924.3,1218.8],[901.8,1225.1],[893.6,1224.1],[894.7,1197.6],[846.3,1167.6],[823.6,1092.3],[825.4,1041.1],[830.1,1035.2],[830.1,1035.2],[835.1,996.9],[847.4,955.1],[845.2,930.8],[851.6,924.5],[851.4,933.7],[851.4,933.7],[864,960.1],[868,967.6],[893.2,980.6],[940.3,995.8],[966.9,987.3],[1008.5,994.5],[1050,991.5],[1118.4,981.1],[1185.7,963.6],[1247.6,944.8],[1296.7,908.8],[1296.7,908.8],[1319,913.1],[1305.8,897.7],[1276.3,888.8],[1276.2,911.8],[1261.1,919.1],[1261.1,919.1],[1226.4,925],[1181.2,918.1],[1151.4,940.7],[1120.6,963.6],[1069.5,944.9],[1069.5,944.9],[1051.4,902.4],[1038,879.5],[1017,890.7],[981.6,885.7],[942.4,859.3],[937.3,841.9],[913.6,832.7],[913.6,832.7],[903.8,801],[903.8,801],[927,764.2],[927,764.2],[905.4,780.2],[905.4,780.2],[926.2,805.7],[926.2,805.7],[948.6,838.5],[978.6,837.2],[1029.7,862],[1064.8,852],[994.6,876.5],[984.8,892.9],[951.8,914.2],[944.9,918],[971.3,915.1],[955.3,902.7],[965.4,861.5],[943,807.8],[897.3,734.6],[954.5,689.7],[1051.6,611.3],[1068.5,595],[1127.6,572.3],[1103.3,572.4],[1110.8,568],[1103.2,553.8],[1099,570.6],[1156.8,589.9],[1200,602.8],[1146.9,634.5],[1137.5,671.3],[1178.7,662.9],[1177.5,654.8],[1200.6,646.5],[1217.2,627.6],[1249.3,624.5],[1293.4,600.4],[1308,586.3],[1315.2,565.7],[1335.6,554.2],[1357.3,536.5],[1334.6,510],[1334.4,507.6],[1335.9,498.2],[1343.9,499.4],[1358.4,490.7],[1332.4,479.8],[1332.4,479.8],[1315.9,471.3],[1299.5,468.6],[1296.6,460.5],[1314.3,454.1],[1354.4,458.7],[1354.8,427.8],[1353.9,411.4],[1353.9,411.4],[1353,395],[1348.8,388],[1342.3,387.9],[1334.3,386.5],[1340.8,386.1],[1333.8,391.1],[1305.1,409.6],[1286,419.1],[1262.2,442.8],[1228.6,463.1],[1192.1,466.5],[1167.2,475.8],[1168.7,496.7],[1121.3,527.1],[1083.5,557],[1086.8,560.3],[1086.4,548.8],[1035.1,557.3],[1042.8,561.5],[1030.1,574.3],[1052.1,577],[1045.2,586],[1005.5,595.5],[1005.5,595.5],[1041.6,578.5],[1071.3,558.4],[1029.4,582.5],[983.3,630.3],[1029.8,622.5],[1029.8,622.5],[1035,615.4],[1068.2,600.2],[1028,592.4],[1007.5,604.1],[1031.7,596.3],[1031.7,596.3],[1034.1,612.2],[1040.8,621.2],[1074.3,608.1],[1082.5,600.4],[1093.3,592.3],[1093.3,592.3],[1087.6,612.3],[1110.8,592.5],[1175.6,592.3],[1234,566.2],[1255.3,552.9],[1255.3,552.9],[1263.5,531.8],[1281.9,505.3],[1313,483.9],[1385.4,425.1],[1404.1,405.6],[1404.1,405.6],[1438.7,360.1],[1426.2,369.9],[1431.1,380.5],[1430.9,367.6],[1420.4,354.6],[1400.2,349.3],[1413.6,354],[1413.6,354],[1401.2,336.4],[1390.5,331.2],[1390.5,331.2],[1389.2,322.7],[1389.2,322.7]]","[0,0.3527331528]","[0.3527331528,0.3527331528]","[-0.3527331528,-0.3527331528]","[-0.3527331528,0]","[0,-0.3527331528]","[0.3527331528,-0.3527331528]","[0,0]","[0.3527331528,0]",0,0,0,0,1,4,Tablet,11,5,13,9
,,,,,,,,,,,,,,,,,,,,13,001,2024-12-03_15h29.34.976,Attention_exp_legacy,2023.1.0,Win32,60.24096386,,,,,,,,,,[0.35520833333333335],[0.32407407407407407],[1],[0],[0],[4.298100000000559],"[""Option2_label""]",Option2_label,2,5.3162,"[[0.29583333333333334,0.32592592592592595],[0.29583333333333334,0.32592592592592595],[0.29583333333333334,0.32592592592592595],[0.29583333333333334,0.32592592592592595],[0.29583333333333334,0.32592592592592595],[0.29583333333333334,0.32592592592592595],[0.29583333333333334,0.32592592592592595],[0.29583333333333334,0.32592592592592595],[0.29583333333333334,0.32592592592592595],[0.29583333333333334,0.32592592592592595],[0.29583333333333334,0.32592592592592595],[0.29583333333333334,0.32592592592592595],[0.29583333333333334,0.32592592592592595],[0.29583333333333334,0.32592592592592595],[0.29583333333333334,0.32592592592592595],[0.29583333333333334,0.32592592592592595],[0.29583333333333334,0.32592592592592595],[0.29583333333333334,0.32592592592592595],[0.29583333333333334,0.32592592592592595],[0.29583333333333334,0.32592592592592595],[0.29583333333333334,0.32592592592592595],[0.29583333333333334,0.32592592592592595],[0.29583333333333334,0.32592592592592595],[0.29583333333333334,0.32592592592592595],[0.29583333333333334,0.32592592592592595],[0.29583333333333334,0.32592592592592595],[0.29583333333333334,0.32592592592592595],[0.29583333333333334,0.32592592592592595],[0.29583333333333334,0.32592592592592595],[0.29583333333333334,0.32592592592592595],[0.29583333333333334,0.32592592592592595],[0.29583333333333334,0.32592592592592595],[0.29583333333333334,0.32592592592592595],[0.29583333333333334,0.32592592592592595],[0.29583333333333334,0.32592592592592595],[0.29583333333333334,0.32592592592592595],[0.29583333333333334,0.32592592592592595],[0.29583333333333334,0.32592592592592595],[0.29583333333333334,0.32592592592592595],[0.29583333333333334,0.32592592592592595],[0.29583333333333334,0.32592592592592595],[0.29583333333333334,0.32592592592592595],[0.29583333333333334,0.32592592592592595],[0.29583333333333334,0.32592592592592595],[0.29583333333333334,0.32592592592592595],[0.29583333333333334,0.32592592592592595],[0.29583333333333334,0.32592592592592595],[0.29583333333333334,0.32592592592592595],[0.29583333333333334,0.32592592592592595],[0.29583333333333334,0.32592592592592595],[0.29583333333333334,0.32592592592592595],[0.29583333333333334,0.32592592592592595],[0.29583333333333334,0.32592592592592595],[0.29583333333333334,0.32592592592592595],[0.29583333333333334,0.32592592592592595],[0.29583333333333334,0.32592592592592595],[0.29583333333333334,0.32592592592592595],[0.29583333333333334,0.32592592592592595],[0.29583333333333334,0.32592592592592595],[0.29583333333333334,0.32592592592592595],[0.29583333333333334,0.32592592592592595],[0.29583333333333334,0.32592592592592595],[0.29583333333333334,0.32592592592592595],[0.29583333333333334,0.32592592592592595],[0.29583333333333334,0.32592592592592595],[0.29583333333333334,0.32592592592592595],[0.29583333333333334,0.32592592592592595],[0.29583333333333334,0.32592592592592595],[0.29583333333333334,0.32592592592592595],[0.29583333333333334,0.32592592592592595],[0.29583333333333334,0.32592592592592595],[0.29583333333333334,0.32592592592592595],[0.29583333333333334,0.32592592592592595],[0.29583333333333334,0.32592592592592595],[0.29583333333333334,0.32592592592592595],[0.29583333333333334,0.32592592592592595],[0.29583333333333334,0.32592592592592595],[0.29583333333333334,0.32592592592592595],[0.29583333333333334,0.32592592592592595],[0.29583333333333334,0.32592592592592595],[0.29583333333333334,0.32592592592592595],[0.29583333333333334,0.32592592592592595],[0.29583333333333334,0.32592592592592595],[0.29583333333333334,0.32592592592592595],[0.29583333333333334,0.32592592592592595],[0.29583333333333334,0.32592592592592595],[0.29583333333333334,0.32592592592592595],[0.29583333333333334,0.32592592592592595],[0.29583333333333334,0.32592592592592595],[0.29583333333333334,0.32592592592592595],[0.29583333333333334,0.32592592592592595],[0.29583333333333334,0.32592592592592595],[0.29583333333333334,0.32592592592592595],[0.29583333333333334,0.32592592592592595],[0.29583333333333334,0.32592592592592595],[0.29583333333333334,0.32592592592592595],[0.29583333333333334,0.32592592592592595],[0.29583333333333334,0.32592592592592595],[0.29583333333333334,0.32592592592592595],[0.29583333333333334,0.32592592592592595],[0.29583333333333334,0.32592592592592595],[0.29583333333333334,0.32592592592592595],[0.29583333333333334,0.32592592592592595],[0.29583333333333334,0.32592592592592595],[0.29583333333333334,0.32592592592592595],[0.29583333333333334,0.32592592592592595],[0.29583333333333334,0.32592592592592595],[0.29583333333333334,0.32592592592592595],[0.29583333333333334,0.32592592592592595],[0.29583333333333334,0.32592592592592595],[0.29583333333333334,0.32592592592592595],[0.29583333333333334,0.32592592592592595],[0.29583333333333334,0.32592592592592595],[0.29583333333333334,0.32592592592592595],[0.29583333333333334,0.32592592592592595],[0.29583333333333334,0.32592592592592595],[0.29583333333333334,0.32592592592592595],[0.2947916666666667,0.32592592592592595],[0.29375,0.32592592592592595],[0.2916666666666667,0.32407407407407407],[0.2875,0.32222222222222224],[0.2864583333333333,0.32222222222222224],[0.2833333333333333,0.32222222222222224],[0.2833333333333333,0.32222222222222224],[0.28125,0.32222222222222224],[0.28125,0.32222222222222224],[0.28125,0.32222222222222224],[0.28125,0.32222222222222224],[0.28125,0.32222222222222224],[0.28125,0.32222222222222224],[0.28125,0.32222222222222224],[0.28125,0.32222222222222224],[0.28125,0.32222222222222224],[0.28125,0.32222222222222224],[0.28125,0.32222222222222224],[0.28125,0.32222222222222224],[0.28125,0.32222222222222224],[0.28125,0.32222222222222224],[0.28125,0.32222222222222224],[0.28125,0.32222222222222224],[0.28125,0.32222222222222224],[0.28125,0.32222222222222224],[0.28125,0.32222222222222224],[0.28125,0.32222222222222224],[0.28125,0.32222222222222224],[0.28125,0.32222222222222224],[0.28125,0.32222222222222224],[0.28125,0.32222222222222224],[0.28125,0.32222222222222224],[0.28125,0.32222222222222224],[0.28125,0.32222222222222224],[0.28125,0.32222222222222224],[0.28125,0.32222222222222224],[0.28125,0.32222222222222224],[0.28125,0.32222222222222224],[0.28125,0.32222222222222224],[0.28125,0.32222222222222224],[0.28125,0.32222222222222224],[0.28125,0.32222222222222224],[0.28125,0.32222222222222224],[0.28020833333333334,0.32037037037037036],[0.278125,0.31851851851851853],[0.271875,0.3148148148148148],[0.265625,0.3111111111111111],[0.25729166666666664,0.30925925925925923],[0.23854166666666668,0.3037037037037037],[0.22708333333333333,0.3037037037037037],[0.21770833333333334,0.30185185185185187],[0.19895833333333332,0.30185185185185187],[0.1875,0.30185185185185187],[0.17604166666666668,0.30185185185185187],[0.16770833333333332,0.30185185185185187],[0.16041666666666668,0.30185185185185187],[0.14791666666666667,0.30185185185185187],[0.13645833333333332,0.30185185185185187],[0.12604166666666666,0.30185185185185187],[0.11875,0.30185185185185187],[0.11041666666666666,0.30185185185185187],[0.10416666666666667,0.30185185185185187],[0.09583333333333334,0.30185185185185187],[0.0875,0.30185185185185187],[0.08333333333333333,0.30185185185185187],[0.08020833333333334,0.30185185185185187],[0.07708333333333334,0.30185185185185187],[0.07395833333333333,0.30185185185185187],[0.07291666666666667,0.30185185185185187],[0.071875,0.30185185185185187],[0.07083333333333333,0.30185185185185187],[0.06979166666666667,0.30185185185185187],[0.06979166666666667,0.30185185185185187],[0.06770833333333333,0.30185185185185187],[0.06458333333333334,0.30185185185185187],[0.06041666666666667,0.30185185185185187],[0.057291666666666664,0.30185185185185187],[0.05520833333333333,0.3037037037037037],[0.053125,0.3055555555555556],[0.05,0.3055555555555556],[0.05,0.3074074074074074],[0.04791666666666667,0.30925925925925923],[0.046875,0.30925925925925923],[0.04479166666666667,0.30925925925925923],[0.04479166666666667,0.30925925925925923],[0.04375,0.30925925925925923],[0.040625,0.31296296296296294],[0.03958333333333333,0.31296296296296294],[0.0375,0.3148148148148148],[0.0375,0.3148148148148148],[0.036458333333333336,0.3148148148148148],[0.036458333333333336,0.3148148148148148],[0.036458333333333336,0.3148148148148148],[0.035416666666666666,0.3148148148148148],[0.035416666666666666,0.3148148148148148],[0.035416666666666666,0.3148148148148148],[0.035416666666666666,0.3148148148148148],[0.035416666666666666,0.31666666666666665],[0.035416666666666666,0.31666666666666665],[0.035416666666666666,0.31666666666666665],[0.035416666666666666,0.31666666666666665],[0.035416666666666666,0.31666666666666665],[0.035416666666666666,0.31666666666666665],[0.035416666666666666,0.31666666666666665],[0.035416666666666666,0.31666666666666665],[0.035416666666666666,0.31666666666666665],[0.035416666666666666,0.31666666666666665],[0.035416666666666666,0.31666666666666665],[0.035416666666666666,0.31666666666666665],[0.035416666666666666,0.31666666666666665],[0.035416666666666666,0.31666666666666665],[0.042708333333333334,0.32037037037037036],[0.059375,0.32407407407407407],[0.090625,0.32407407407407407],[0.14479166666666668,0.32407407407407407],[0.221875,0.32407407407407407],[0.2833333333333333,0.32407407407407407],[0.32083333333333336,0.32407407407407407],[0.34270833333333334,0.32407407407407407],[0.35208333333333336,0.32407407407407407],[0.35520833333333335,0.32407407407407407],[0.35520833333333335,0.32407407407407407],[0.35520833333333335,0.32407407407407407],[0.35520833333333335,0.32407407407407407],[0.35520833333333335,0.32407407407407407],[0.35520833333333335,0.32407407407407407],[0.35520833333333335,0.32407407407407407],[0.35520833333333335,0.32407407407407407],[0.35520833333333335,0.32407407407407407],[0.35520833333333335,0.32407407407407407],[0.35520833333333335,0.32407407407407407],[0.35520833333333335,0.32407407407407407],[0.35520833333333335,0.32407407407407407],[0.35520833333333335,0.32407407407407407],[0.35520833333333335,0.32407407407407407],[0.35520833333333335,0.32407407407407407],[0.35520833333333335,0.32407407407407407],[0.35520833333333335,0.32407407407407407],[0.35520833333333335,0.32407407407407407],[0.35520833333333335,0.32407407407407407],[0.35520833333333335,0.32407407407407407],[0.35520833333333335,0.32407407407407407],[0.35520833333333335,0.32407407407407407],[0.35520833333333335,0.32407407407407407],[0.35520833333333335,0.32407407407407407],[0.35520833333333335,0.32407407407407407],[0.35520833333333335,0.32407407407407407],[0.35520833333333335,0.32407407407407407],[0.35520833333333335,0.32407407407407407],[0.35520833333333335,0.32407407407407407],[0.35520833333333335,0.32407407407407407],[0.35520833333333335,0.32407407407407407],[0.35520833333333335,0.32407407407407407],[0.35520833333333335,0.32407407407407407],[0.35520833333333335,0.32407407407407407],[0.35520833333333335,0.32407407407407407],[0.35520833333333335,0.32407407407407407],[0.35520833333333335,0.32407407407407407],[0.35520833333333335,0.32407407407407407],[0.35520833333333335,0.32407407407407407],[0.35520833333333335,0.32407407407407407],[0.35520833333333335,0.32407407407407407],[0.35520833333333335,0.32407407407407407],[0.35520833333333335,0.32407407407407407],[0.35520833333333335,0.32407407407407407],[0.35520833333333335,0.32407407407407407],[0.35520833333333335,0.32407407407407407],[0.35520833333333335,0.32407407407407407],[0.35520833333333335,0.32407407407407407],[0.35520833333333335,0.32407407407407407],[0.35520833333333335,0.32407407407407407],[0.35520833333333335,0.32407407407407407],[0.35520833333333335,0.32407407407407407],[0.35520833333333335,0.32407407407407407],[0.35520833333333335,0.32407407407407407],[0.35520833333333335,0.32407407407407407],[0.35520833333333335,0.32407407407407407],[0.35520833333333335,0.32407407407407407],[0.35520833333333335,0.32407407407407407],[0.35520833333333335,0.32407407407407407],[0.35520833333333335,0.32407407407407407],[0.35520833333333335,0.32407407407407407],[0.35520833333333335,0.32407407407407407],[0.35520833333333335,0.32407407407407407],[0.35520833333333335,0.32407407407407407],[0.35520833333333335,0.32407407407407407],[0.35520833333333335,0.32407407407407407],[0.35520833333333335,0.32407407407407407],[0.35520833333333335,0.32407407407407407],[0.35520833333333335,0.32407407407407407],[0.35520833333333335,0.32407407407407407],[0.35520833333333335,0.32407407407407407],[0.35520833333333335,0.32407407407407407],[0.35520833333333335,0.32407407407407407],[0.35520833333333335,0.32407407407407407],[0.35520833333333335,0.32407407407407407],[0.35520833333333335,0.32407407407407407],[0.35520833333333335,0.32407407407407407],[0.35520833333333335,0.32407407407407407],[0.35520833333333335,0.32407407407407407],[0.35520833333333335,0.32407407407407407],[0.35520833333333335,0.32407407407407407],[0.35520833333333335,0.32407407407407407]]","[[0.20239583333333327,0.35351851851851845],[0.20968749999999994,0.32888888888888895],[0.20833333333333334,0.29314814814814805],[0.20760416666666662,0.30944444444444447],[0.18156249999999996,0.31574074074074077],[0.15552083333333327,0.322037037037037],[0.17520833333333338,0.30629629629629623],[0.19093749999999995,0.31962962962962965],[0.1935416666666666,0.3477777777777777],[0.21322916666666672,0.35351851851851845],[0.21322916666666672,0.35351851851851845],[0.2265625,0.34333333333333327],[0.23322916666666677,0.38000000000000006],[0.24854166666666658,0.42777777777777776],[0.26375000000000004,0.39444444444444443],[0.29177083333333326,0.3550000000000001],[0.32708333333333334,0.3292592592592592],[0.31572916666666656,0.3170370370370371],[0.31010416666666674,0.3344444444444445],[0.3189583333333334,0.31203703703703706],[0.32781250000000006,0.28962962962962957],[0.32999999999999996,0.25759259259259265],[0.33718750000000003,0.2131481481481482],[0.3423958333333334,0.18462962962962973],[0.34708333333333335,0.18518518518518517],[0.3611458333333334,0.20018518518518522],[0.3679166666666667,0.2014814814814814],[0.36604166666666677,0.18074074074074079],[0.36604166666666677,0.18074074074074079],[0.3618750000000001,0.14148148148148143],[0.33406250000000004,0.12629629629629638],[0.30281250000000004,0.11037037037037041],[0.28104166666666663,0.13259259259259262],[0.26593749999999994,0.14333333333333328],[0.2539583333333333,0.12611111111111115],[0.24114583333333334,0.11574074074074074],[0.2125,0.09092592592592597],[0.18385416666666668,0.06611111111111119],[0.18322916666666675,0.05759259259259263],[0.1834374999999999,0.07296296296296292],[0.19479166666666667,0.05851851851851856],[0.18947916666666675,0.06648148148148143],[0.1756249999999999,0.05259259259259255],[0.1756249999999999,0.03740740740740749],[0.1884375000000001,0.01796296296296305],[0.19489583333333324,0.020370370370370372],[0.2078125,0.022777777777777692],[0.22374999999999995,0.011111111111111112],[0.2163541666666667,0.0022222222222223064],[0.21291666666666675,0.016111111111111194],[0.2241666666666667,0.048333333333333374],[0.2555208333333333,0.0588888888888888],[0.28187499999999993,0.06574074074074074],[0.2877083333333334,0.08537037037037042],[0.2877083333333334,0.08537037037037042],[0.2671875,0.10407407407407415],[0.2681250000000001,0.11351851851851844],[0.2681250000000001,0.11351851851851844],[0.2690624999999999,0.12296296296296293],[0.2690624999999999,0.12296296296296293],[0.26624999999999993,0.14518518518518514],[0.26624999999999993,0.14518518518518514],[0.2804166666666667,0.18092592592592602],[0.2804166666666667,0.18092592592592602],[0.29177083333333326,0.16166666666666657],[0.29177083333333326,0.16166666666666657],[0.26447916666666677,0.15777777777777785],[0.2578125,0.14370370370370375],[0.22531249999999994,0.14462962962962966],[0.23739583333333342,0.13148148148148148],[0.2618750000000001,0.13555555555555565],[0.2816666666666668,0.1411111111111112],[0.30145833333333344,0.14666666666666675],[0.30364583333333334,0.1301851851851851],[0.2998958333333334,0.12314814814814815],[0.2964583333333332,0.14296296296296304],[0.33010416666666675,0.11592592592592597],[0.3402083333333332,0.11796296296296305],[0.3898958333333333,0.09833333333333337],[0.3950000000000001,0.1014814814814814],[0.4001041666666666,0.09592592592592585],[0.39562499999999995,0.06944444444444445],[0.3818749999999999,0.0625925925925925],[0.37739583333333326,0.06944444444444445],[0.3970833333333334,0.07629629629629638],[0.41677083333333326,0.08314814814814811],[0.4201041666666666,0.08592592592592588],[0.42635416666666665,0.0698148148148149],[0.42385416666666675,0.06407407407407412],[0.42000000000000004,0.038703703703703664],[0.41437499999999994,0.013888888888888888],[0.4092708333333334,0.014259259259259343],[0.41343750000000007,-0.005000000000000084],[0.41729166666666656,-0.0448148148148149],[0.41729166666666656,-0.0448148148148149],[0.40125000000000005,-0.08555555555555554],[0.39989583333333345,-0.14592592592592596],[0.39520833333333344,-0.20388888888888893],[0.4001041666666666,-0.23592592592592587],[0.39697916666666655,-0.24203703703703702],[0.3790625000000001,-0.2627777777777777],[0.3629166666666668,-0.2753703703703704],[0.3498958333333334,-0.30092592592592593],[0.3368750000000001,-0.3264814814814815],[0.3466666666666666,-0.36203703703703705],[0.34968750000000004,-0.41888888888888887],[0.3256249999999999,-0.39888888888888885],[0.32229166666666675,-0.4212962962962963],[0.28156249999999994,-0.39240740740740737],[0.24885416666666677,-0.3894444444444445],[0.27072916666666674,-0.40259259259259256],[0.28708333333333325,-0.39148148148148143],[0.29739583333333336,-0.40185185185185185],[0.2945833333333333,-0.30907407407407406],[0.2633333333333333,-0.19018518518518515],[0.23635416666666675,0.04000000000000004],[0.2267708333333334,0.1816666666666667],[0.18697916666666667,0.4294444444444444],[0.18697916666666667,0.4294444444444444],[0.20864583333333328,0.40481481481481485],[0.2040625000000001,0.37166666666666676],[0.15947916666666656,0.46833333333333327],[0.11979166666666667,0.5598148148148148],[0.0865624999999999,0.5800000000000001],[0.06927083333333334,0.48296296296296287],[0.06895833333333339,0.402962962962963],[0.07947916666666661,0.23944444444444435],[0.08499999999999991,0.10722222222222218],[0.0896874999999999,-0.06574074074074074],[0.06072916666666662,-0.04351851851851852],[0.06072916666666662,-0.04351851851851852],[0.05791666666666669,-0.03925925925925934],[0.04666666666666662,-0.10203703703703708],[0.03604166666666669,-0.1838888888888889],[0.02781250000000005,-0.1787037037037037],[0.016770833333333356,-0.1594444444444445],[0.016770833333333356,-0.1594444444444445],[0.0037500000000000237,-0.14314814814814816],[-0.025833333333333285,-0.1411111111111111],[-0.033645833333333285,-0.13203703703703706],[-0.026041666666666668,-0.1257407407407407],[-0.016875000000000046,-0.15129629629629626],[-0.0026041666666666665,-0.13944444444444445],[0.026250000000000048,-0.15648148148148147],[0.05510416666666664,-0.1735185185185185],[0.05458333333333331,-0.19277777777777783],[0.06791666666666671,-0.2],[0.07937500000000004,-0.20925925925925926],[0.10979166666666676,-0.2192592592592592],[0.11843750000000004,-0.23629629629629634],[0.11354166666666667,-0.2594444444444445],[0.1203125,-0.26296296296296295],[0.12333333333333343,-0.26888888888888884],[0.12645833333333342,-0.262037037037037],[0.11885416666666657,-0.2074074074074074],[0.12687499999999996,-0.18351851851851855],[0.1446875000000001,-0.2390740740740741],[0.16437499999999997,-0.29259259259259257],[0.18395833333333325,-0.3081481481481481],[0.22541666666666677,-0.32222222222222224],[0.22541666666666677,-0.32222222222222224],[0.25031249999999994,-0.3272222222222222],[0.28791666666666677,-0.2942592592592592],[0.29791666666666666,-0.2537037037037037],[0.30322916666666655,-0.21814814814814817],[0.3064583333333334,-0.2874074074074074],[0.31697916666666665,-0.3301851851851852],[0.3012500000000001,-0.2851851851851852],[0.28843750000000007,-0.23703703703703705],[0.2663541666666667,-0.24518518518518514],[0.2482291666666666,-0.23425925925925925],[0.2556250000000001,-0.2235185185185185],[0.25031249999999994,-0.23185185185185184],[0.23875000000000005,-0.27166666666666667],[0.23875000000000005,-0.27166666666666667],[0.24885416666666677,-0.29685185185185187],[0.24885416666666677,-0.29685185185185187],[0.2375,-0.2518518518518518],[0.2375,-0.2518518518518518],[0.22645833333333343,-0.21629629629629632],[0.22645833333333343,-0.21629629629629632],[0.2321875000000001,-0.20537037037037034],[0.2321875000000001,-0.20537037037037034],[0.23395833333333324,-0.1661111111111111],[0.23395833333333324,-0.1661111111111111],[0.21802083333333327,-0.13870370370370366],[0.17072916666666677,-0.1383333333333333],[0.1258333333333333,-0.1316666666666667],[0.06770833333333333,-0.1316666666666667],[0.050312499999999954,-0.1227777777777778],[0.050312499999999954,-0.1227777777777778],[-0.002499999999999976,-0.14166666666666666],[-0.02010416666666662,-0.1235185185185185],[-0.03343750000000002,-0.09814814814814815],[-0.0609375,-0.06851851851851852],[-0.08572916666666662,-0.12925925925925927],[-0.052083333333333336,-0.15796296296296297],[-0.012916666666666642,-0.1801851851851852],[0.057291666666666664,-0.2235185185185185],[0.08145833333333338,-0.22148148148148153],[0.08875000000000005,-0.22333333333333338],[0.10979166666666676,-0.21203703703703702],[0.10979166666666676,-0.21203703703703702],[0.09552083333333337,-0.14814814814814814],[0.10906250000000005,0.029814814814814856],[0.11697916666666662,0.1868518518518518],[0.07583333333333328,0.23722222222222225],[-0.005104166666666643,0.28833333333333344],[-0.0860416666666667,0.3394444444444444],[-0.13291666666666668,0.4177777777777778],[-0.15291666666666662,0.42740740740740735],[-0.16291666666666665,0.5196296296296297],[-0.1610416666666667,0.5827777777777778],[-0.13239583333333335,0.49240740740740735],[-0.13239583333333335,0.49240740740740735],[-0.1328125,0.2692592592592592],[-0.1328125,0.2692592592592592],[-0.1310416666666666,0.07574074074074069],[-0.05614583333333331,0.018333333333333292],[0.026041666666666668,-0.046481481481481526],[0.08250000000000005,-0.040370370370370286],[0.07989583333333337,-0.09296296296296294],[0.08572916666666662,-0.10925925925925926],[0.09791666666666667,-0.1940740740740741],[0.1078125,-0.2698148148148148],[0.12531249999999997,-0.2948148148148148],[0.15552083333333327,-0.3],[0.18916666666666657,-0.3138888888888889],[0.18916666666666657,-0.3138888888888889],[0.19135416666666671,-0.29388888888888887],[0.16531250000000006,-0.2511111111111112],[0.1650000000000001,-0.27925925925925926],[0.1650000000000001,-0.27925925925925926],[0.1681250000000001,-0.27925925925925926],[0.20020833333333338,-0.3059259259259259],[0.2287499999999999,-0.3005555555555556],[0.24770833333333328,-0.27518518518518525],[0.2578125,-0.2616666666666667],[0.25187499999999996,-0.247037037037037],[0.19604166666666673,-0.2638888888888889],[0.14593749999999991,-0.2851851851851852],[0.16854166666666662,-0.3140740740740741],[0.16395833333333343,-0.36314814814814816],[0.17239583333333333,-0.3611111111111111],[0.17322916666666663,-0.3557407407407408],[0.17000000000000004,-0.3861111111111111],[0.11437499999999995,-0.37962962962962965],[0.06760416666666676,-0.36129629629629634],[0.03260416666666662,-0.3479629629629629],[0.04750000000000002,-0.3031481481481481],[0.08468749999999996,-0.2874074074074074],[0.06979166666666667,-0.2822222222222222],[0.103125,-0.27981481481481485],[0.07635416666666663,-0.28296296296296297],[0.05770833333333331,-0.2916666666666667],[0.03125,-0.2933333333333333],[0.057187499999999974,-0.33185185185185184],[0.10343749999999995,-0.3320370370370371],[0.13791666666666677,-0.3272222222222222],[0.12197916666666657,-0.3520370370370371],[0.14375,-0.365925925925926],[0.12364583333333339,-0.3562962962962963],[0.08385416666666666,-0.34370370370370373],[0.08802083333333334,-0.35111111111111115],[0.08729166666666661,-0.3207407407407407],[0.09354166666666662,-0.34296296296296297],[0.12604166666666666,-0.34574074074074074],[0.12541666666666676,-0.40703703703703703],[0.1622916666666666,-0.47370370370370374],[0.23333333333333334,-0.5231481481481481],[0.2613541666666668,-0.5098148148148148],[0.29656250000000006,-0.53],[0.32999999999999996,-0.552962962962963],[0.35927083333333343,-0.5861111111111111],[0.35927083333333343,-0.5861111111111111],[0.3642708333333334,-0.6168518518518519],[0.36218750000000005,-0.582037037037037],[0.33781249999999996,-0.5751851851851852],[0.3223958333333333,-0.5662962962962963],[0.2694791666666667,-0.5520370370370371],[0.2328125,-0.5253703703703704],[0.1703125,-0.48203703703703704],[0.1428124999999999,-0.42592592592592593],[0.1544791666666666,-0.39518518518518514],[0.15291666666666662,-0.3501851851851852],[0.14791666666666667,-0.32981481481481484],[0.1508333333333333,-0.32944444444444443],[0.12666666666666657,-0.3198148148148148],[0.10635416666666657,-0.29203703703703704],[0.12979166666666658,-0.21444444444444447],[0.134375,-0.15870370370370368],[0.14677083333333343,-0.1685185185185185],[0.16614583333333333,-0.16129629629629633],[0.14677083333333343,-0.10592592592592591],[0.14677083333333343,-0.10592592592592591],[0.17322916666666663,-0.052962962962963],[0.21145833333333333,-0.016851851851851896],[0.21145833333333333,-0.016851851851851896],[0.23052083333333329,0.012777777777777735],[0.23052083333333329,0.012777777777777735],[0.2730208333333332,0.08759259259259251],[0.2730208333333332,0.08759259259259251],[0.3155208333333334,0.1596296296296297],[0.3167708333333332,0.18481481481481474],[0.3167708333333332,0.18481481481481474],[0.3246875000000001,0.2727777777777777],[0.32479166666666665,0.362962962962963],[0.2855208333333332,0.47481481481481475],[0.24874999999999994,0.5894444444444443],[0.17760416666666667,0.6638888888888889],[0.10854166666666672,0.7555555555555555],[0.04885416666666664,0.8759259259259259],[-0.0034374999999999527,0.9555555555555556],[-0.05593750000000005,1.060925925925926],[-0.1109375,1.1633333333333333],[-0.1544791666666666,1.1888888888888889],[-0.17468750000000005,1.2594444444444444],[-0.18999999999999997,1.3624074074074075],[-0.190625,1.3816666666666666],[-0.18947916666666664,1.4292592592592592]]","[[0.20239583333333327,0.35351851851851845,0.00020000000019138042],[0.20968749999999994,0.32888888888888895,0.01680000000074955],[0.20833333333333334,0.29314814814814805,0.03300000000000125],[0.20760416666666662,0.30944444444444447,0.05310000000056192],[0.18156249999999996,0.31574074074074077,0.0687000000001845],[0.15552083333333327,0.322037037037037,0.08290000000037168],[0.17520833333333338,0.30629629629629623,0.09970000000019041],[0.19093749999999995,0.31962962962962965,0.11630000000074858],[0.1935416666666666,0.3477777777777777,0.13300000000000267],[0.21322916666666672,0.35351851851851845,0.14960000000056084],[0.21322916666666672,0.35351851851851845,0.16640000000037247],[0.2265625,0.34333333333333327,0.1829000000003731],[0.23322916666666677,0.38000000000000006,0.19980000000074938],[0.24854166666666658,0.42777777777777776,0.21630000000075],[0.26375000000000004,0.39444444444444443,0.23310000000056164],[0.29177083333333326,0.3550000000000001,0.249700000000189],[0.32708333333333334,0.3292592592592592,0.2664000000003739],[0.31572916666666656,0.3170370370370371,0.2829000000003745],[0.31010416666666674,0.3344444444444445,0.2996000000005594],[0.3189583333333334,0.31203703703703706,0.3163000000007443],[0.32781250000000006,0.28962962962962957,0.3329999999999984],[0.32999999999999996,0.25759259259259265,0.3497000000001904],[0.33718750000000003,0.2131481481481482,0.3664000000003753],[0.3423958333333334,0.18462962962962973,0.38300000000000267],[0.34708333333333335,0.18518518518518517,0.39970000000018757],[0.3611458333333334,0.20018518518518522,0.41630000000074574],[0.3679166666666667,0.2014814814814814,0.43299999999999983],[0.36604166666666677,0.18074074074074079,0.44970000000018473],[0.36604166666666677,0.18074074074074079,0.46670000000018774],[0.3618750000000001,0.14148148148148143,0.4830000000000041],[0.33406250000000004,0.12629629629629638,0.49960000000056226],[0.30281250000000004,0.11037037037037041,0.5163000000007472],[0.28104166666666663,0.13259259259259262,0.5361000000005589],[0.26593749999999994,0.14333333333333328,0.5496000000005594],[0.2539583333333333,0.12611111111111115,0.569500000000005],[0.24114583333333334,0.11574074074074074,0.5831000000005631],[0.2125,0.09092592592592597,0.5996000000005637],[0.18385416666666668,0.06611111111111119,0.6163000000007486],[0.18322916666666675,0.05759259259259263,0.6330000000000027],[0.1834374999999999,0.07296296296296292,0.6497000000001876],[0.19479166666666667,0.05851851851851856,0.669600000000564],[0.18947916666666675,0.06648148148148143,0.6833000000007488],[0.1756249999999999,0.05259259259259255,0.699600000000558],[0.1756249999999999,0.03740740740740749,0.71630000000075],[0.1884375000000001,0.01796296296296305,0.7330000000000041],[0.19489583333333324,0.020370370370370372,0.749700000000189],[0.2078125,0.022777777777777692,0.7666000000005582],[0.22374999999999995,0.011111111111111112,0.7830000000000013],[0.2163541666666667,0.0022222222222223064,0.7996000000005594],[0.21291666666666675,0.016111111111111194,0.8198000000007468],[0.2241666666666667,0.048333333333333374,0.8338000000007497],[0.2555208333333333,0.0588888888888888,0.8499000000003747],[0.28187499999999993,0.06574074074074074,0.8694000000003754],[0.2877083333333334,0.08537037037037042,0.8856000000005579],[0.2877083333333334,0.08537037037037042,0.8997000000001876],[0.2671875,0.10407407407407415,0.9163000000007457],[0.2681250000000001,0.11351851851851844,0.9364000000003756],[0.2681250000000001,0.11351851851851844,0.949600000000558],[0.2690624999999999,0.12296296296296293,0.9664000000003767],[0.2690624999999999,0.12296296296296293,0.9829000000003774],[0.26624999999999993,0.14518518518518514,0.999700000000189],[0.26624999999999993,0.14518518518518514,1.0163000000007472],[0.2804166666666667,0.18092592592592602,1.0331000000005588],[0.2804166666666667,0.18092592592592602,1.0496000000005594],[0.29177083333333326,0.16166666666666657,1.0671000000005577],[0.29177083333333326,0.16166666666666657,1.0829999999999984],[0.26447916666666677,0.15777777777777785,1.0997000000001904],[0.2578125,0.14370370370370375,1.1163000000007486],[0.22531249999999994,0.14462962962962966,1.1330000000000027],[0.23739583333333342,0.13148148148148148,1.1496000000005608],[0.2618750000000001,0.13555555555555565,1.1693000000007459],[0.2816666666666668,0.1411111111111112,1.1829999999999998],[0.30145833333333344,0.14666666666666675,1.199600000000558],[0.30364583333333334,0.1301851851851851,1.21630000000075],[0.2998958333333334,0.12314814814814815,1.233000000000004],[0.2964583333333332,0.14296296296296304,1.2495000000000047],[0.33010416666666675,0.11592592592592597,1.2674000000003716],[0.3402083333333332,0.11796296296296305,1.2829000000003745],[0.3898958333333333,0.09833333333333337,1.2996000000005594],[0.3950000000000001,0.1014814814814814,1.3163000000007443],[0.4001041666666666,0.09592592592592585,1.3329000000003717],[0.39562499999999995,0.06944444444444445,1.3496000000005637],[0.3818749999999999,0.0625925925925925,1.3696000000005597],[0.37739583333333326,0.06944444444444445,1.382900000000376],[0.3970833333333334,0.07629629629629638,1.3996000000005608],[0.41677083333333326,0.08314814814814811,1.4163000000007457],[0.4201041666666666,0.08592592592592588,1.4329999999999998],[0.42635416666666665,0.0698148148148149,1.4495000000000005],[0.42385416666666675,0.06407407407407412,1.4713000000007455],[0.42000000000000004,0.038703703703703664,1.4858000000007436],[0.41437499999999994,0.013888888888888888,1.4996000000005623],[0.4092708333333334,0.014259259259259343,1.5162000000001896],[0.41343750000000007,-0.005000000000000084,1.5335000000000036],[0.41729166666666656,-0.0448148148148149,1.5496000000005594],[0.41729166666666656,-0.0448148148148149,1.5663000000007443],[0.40125000000000005,-0.08555555555555554,1.5829000000003717],[0.39989583333333345,-0.14592592592592596,1.6015000000000015],[0.39520833333333344,-0.20388888888888893,1.616200000000191],[0.4001041666666666,-0.23592592592592587,1.6330000000000027],[0.39697916666666655,-0.24203703703703702,1.6497000000001876],[0.3790625000000001,-0.2627777777777777,1.668700000000186],[0.3629166666666668,-0.2753703703703704,1.6832000000001912],[0.3498958333333334,-0.30092592592592593,1.699600000000558],[0.3368750000000001,-0.3264814814814815,1.71630000000075],[0.3466666666666666,-0.36203703703703705,1.733000000000004],[0.34968750000000004,-0.41888888888888887,1.7496000000005623],[0.3256249999999999,-0.39888888888888885,1.7684000000003763],[0.32229166666666675,-0.4212962962962963,1.7829000000003745],[0.28156249999999994,-0.39240740740740737,1.7996000000005594],[0.24885416666666677,-0.3894444444444445,1.8162000000001868],[0.27072916666666674,-0.40259259259259256,1.833100000000563],[0.28708333333333325,-0.39148148148148143,1.8496000000005637],[0.29739583333333336,-0.40185185185185185,1.8699000000003707],[0.2945833333333333,-0.30907407407407406,1.8840000000000003],[0.2633333333333333,-0.19018518518518515,1.9012000000001876],[0.23635416666666675,0.04000000000000004,1.9163000000007457],[0.2267708333333334,0.1816666666666667,1.9329999999999998],[0.18697916666666667,0.4294444444444444,1.9519999999999982],[0.18697916666666667,0.4294444444444444,1.9665000000000035],[0.20864583333333328,0.40481481481481485,1.983300000000746],[0.2040625000000001,0.37166666666666676,2.0029000000003734],[0.15947916666666656,0.46833333333333327,2.0177000000001897],[0.11979166666666667,0.5598148148148148,2.033100000000559],[0.0865624999999999,0.5800000000000001,2.0496000000005594],[0.06927083333333334,0.48296296296296287,2.0699000000003736],[0.06895833333333339,0.402962962962963,2.0844000000003717],[0.07947916666666661,0.23944444444444435,2.0996000000005637],[0.08499999999999991,0.10722222222222218,2.1163000000007486],[0.0896874999999999,-0.06574074074074074,2.1330000000000027],[0.06072916666666662,-0.04351851851851852,2.1495000000000033],[0.06072916666666662,-0.04351851851851852,2.1664000000003725],[0.05791666666666669,-0.03925925925925934,2.182900000000373],[0.04666666666666662,-0.10203703703703708,2.1997000000001847],[0.03604166666666669,-0.1838888888888889,2.2162000000001854],[0.02781250000000005,-0.1787037037037037,2.2329000000003774],[0.016770833333333356,-0.1594444444444445,2.2495000000000047],[0.016770833333333356,-0.1594444444444445,2.266400000000374],[0.0037500000000000237,-0.14314814814814816,2.2829000000003745],[-0.025833333333333285,-0.1411111111111111,2.2996000000005594],[-0.033645833333333285,-0.13203703703703706,2.3163000000007443],[-0.026041666666666668,-0.1257407407407407,2.3329999999999984],[-0.016875000000000046,-0.15129629629629626,2.3496000000005637],[-0.0026041666666666665,-0.13944444444444445,2.3697000000001864],[0.026250000000000048,-0.15648148148148147,2.384700000000187],[0.05510416666666664,-0.1735185185185185,2.3997000000001876],[0.05458333333333331,-0.19277777777777783,2.4163000000007457],[0.06791666666666671,-0.2,2.433],[0.07937500000000004,-0.20925925925925926,2.449600000000558],[0.10979166666666676,-0.2192592592592592,2.4713000000007455],[0.11843750000000004,-0.23629629629629634,2.4853000000007484],[0.11354166666666667,-0.2594444444444445,2.4996000000005623],[0.1203125,-0.26296296296296295,2.516300000000747],[0.12333333333333343,-0.26888888888888884,2.5329000000003745],[0.12645833333333342,-0.262037037037037,2.5496000000005594],[0.11885416666666657,-0.2074074074074074,2.568900000000376],[0.12687499999999996,-0.18351851851851855,2.5829000000003717],[0.1446875000000001,-0.2390740740740741,2.5999000000003747],[0.16437499999999997,-0.29259259259259257,2.6163000000007486],[0.18395833333333325,-0.3081481481481481,2.6330000000000027],[0.22541666666666677,-0.32222222222222224,2.649600000000561],[0.22541666666666677,-0.32222222222222224,2.6692000000001883],[0.25031249999999994,-0.3272222222222222,2.683200000000191],[0.28791666666666677,-0.2942592592592592,2.700499999999998],[0.29791666666666666,-0.2537037037037037,2.7164000000003767],[0.30322916666666655,-0.21814814814814817,2.7375000000000043],[0.3064583333333334,-0.2874074074074074,2.7520000000000024],[0.31697916666666665,-0.3301851851851852,2.7681000000005582],[0.3012500000000001,-0.2851851851851852,2.78330000000075],[0.28843750000000007,-0.23703703703703705,2.8039000000003753],[0.2663541666666667,-0.24518518518518514,2.8200000000000003],[0.2482291666666666,-0.23425925925925925,2.8355000000000032],[0.2556250000000001,-0.2235185185185185,2.8503000000007432],[0.25031249999999994,-0.23185185185185184,2.8700000000000045],[0.23875000000000005,-0.27166666666666667,2.8842000000001846],[0.23875000000000005,-0.27166666666666667,2.899800000000745],[0.24885416666666677,-0.29685185185185187,2.9164000000003725],[0.24885416666666677,-0.29685185185185187,2.9371000000005623],[0.2375,-0.2518518518518518,2.9498000000007494],[0.2375,-0.2518518518518518,2.9667000000001877],[0.22645833333333343,-0.21629629629629632,2.988200000000191],[0.22645833333333343,-0.21629629629629632,2.9999000000003733],[0.2321875000000001,-0.20537037037037034,3.0165000000000006],[0.2321875000000001,-0.20537037037037034,3.033100000000559],[0.23395833333333324,-0.1661111111111111,3.054900000000373],[0.23395833333333324,-0.1661111111111111,3.066700000000189],[0.21802083333333327,-0.13870370370370366,3.0829999999999984],[0.17072916666666677,-0.1383333333333333,3.102000000000004],[0.1258333333333333,-0.1316666666666667,3.1164000000003753],[0.06770833333333333,-0.1316666666666667,3.1346000000005603],[0.050312499999999954,-0.1227777777777778,3.149600000000561],[0.050312499999999954,-0.1227777777777778,3.1691000000005616],[-0.002499999999999976,-0.14166666666666666,3.1831000000005574],[-0.02010416666666662,-0.1235185185185185,3.2018000000007447],[-0.03343750000000002,-0.09814814814814815,3.2164000000003767],[-0.0609375,-0.06851851851851852,3.2353000000007484],[-0.08572916666666662,-0.12925925925925927,3.2502000000001914],[-0.052083333333333336,-0.15796296296296297,3.2692000000001897],[-0.012916666666666642,-0.1801851851851852,3.2830000000000013],[0.057291666666666664,-0.2235185185185185,3.303100000000562],[0.08145833333333338,-0.22148148148148153,3.318000000000005],[0.08875000000000005,-0.22333333333333338,3.33320000000019],[0.10979166666666676,-0.21203703703703702,3.349499999999999],[0.10979166666666676,-0.21203703703703702,3.3691000000005573],[0.09552083333333337,-0.14814814814814814,3.38310000000056],[0.10906250000000005,0.029814814814814856,3.399800000000745],[0.11697916666666662,0.1868518518518518,3.419300000000746],[0.07583333333333328,0.23722222222222225,3.4349000000003755],[-0.005104166666666643,0.28833333333333344,3.4525000000000006],[-0.0860416666666667,0.3394444444444444,3.4713000000007455],[-0.13291666666666668,0.4177777777777778,3.4859000000003775],[-0.15291666666666662,0.42740740740740735,3.5031000000005577],[-0.16291666666666665,0.5196296296296297,3.5174000000003716],[-0.1610416666666667,0.5827777777777778,3.5329000000003745],[-0.13239583333333335,0.49240740740740735,3.549500000000002],[-0.13239583333333335,0.49240740740740735,3.571600000000558],[-0.1328125,0.2692592592592592,3.5853000000007498],[-0.1328125,0.2692592592592592,3.606500000000004],[-0.1310416666666666,0.07574074074074069,3.6164000000003753],[-0.05614583333333331,0.018333333333333292,3.6330000000000027],[0.026041666666666668,-0.046481481481481526,3.649600000000561],[0.08250000000000005,-0.040370370370370286,3.6694000000003726],[0.07989583333333337,-0.09296296296296294,3.6831000000005574],[0.08572916666666662,-0.10925925925925926,3.699600000000558],[0.09791666666666667,-0.1940740740740741,3.7162000000001854],[0.1078125,-0.2698148148148148,3.733000000000004],[0.12531249999999997,-0.2948148148148148,3.7496000000005623],[0.15552083333333327,-0.3,3.7674000000003716],[0.18916666666666657,-0.3138888888888889,3.7829000000003745],[0.18916666666666657,-0.3138888888888889,3.8014000000003776],[0.19135416666666671,-0.29388888888888887,3.816400000000371],[0.16531250000000006,-0.2511111111111112,3.8336000000005583],[0.1650000000000001,-0.27925925925925926,3.8518000000007433],[0.1650000000000001,-0.27925925925925926,3.866500000000002],[0.1681250000000001,-0.27925925925925926,3.8830000000000027],[0.20020833333333338,-0.3059259259259259,3.901300000000745],[0.2287499999999999,-0.3005555555555556,3.9164000000003725],[0.24770833333333328,-0.27518518518518525,3.9331000000005574],[0.2578125,-0.2616666666666667,3.9497000000001847],[0.25187499999999996,-0.247037037037037,3.967000000000006],[0.19604166666666673,-0.2638888888888889,3.9829000000003774],[0.14593749999999991,-0.2851851851851852,3.9996000000005623],[0.16854166666666662,-0.3140740740740741,4.01620000000019],[0.16395833333333343,-0.36314814814814816,4.033000000000008],[0.17239583333333333,-0.3611111111111111,4.049600000000559],[0.17322916666666663,-0.3557407407407408,4.069300000000744],[0.17000000000000004,-0.3861111111111111,4.082900000000372],[0.11437499999999995,-0.37962962962962965,4.099600000000557],[0.06760416666666676,-0.36129629629629634,4.1163000000007415],[0.03260416666666662,-0.3479629629629629,4.132900000000369],[0.04750000000000002,-0.3031481481481481,4.149600000000554],[0.08468749999999996,-0.2874074074074074,4.1664000000003725],[0.06979166666666667,-0.2822222222222222,4.18290000000038],[0.103125,-0.27981481481481485,4.199700000000185],[0.07635416666666663,-0.28296296296296297,4.2162000000001925],[0.05770833333333331,-0.2916666666666667,4.232900000000377],[0.03125,-0.2933333333333333,4.249600000000562],[0.057187499999999974,-0.33185185185185184,4.269700000000192],[0.10343749999999995,-0.3320370370370371,4.283300000000743],[0.13791666666666677,-0.3272222222222222,4.299600000000559],[0.12197916666666657,-0.3520370370370371,4.316200000000187],[0.14375,-0.365925925925926,4.332900000000372],[0.12364583333333339,-0.3562962962962963,4.349499999999999],[0.08385416666666666,-0.34370370370370373,4.367100000000555],[0.08802083333333334,-0.35111111111111115,4.382900000000369],[0.08729166666666661,-0.3207407407407407,4.402100000000566],[0.09354166666666662,-0.34296296296296297,4.418300000000748],[0.12604166666666666,-0.34574074074074074,4.433300000000749],[0.12541666666666676,-0.40703703703703703,4.449600000000565],[0.1622916666666666,-0.47370370370370374,4.470000000000006],[0.23333333333333334,-0.5231481481481481,4.484500000000004],[0.2613541666666668,-0.5098148148148148,4.499800000000754],[0.29656250000000006,-0.53,4.51620000000019],[0.32999999999999996,-0.552962962962963,4.5329000000003745],[0.35927083333333343,-0.5861111111111111,4.549500000000002],[0.35927083333333343,-0.5861111111111111,4.566300000000744],[0.3642708333333334,-0.6168518518518519,4.582900000000372],[0.36218750000000005,-0.582037037037037,4.599600000000557],[0.33781249999999996,-0.5751851851851852,4.6163000000007415],[0.3223958333333333,-0.5662962962962963,4.632900000000369],[0.2694791666666667,-0.5520370370370371,4.649499999999996],[0.2328125,-0.5253703703703704,4.669500000000006],[0.1703125,-0.48203703703703704,4.682800000000746],[0.1428124999999999,-0.42592592592592593,4.699600000000565],[0.1544791666666666,-0.39518518518518514,4.7162000000001925],[0.15291666666666662,-0.3501851851851852,4.732900000000377],[0.14791666666666667,-0.32981481481481484,4.749500000000005],[0.1508333333333333,-0.32944444444444443,4.769500000000001],[0.12666666666666657,-0.3198148148148148,4.7829000000003745],[0.10635416666666657,-0.29203703703703704,4.799600000000559],[0.12979166666666658,-0.21444444444444447,4.816200000000187],[0.134375,-0.15870370370370368,4.832900000000372],[0.14677083333333343,-0.1685185185185185,4.849600000000557],[0.16614583333333333,-0.16129629629629633,4.8675],[0.14677083333333343,-0.10592592592592591,4.882900000000369],[0.14677083333333343,-0.10592592592592591,4.899600000000554],[0.17322916666666663,-0.052962962962963,4.916200000000181],[0.21145833333333333,-0.016851851851851896,4.9361000000005575],[0.21145833333333333,-0.016851851851851896,4.949600000000565],[0.23052083333333329,0.012777777777777735,4.96630000000075],[0.23052083333333329,0.012777777777777735,4.982900000000377],[0.2730208333333332,0.08759259259259251,4.999600000000562],[0.2730208333333332,0.08759259259259251,5.01620000000019],[0.3155208333333334,0.1596296296296297,5.0329000000003745],[0.3167708333333332,0.18481481481481474,5.049600000000559],[0.3167708333333332,0.18481481481481474,5.066300000000744],[0.3246875000000001,0.2727777777777777,5.082900000000372],[0.32479166666666665,0.362962962962963,5.099600000000557],[0.2855208333333332,0.47481481481481475,5.116200000000184],[0.24874999999999994,0.5894444444444443,5.133000000000003],[0.17760416666666667,0.6638888888888889,5.149600000000554],[0.10854166666666672,0.7555555555555555,5.166300000000753],[0.04885416666666664,0.8759259259259259,5.18290000000038],[-0.0034374999999999527,0.9555555555555556,5.199600000000565],[-0.05593750000000005,1.060925925925926,5.21630000000075],[-0.1109375,1.1633333333333333,5.232900000000377],[-0.1544791666666666,1.1888888888888889,5.249500000000005],[-0.17468750000000005,1.2594444444444444,5.268700000000187],[-0.18999999999999997,1.3624074074074075,5.2829000000003745],[-0.190625,1.3816666666666666,5.299600000000559],[-0.18947916666666664,1.4292592592592592,5.316200000000187]]","[0.00020000000019138042,0.01680000000074955,0.03300000000000125,0.05310000000056192,0.0687000000001845,0.08290000000037168,0.09970000000019041,0.11630000000074858,0.13300000000000267,0.14960000000056084,0.16640000000037247,0.1829000000003731,0.19980000000074938,0.21630000000075,0.23310000000056164,0.249700000000189,0.2664000000003739,0.2829000000003745,0.2996000000005594,0.3163000000007443,0.3329999999999984,0.3497000000001904,0.3664000000003753,0.38300000000000267,0.39970000000018757,0.41630000000074574,0.43299999999999983,0.44970000000018473,0.46670000000018774,0.4830000000000041,0.49960000000056226,0.5163000000007472,0.5361000000005589,0.5496000000005594,0.569500000000005,0.5831000000005631,0.5996000000005637,0.6163000000007486,0.6330000000000027,0.6497000000001876,0.669600000000564,0.6833000000007488,0.699600000000558,0.71630000000075,0.7330000000000041,0.749700000000189,0.7666000000005582,0.7830000000000013,0.7996000000005594,0.8198000000007468,0.8338000000007497,0.8499000000003747,0.8694000000003754,0.8856000000005579,0.8997000000001876,0.9163000000007457,0.9364000000003756,0.949600000000558,0.9664000000003767,0.9829000000003774,0.999700000000189,1.0163000000007472,1.0331000000005588,1.0496000000005594,1.0671000000005577,1.0829999999999984,1.0997000000001904,1.1163000000007486,1.1330000000000027,1.1496000000005608,1.1693000000007459,1.1829999999999998,1.199600000000558,1.21630000000075,1.233000000000004,1.2495000000000047,1.2674000000003716,1.2829000000003745,1.2996000000005594,1.3163000000007443,1.3329000000003717,1.3496000000005637,1.3696000000005597,1.382900000000376,1.3996000000005608,1.4163000000007457,1.4329999999999998,1.4495000000000005,1.4713000000007455,1.4858000000007436,1.4996000000005623,1.5162000000001896,1.5335000000000036,1.5496000000005594,1.5663000000007443,1.5829000000003717,1.6015000000000015,1.616200000000191,1.6330000000000027,1.6497000000001876,1.668700000000186,1.6832000000001912,1.699600000000558,1.71630000000075,1.733000000000004,1.7496000000005623,1.7684000000003763,1.7829000000003745,1.7996000000005594,1.8162000000001868,1.833100000000563,1.8496000000005637,1.8699000000003707,1.8840000000000003,1.9012000000001876,1.9163000000007457,1.9329999999999998,1.9519999999999982,1.9665000000000035,1.983300000000746,2.0029000000003734,2.0177000000001897,2.033100000000559,2.0496000000005594,2.0699000000003736,2.0844000000003717,2.0996000000005637,2.1163000000007486,2.1330000000000027,2.1495000000000033,2.1664000000003725,2.182900000000373,2.1997000000001847,2.2162000000001854,2.2329000000003774,2.2495000000000047,2.266400000000374,2.2829000000003745,2.2996000000005594,2.3163000000007443,2.3329999999999984,2.3496000000005637,2.3697000000001864,2.384700000000187,2.3997000000001876,2.4163000000007457,2.433,2.449600000000558,2.4713000000007455,2.4853000000007484,2.4996000000005623,2.516300000000747,2.5329000000003745,2.5496000000005594,2.568900000000376,2.5829000000003717,2.5999000000003747,2.6163000000007486,2.6330000000000027,2.649600000000561,2.6692000000001883,2.683200000000191,2.700499999999998,2.7164000000003767,2.7375000000000043,2.7520000000000024,2.7681000000005582,2.78330000000075,2.8039000000003753,2.8200000000000003,2.8355000000000032,2.8503000000007432,2.8700000000000045,2.8842000000001846,2.899800000000745,2.9164000000003725,2.9371000000005623,2.9498000000007494,2.9667000000001877,2.988200000000191,2.9999000000003733,3.0165000000000006,3.033100000000559,3.054900000000373,3.066700000000189,3.0829999999999984,3.102000000000004,3.1164000000003753,3.1346000000005603,3.149600000000561,3.1691000000005616,3.1831000000005574,3.2018000000007447,3.2164000000003767,3.2353000000007484,3.2502000000001914,3.2692000000001897,3.2830000000000013,3.303100000000562,3.318000000000005,3.33320000000019,3.349499999999999,3.3691000000005573,3.38310000000056,3.399800000000745,3.419300000000746,3.4349000000003755,3.4525000000000006,3.4713000000007455,3.4859000000003775,3.5031000000005577,3.5174000000003716,3.5329000000003745,3.549500000000002,3.571600000000558,3.5853000000007498,3.606500000000004,3.6164000000003753,3.6330000000000027,3.649600000000561,3.6694000000003726,3.6831000000005574,3.699600000000558,3.7162000000001854,3.733000000000004,3.7496000000005623,3.7674000000003716,3.7829000000003745,3.8014000000003776,3.816400000000371,3.8336000000005583,3.8518000000007433,3.866500000000002,3.8830000000000027,3.901300000000745,3.9164000000003725,3.9331000000005574,3.9497000000001847,3.967000000000006,3.9829000000003774,3.9996000000005623,4.01620000000019,4.033000000000008,4.049600000000559,4.069300000000744,4.082900000000372,4.099600000000557,4.1163000000007415,4.132900000000369,4.149600000000554,4.1664000000003725,4.18290000000038,4.199700000000185,4.2162000000001925,4.232900000000377,4.249600000000562,4.269700000000192,4.283300000000743,4.299600000000559,4.316200000000187,4.332900000000372,4.349499999999999,4.367100000000555,4.382900000000369,4.402100000000566,4.418300000000748,4.433300000000749,4.449600000000565,4.470000000000006,4.484500000000004,4.499800000000754,4.51620000000019,4.5329000000003745,4.549500000000002,4.566300000000744,4.582900000000372,4.5996000000