inst1_resp.keys,inst1_resp.rt,calibrationMouse.x,calibrationMouse.y,calibrationMouse.leftButton,calibrationMouse.midButton,calibrationMouse.rightButton,calibrationClick.x,calibrationClick.y,calibrationClick.leftButton,calibrationClick.midButton,calibrationClick.rightButton,calibrationClick.clicked_name,trialsc.thisRepN,trialsc.thisTrialN,trialsc.thisN,trialsc.thisIndex,trialsc.ran,calibration_x,calibration_y,participant,session,date,expName,psychopyVersion,OS,frameRate,ScreenRes_pixels,Camera_pixels,mouse_2.x,mouse_2.y,mouse_2.leftButton,mouse_2.midButton,mouse_2.rightButton,mouse_2.time,mouse_2.clicked_name,mouse.x,mouse.y,mouse.leftButton,mouse.midButton,mouse.rightButton,mouse.time,mouse.clicked_name,Choice,Trial,TrialDuration,MOUSE_GAZE,ET_GAZE,ET_GAZE_x_T,time,unixTime,ET_GAZE_NF,Loc_Option1_label,Loc_Option2_label,Loc_Cost_label,Loc_Qual_label,Loc_Option1_cost,Loc_Option2_cost,Loc_Option1_quality,Loc_Option2_quality,trials.thisRepN,trials.thisTrialN,trials.thisN,trials.thisIndex,trials.ran,Block,Device,cost1,qual1,cost2,qual2
space,1.2272,-0.533333333,-0.296296296,1,0,0,0.328125,0.677777778,1,0,0,calibration_square,0,0,0,18,1,0.33,0.67,07,001,2024-12-03_11h11.53.970,Attention_exp_legacy,2023.1.0,Win32,60.24096386,,,,,,,,,,,,,,,,,,,,,,,,,,,,,,,,,,,,,,,,,,,,
,,,,,,,-0.658333333,-0.653703704,1,0,0,,0,1,1,0,1,-0.67,-0.67,07,001,2024-12-03_11h11.53.970,Attention_exp_legacy,2023.1.0,Win32,60.24096386,,,,,,,,,,,,,,,,,,,,,,,,,,,,,,,,,,,,,,,,,,,,
,,,,,,,-0.007291667,0.001851852,1,0,0,calibration_square,0,2,2,11,1,0,0,07,001,2024-12-03_11h11.53.970,Attention_exp_legacy,2023.1.0,Win32,60.24096386,,,,,,,,,,,,,,,,,,,,,,,,,,,,,,,,,,,,,,,,,,,,
,,,,,,,0.672916667,-0.674074074,1,0,0,calibration_square,0,3,3,20,1,0.67,-0.67,07,001,2024-12-03_11h11.53.970,Attention_exp_legacy,2023.1.0,Win32,60.24096386,,,,,,,,,,,,,,,,,,,,,,,,,,,,,,,,,,,,,,,,,,,,
,,,,,,,0.008333333,0.683333333,1,0,0,,0,4,4,13,1,0,0.67,07,001,2024-12-03_11h11.53.970,Attention_exp_legacy,2023.1.0,Win32,60.24096386,,,,,,,,,,,,,,,,,,,,,,,,,,,,,,,,,,,,,,,,,,,,
,,,,,,,-0.6875,0.037037037,1,0,0,,0,5,5,2,1,-0.67,0,07,001,2024-12-03_11h11.53.970,Attention_exp_legacy,2023.1.0,Win32,60.24096386,,,,,,,,,,,,,,,,,,,,,,,,,,,,,,,,,,,,,,,,,,,,
,,,,,,,0.320833333,-0.675925926,1,0,0,calibration_square,0,6,6,14,1,0.33,-0.67,07,001,2024-12-03_11h11.53.970,Attention_exp_legacy,2023.1.0,Win32,60.24096386,,,,,,,,,,,,,,,,,,,,,,,,,,,,,,,,,,,,,,,,,,,,
,,,,,,,-0.316666667,-0.666666667,1,0,0,,0,7,7,4,1,-0.33,-0.67,07,001,2024-12-03_11h11.53.970,Attention_exp_legacy,2023.1.0,Win32,60.24096386,,,,,,,,,,,,,,,,,,,,,,,,,,,,,,,,,,,,,,,,,,,,
,,,,,,,-0.678125,0.348148148,1,0,0,,0,8,8,3,1,-0.67,0.33,07,001,2024-12-03_11h11.53.970,Attention_exp_legacy,2023.1.0,Win32,60.24096386,,,,,,,,,,,,,,,,,,,,,,,,,,,,,,,,,,,,,,,,,,,,
,,,,,,,-0.004166667,-0.348148148,1,0,0,,0,9,9,10,1,0,-0.33,07,001,2024-12-03_11h11.53.970,Attention_exp_legacy,2023.1.0,Win32,60.24096386,,,,,,,,,,,,,,,,,,,,,,,,,,,,,,,,,,,,,,,,,,,,
,,,,,,,-0.338541667,0.037037037,1,0,0,,0,10,10,6,1,-0.33,0,07,001,2024-12-03_11h11.53.970,Attention_exp_legacy,2023.1.0,Win32,60.24096386,,,,,,,,,,,,,,,,,,,,,,,,,,,,,,,,,,,,,,,,,,,,
,,,,,,,-0.017708333,0.316666667,1,0,0,,0,11,11,12,1,0,0.33,07,001,2024-12-03_11h11.53.970,Attention_exp_legacy,2023.1.0,Win32,60.24096386,,,,,,,,,,,,,,,,,,,,,,,,,,,,,,,,,,,,,,,,,,,,
,,,,,,,0.315625,-0.007407407,1,0,0,,0,12,12,16,1,0.33,0,07,001,2024-12-03_11h11.53.970,Attention_exp_legacy,2023.1.0,Win32,60.24096386,,,,,,,,,,,,,,,,,,,,,,,,,,,,,,,,,,,,,,,,,,,,
,,,,,,,-0.670833333,-0.312962963,1,0,0,,0,13,13,1,1,-0.67,-0.33,07,001,2024-12-03_11h11.53.970,Attention_exp_legacy,2023.1.0,Win32,60.24096386,,,,,,,,,,,,,,,,,,,,,,,,,,,,,,,,,,,,,,,,,,,,
,,,,,,,0.315625,-0.348148148,1,0,0,,0,14,14,15,1,0.33,-0.33,07,001,2024-12-03_11h11.53.970,Attention_exp_legacy,2023.1.0,Win32,60.24096386,,,,,,,,,,,,,,,,,,,,,,,,,,,,,,,,,,,,,,,,,,,,
,,,,,,,-0.347916667,0.344444444,1,0,0,,0,15,15,7,1,-0.33,0.33,07,001,2024-12-03_11h11.53.970,Attention_exp_legacy,2023.1.0,Win32,60.24096386,,,,,,,,,,,,,,,,,,,,,,,,,,,,,,,,,,,,,,,,,,,,
,,,,,,,-0.013541667,-0.657407407,1,0,0,,0,16,16,9,1,0,-0.67,07,001,2024-12-03_11h11.53.970,Attention_exp_legacy,2023.1.0,Win32,60.24096386,,,,,,,,,,,,,,,,,,,,,,,,,,,,,,,,,,,,,,,,,,,,
,,,,,,,0.663541667,0.655555556,1,0,0,,0,17,17,19,1,0.67,0.67,07,001,2024-12-03_11h11.53.970,Attention_exp_legacy,2023.1.0,Win32,60.24096386,,,,,,,,,,,,,,,,,,,,,,,,,,,,,,,,,,,,,,,,,,,,
,,,,,,,-0.338541667,-0.338888889,1,0,0,calibration_square,0,18,18,5,1,-0.33,-0.33,07,001,2024-12-03_11h11.53.970,Attention_exp_legacy,2023.1.0,Win32,60.24096386,,,,,,,,,,,,,,,,,,,,,,,,,,,,,,,,,,,,,,,,,,,,
,,,,,,,-0.336458333,0.666666667,1,0,0,calibration_square,0,19,19,8,1,-0.33,0.67,07,001,2024-12-03_11h11.53.970,Attention_exp_legacy,2023.1.0,Win32,60.24096386,,,,,,,,,,,,,,,,,,,,,,,,,,,,,,,,,,,,,,,,,,,,
,,,,,,,0.294791667,0.409259259,1,0,0,,0,20,20,17,1,0.33,0.33,07,001,2024-12-03_11h11.53.970,Attention_exp_legacy,2023.1.0,Win32,60.24096386,,,,,,,,,,,,,,,,,,,,,,,,,,,,,,,,,,,,,,,,,,,,
,,,,,,,,,,,,,,,,,,,,07,001,2024-12-03_11h11.53.970,Attention_exp_legacy,2023.1.0,Win32,60.24096386,"[1920,1080]","[640,480]",[0.009375],[-0.5018518518518519],[1],[0],[0],[1.565600000008935],"[""StartButton""]",[0.5010416666666667],[0.31296296296296294],[1],[0],[0],[1.8669000000059626],"[""Option2_label""]",Option2_label,1,2.8774,"[[0.015625,-0.26666666666666666],[0.015625,-0.26666666666666666],[0.015625,-0.26666666666666666],[0.015625,-0.26666666666666666],[0.015625,-0.26666666666666666],[0.015625,-0.26666666666666666],[0.015625,-0.26666666666666666],[0.015625,-0.26666666666666666],[0.015625,-0.26666666666666666],[0.015625,-0.26666666666666666],[0.015625,-0.26666666666666666],[0.015625,-0.26666666666666666],[0.015625,-0.26666666666666666],[0.015625,-0.26666666666666666],[0.015625,-0.26666666666666666],[0.015625,-0.26666666666666666],[0.015625,-0.26666666666666666],[0.015625,-0.26666666666666666],[0.015625,-0.26666666666666666],[0.015625,-0.26666666666666666],[0.015625,-0.26666666666666666],[0.015625,-0.26666666666666666],[0.015625,-0.26666666666666666],[0.015625,-0.26666666666666666],[0.015625,-0.26666666666666666],[0.015625,-0.27037037037037037],[0.013541666666666667,-0.2759259259259259],[0.0125,-0.2796296296296296],[0.011458333333333333,-0.2833333333333333],[0.010416666666666666,-0.28703703703703703],[0.010416666666666666,-0.28703703703703703],[0.009375,-0.28888888888888886],[0.009375,-0.28888888888888886],[0.009375,-0.28888888888888886],[0.009375,-0.28888888888888886],[0.009375,-0.28888888888888886],[0.009375,-0.28888888888888886],[0.009375,-0.28888888888888886],[0.009375,-0.28888888888888886],[0.009375,-0.28888888888888886],[0.009375,-0.28888888888888886],[0.009375,-0.28888888888888886],[0.009375,-0.28888888888888886],[0.009375,-0.28888888888888886],[0.009375,-0.28888888888888886],[0.009375,-0.28888888888888886],[0.009375,-0.28888888888888886],[0.009375,-0.28888888888888886],[0.009375,-0.28888888888888886],[0.009375,-0.28888888888888886],[0.009375,-0.28888888888888886],[0.009375,-0.28888888888888886],[0.009375,-0.28888888888888886],[0.009375,-0.28888888888888886],[0.009375,-0.28888888888888886],[0.009375,-0.28888888888888886],[0.009375,-0.28888888888888886],[0.009375,-0.28888888888888886],[0.009375,-0.28888888888888886],[0.009375,-0.28888888888888886],[0.009375,-0.28888888888888886],[0.009375,-0.28888888888888886],[0.009375,-0.28888888888888886],[0.009375,-0.28888888888888886],[0.009375,-0.28888888888888886],[0.009375,-0.28888888888888886],[0.009375,-0.28888888888888886],[0.009375,-0.28888888888888886],[0.009375,-0.28888888888888886],[0.009375,-0.28888888888888886],[0.009375,-0.28888888888888886],[0.009375,-0.28888888888888886],[0.009375,-0.28888888888888886],[0.009375,-0.28888888888888886],[0.009375,-0.28888888888888886],[0.009375,-0.28888888888888886],[0.009375,-0.28888888888888886],[0.009375,-0.28888888888888886],[0.009375,-0.28888888888888886],[0.009375,-0.28888888888888886],[0.009375,-0.28888888888888886],[0.009375,-0.28888888888888886],[0.009375,-0.28888888888888886],[0.009375,-0.28888888888888886],[0.009375,-0.28888888888888886],[0.009375,-0.28888888888888886],[0.009375,-0.28888888888888886],[0.009375,-0.28888888888888886],[0.027083333333333334,-0.26296296296296295],[0.075,-0.2074074074074074],[0.134375,-0.13703703703703704],[0.21041666666666667,-0.04259259259259259],[0.290625,0.03333333333333333],[0.365625,0.11296296296296296],[0.41875,0.17037037037037037],[0.45625,0.21481481481481482],[0.4822916666666667,0.2462962962962963],[0.48541666666666666,0.2537037037037037],[0.4875,0.25925925925925924],[0.490625,0.26481481481481484],[0.4947916666666667,0.2722222222222222],[0.49583333333333335,0.2777777777777778],[0.4979166666666667,0.2814814814814815],[0.5,0.28703703703703703],[0.5,0.29259259259259257],[0.5010416666666667,0.29444444444444445],[0.5010416666666667,0.3],[0.5010416666666667,0.3055555555555556],[0.5010416666666667,0.3111111111111111],[0.5010416666666667,0.31296296296296294],[0.5010416666666667,0.31296296296296294],[0.5010416666666667,0.31296296296296294],[0.5010416666666667,0.31296296296296294],[0.5010416666666667,0.31296296296296294],[0.5010416666666667,0.31296296296296294],[0.5010416666666667,0.31296296296296294],[0.5010416666666667,0.31296296296296294],[0.5010416666666667,0.31296296296296294],[0.5010416666666667,0.31296296296296294],[0.5010416666666667,0.31296296296296294],[0.5010416666666667,0.31296296296296294],[0.5010416666666667,0.31296296296296294],[0.5010416666666667,0.31296296296296294],[0.5,0.31296296296296294],[0.49895833333333334,0.31296296296296294],[0.4979166666666667,0.31296296296296294],[0.4947916666666667,0.3111111111111111],[0.49375,0.3111111111111111],[0.49270833333333336,0.3111111111111111],[0.49270833333333336,0.3111111111111111],[0.49270833333333336,0.3111111111111111],[0.49270833333333336,0.3111111111111111],[0.49270833333333336,0.3111111111111111],[0.49270833333333336,0.3111111111111111],[0.49270833333333336,0.3111111111111111],[0.49166666666666664,0.3111111111111111],[0.490625,0.3111111111111111],[0.490625,0.3111111111111111],[0.490625,0.3111111111111111],[0.490625,0.3111111111111111],[0.490625,0.3111111111111111],[0.490625,0.3111111111111111],[0.490625,0.3111111111111111],[0.490625,0.3111111111111111],[0.490625,0.3111111111111111],[0.490625,0.3111111111111111],[0.490625,0.3111111111111111],[0.490625,0.3111111111111111],[0.490625,0.3111111111111111],[0.490625,0.3111111111111111],[0.490625,0.3111111111111111],[0.490625,0.3111111111111111],[0.490625,0.3111111111111111],[0.490625,0.3111111111111111],[0.490625,0.3111111111111111],[0.490625,0.3111111111111111],[0.490625,0.3111111111111111],[0.490625,0.3111111111111111],[0.490625,0.3111111111111111],[0.490625,0.3111111111111111],[0.490625,0.3111111111111111],[0.490625,0.3111111111111111],[0.490625,0.3111111111111111],[0.490625,0.3111111111111111],[0.490625,0.3111111111111111],[0.490625,0.3111111111111111],[0.490625,0.3111111111111111],[0.490625,0.3111111111111111],[0.490625,0.3111111111111111],[0.490625,0.3111111111111111],[0.490625,0.3111111111111111],[0.490625,0.30925925925925923]]","[[0.3663541666666667,0.3705555555555556],[0.3663541666666667,0.3705555555555556],[0.3818749999999999,0.37037037037037035],[0.3818749999999999,0.37037037037037035],[0.34500000000000003,0.3633333333333334],[0.34500000000000003,0.3633333333333334],[0.34104166666666674,0.42166666666666675],[0.34104166666666674,0.42166666666666675],[0.3376041666666666,0.4381481481481482],[0.3376041666666666,0.4381481481481482],[0.3367708333333333,0.3785185185185185],[0.3367708333333333,0.3785185185185185],[0.3421875,0.3],[0.3421875,0.3],[0.34489583333333323,0.26425925925925936],[0.34489583333333323,0.26425925925925936],[0.3194791666666667,0.28111111111111103],[0.3337500000000001,0.3122222222222223],[0.3337500000000001,0.3122222222222223],[0.3597916666666668,0.3168518518518519],[0.33708333333333323,0.2953703703703704],[0.3414583333333333,0.282037037037037],[0.33395833333333325,0.2611111111111111],[0.32156250000000003,0.24259259259259258],[0.3264583333333334,0.2540740740740742],[0.32625000000000004,0.2737037037037036],[0.334375,0.2851851851851852],[0.27229166666666677,0.2755555555555555],[0.19645833333333323,0.20870370370370378],[0.12062499999999995,0.1418518518518519],[0.1196875000000001,0.14462962962962966],[0.10770833333333343,0.12111111111111107],[0.05927083333333331,0.13759259259259252],[0.06947916666666672,0.10314814814814824],[0.06947916666666672,0.10314814814814824],[0.09135416666666671,0.05962962962962971],[0.11687500000000005,0.09222222222222214],[0.12489583333333343,0.06148148148148157],[0.19854166666666656,0.03629629629629634],[0.25541666666666674,0.0837037037037038],[0.29749999999999993,0.1477777777777777],[0.25,0.23499999999999996],[0.225,0.334074074074074],[0.27708333333333335,0.3705555555555556],[0.2705208333333334,0.4579629629629629],[0.2639583333333334,0.5640740740740741],[0.2620833333333332,0.6],[0.2769791666666668,0.6701851851851851],[0.2493750000000001,0.7437037037037038],[0.23854166666666668,0.7666666666666667],[0.25322916666666656,0.7914814814814815],[0.2997916666666666,0.7751851851851852],[0.2997916666666666,0.7751851851851852],[0.38427083333333345,0.7525925925925926],[0.45458333333333345,0.7242592592592593],[0.46864583333333343,0.7125925925925926],[0.44500000000000006,0.7164814814814814],[0.43072916666666666,0.7364814814814815],[0.41354166666666664,0.7537037037037037],[0.4891666666666666,0.7538888888888889],[0.5647916666666667,0.7540740740740741],[0.5832291666666668,0.7414814814814814],[0.5832291666666668,0.7414814814814814],[0.5954166666666666,0.7294444444444445],[0.6021874999999999,0.6935185185185185],[0.5832291666666668,0.6477777777777777],[0.6205208333333334,0.5853703703703704],[0.6472916666666667,0.5281481481481483],[0.6646874999999999,0.45481481481481484],[0.6760416666666667,0.39000000000000007],[0.6370833333333332,0.3388888888888889],[0.5992708333333333,0.3031481481481482],[0.6028125000000001,0.2770370370370371],[0.6134375000000001,0.23833333333333342],[0.5721875,0.1896296296296296],[0.5171875,0.1933333333333333],[0.46604166666666674,0.21518518518518526],[0.40729166666666666,0.22314814814814815],[0.3414583333333333,0.24870370370370362],[0.30052083333333335,0.225],[0.2540625000000001,0.22888888888888892],[0.2540625000000001,0.22888888888888892],[0.2205208333333334,0.2007407407407407],[0.16354166666666667,0.1668518518518519],[0.10572916666666667,0.1449999999999999],[0.10197916666666676,0.16018518518518518],[0.1368750000000001,0.16648148148148145],[0.1430208333333333,0.13944444444444437],[0.16729166666666656,0.12111111111111107],[0.15395833333333328,0.11722222222222214],[0.11583333333333339,0.1581481481481481],[0.16447916666666676,0.15907407407407403],[0.1990624999999999,0.1766666666666666],[0.2548958333333334,0.13962962962962958],[0.3219791666666666,0.1287037037037037],[0.35437500000000005,0.12092592592592584],[0.3372916666666666,0.08925925925925934],[0.3451041666666666,0.07277777777777769],[0.3646874999999999,0.01962962962962967],[0.41916666666666674,-0.020370370370370372],[0.4605208333333332,-0.08537037037037042],[0.44260416666666674,-0.11425925925925924],[0.4882291666666667,-0.15629629629629627],[0.47416666666666674,-0.1655555555555555],[0.45166666666666655,-0.20055555555555557],[0.41864583333333344,-0.23203703703703707],[0.4319791666666667,-0.24685185185185188],[0.4235416666666666,-0.22388888888888886],[0.4033333333333334,-0.16425925925925924],[0.4254166666666668,-0.18481481481481485],[0.4694791666666667,-0.1816666666666667],[0.4982291666666666,-0.2212962962962963],[0.4634375000000001,-0.2477777777777778],[0.4678124999999999,-0.24518518518518514],[0.46937499999999993,-0.24296296296296294],[0.5029166666666666,-0.21944444444444444],[0.503125,-0.24203703703703702],[0.5400000000000001,-0.24407407407407408],[0.5768749999999999,-0.24611111111111106],[0.58125,-0.2131481481481482],[0.578125,-0.20185185185185187],[0.5683333333333332,-0.1714814814814815],[0.5529166666666666,-0.1227777777777778],[0.5653125,-0.09092592592592597],[0.5726041666666667,-0.10425925925925927],[0.5527083333333332,-0.10999999999999996],[0.528125,-0.0507407407407407],[0.5081249999999999,-0.055740740740740785],[0.4881249999999999,-0.06074074074074076],[0.44031250000000005,-0.051666666666666625],[0.4,-0.02092592592592584],[0.4,-0.02092592592592584],[0.38697916666666665,-0.008333333333333333],[0.38697916666666665,-0.008333333333333333],[0.3759375000000001,-0.006851851851851936],[0.34822916666666665,-0.029814814814814856],[0.34822916666666665,-0.029814814814814856],[0.35041666666666677,-0.018703703703703747],[0.35041666666666677,-0.018703703703703747],[0.32937500000000003,-0.02092592592592584],[0.32937500000000003,-0.02092592592592584],[0.3020833333333333,-0.022592592592592678],[0.3020833333333333,-0.022592592592592678],[0.2540625000000001,-0.027777777777777776],[0.21343750000000009,-0.052962962962963],[0.20062499999999991,-0.09222222222222225],[0.15437500000000004,-0.10240740740740743],[0.08468749999999996,-0.05888888888888891],[0.07822916666666657,-0.05407407407407405],[0.07802083333333343,-0.04944444444444453],[0.03093750000000005,-0.03129629629629625],[-0.000833333333333286,-0.02370370370370362],[-0.01083333333333331,-0.03370370370370379],[0.0140625,-0.02296296296296292],[0.03156249999999995,0.007777777777777862],[0.08822916666666672,-0.02370370370370362],[0.17979166666666657,-0.08499999999999996],[0.2620833333333332,-0.14740740740740746],[0.29364583333333344,-0.18611111111111112],[0.33958333333333335,-0.182962962962963],[0.4076041666666666,-0.18222222222222217],[0.4669791666666666,-0.20092592592592592],[0.5263541666666666,-0.21962962962962967],[0.5271874999999999,-0.25092592592592594],[0.5280208333333334,-0.2822222222222222],[0.49208333333333343,-0.24259259259259258],[0.45437500000000003,-0.2103703703703704],[0.42208333333333337,-0.2125925925925926],[0.3727083333333333,-0.16518518518518516],[0.3198958333333332,-0.13296296296296298],[0.27333333333333343,-0.10203703703703708],[0.2613541666666668,-0.0668518518518519]]","[[0.3663541666666667,0.3705555555555556,0.00029999999701857405],[0.3663541666666667,0.3705555555555556,0.043699999988078275],[0.3818749999999999,0.37037037037037035,0.057299999997020734],[0.3818749999999999,0.37037037037037035,0.07399999999999807],[0.34500000000000003,0.3633333333333334,0.09059999999404056],[0.34500000000000003,0.3633333333333334,0.10729999999701789],[0.34104166666666674,0.42166666666666675,0.12389999999106038],[0.34104166666666674,0.42166666666666675,0.14059999999403772],[0.3376041666666666,0.4381481481481482,0.15729999999702216],[0.3376041666666666,0.4381481481481482,0.17389999999105754],[0.3367708333333333,0.3785185185185185,0.19059999999404198],[0.3367708333333333,0.3785185185185185,0.2072999999970193],[0.3421875,0.3,0.22400000000000375],[0.3421875,0.3,0.24059999999403914],[0.34489583333333323,0.26425925925925936,0.2581999999880793],[0.34489583333333323,0.26425925925925936,0.27389999999105896],[0.3194791666666667,0.28111111111111103,0.2905999999940434],[0.3337500000000001,0.3122222222222223,0.3098999999910603],[0.3337500000000001,0.3122222222222223,0.3238999999910632],[0.3597916666666668,0.3168518518518519,0.34059999999404056],[0.33708333333333323,0.2953703703703704,0.3620000000000019],[0.3414583333333333,0.282037037037037,0.3787999999970211],[0.33395833333333325,0.2611111111111111,0.3941999999880821],[0.32156250000000003,0.24259259259259258,0.4078999999910593],[0.3264583333333334,0.2540740740740742,0.4239999999999995],[0.32625000000000004,0.2737037037037036,0.4440999999940374],[0.334375,0.2851851851851852,0.46000000000000085],[0.27229166666666677,0.2755555555555555,0.4745999999940409],[0.19645833333333323,0.20870370370370378,0.49079999999702295],[0.12062499999999995,0.1418518518518519,0.5108999999910608],[0.1196875000000001,0.14462962962962966,0.5272999999970196],[0.10770833333333343,0.12111111111111107,0.5429999999999993],[0.05927083333333331,0.13759259259259252,0.5585000000000022],[0.06947916666666672,0.10314814814814824,0.5775999999940424],[0.06947916666666672,0.10314814814814824,0.5960000000000036],[0.09135416666666671,0.05962962962962971,0.6107999999970204],[0.11687500000000005,0.09222222222222214,0.6270999999940372],[0.12489583333333343,0.06148148148148157,0.6406999999880796],[0.19854166666666656,0.03629629629629634,0.6572999999970222],[0.25541666666666674,0.0837037037037038,0.6738999999910575],[0.29749999999999993,0.1477777777777777,0.690599999994042],[0.25,0.23499999999999996,0.7071999999880774],[0.225,0.334074074074074,0.7240000000000038],[0.27708333333333335,0.3705555555555556,0.7405999999940391],[0.2705208333333334,0.4579629629629629,0.7575000000000003],[0.2639583333333334,0.5640740740740741,0.773899999991059],[0.2620833333333332,0.6,0.7905000000000015],[0.2769791666666668,0.6701851851851851,0.8071999999880788],[0.2493750000000001,0.7437037037037038,0.8238999999910632],[0.23854166666666668,0.7666666666666667,0.8405999999940406],[0.25322916666666656,0.7914814814814815,0.8572999999970179],[0.2997916666666666,0.7751851851851852,0.8738999999910604],[0.2997916666666666,0.7751851851851852,0.8905999999940377],[0.38427083333333345,0.7525925925925926,0.9071999999880802],[0.45458333333333345,0.7242592592592593,0.9239999999999995],[0.46864583333333343,0.7125925925925926,0.940599999994042],[0.44500000000000006,0.7164814814814814,0.9595999999940403],[0.43072916666666666,0.7364814814814815,0.9738999999910618],[0.41354166666666664,0.7537037037037037,0.9905999999940391],[0.4891666666666666,0.7538888888888889,1.0071999999880816],[0.5647916666666667,0.7540740740740741,1.023899999991059],[0.5832291666666668,0.7414814814814814,1.0406999999880782],[0.5832291666666668,0.7414814814814814,1.0573999999910626],[0.5954166666666666,0.7294444444444445,1.073999999999998],[0.6021874999999999,0.6935185185185185,1.0941999999880778],[0.5832291666666668,0.6477777777777777,1.1083999999910574],[0.6205208333333334,0.5853703703703704,1.1240000000000023],[0.6472916666666667,0.5281481481481483,1.1405999999940377],[0.6646874999999999,0.45481481481481484,1.159699999988078],[0.6760416666666667,0.39000000000000007,1.1738999999910575],[0.6370833333333332,0.3388888888888889,1.190599999994042],[0.5992708333333333,0.3031481481481482,1.2072999999970193],[0.6028125000000001,0.2770370370370371,1.2238999999910618],[0.6134375000000001,0.23833333333333342,1.240699999988081],[0.5721875,0.1896296296296296,1.259999999999998],[0.5171875,0.1933333333333333,1.2764999999999986],[0.46604166666666674,0.21518518518518526,1.2905999999940434],[0.40729166666666666,0.22314814814814815,1.3071999999880788],[0.3414583333333333,0.24870370370370362,1.3238999999910632],[0.30052083333333335,0.225,1.3405999999940406],[0.2540625000000001,0.22888888888888892,1.357299999997018],[0.2540625000000001,0.22888888888888892,1.374099999994037],[0.2205208333333334,0.2007407407407407,1.3905999999940377],[0.16354166666666667,0.1668518518518519,1.4072999999970222],[0.10572916666666667,0.1449999999999999,1.4238999999910575],[0.10197916666666676,0.16018518518518518,1.4405000000000001],[0.1368750000000001,0.16648148148148145,1.4571999999880774],[0.1430208333333333,0.13944444444444437,1.4738999999910618],[0.16729166666666656,0.12111111111111107,1.492299999997023],[0.15395833333333328,0.11722222222222214,1.5073999999910583],[0.11583333333333339,0.1581481481481481,1.5240999999940428],[0.16447916666666676,0.15907407407407403,1.5406999999880782],[0.1990624999999999,0.1766666666666666,1.560199999988079],[0.2548958333333334,0.13962962962962958,1.5741999999880818],[0.3219791666666666,0.1287037037037037,1.5907999999970173],[0.35437500000000005,0.12092592592592584,1.6096999999880808],[0.3372916666666666,0.08925925925925934,1.624299999997021],[0.3451041666666666,0.07277777777777769,1.6407999999970215],[0.3646874999999999,0.01962962962962967,1.6600999999940385],[0.41916666666666674,-0.020370370370370372,1.6757999999970181],[0.4605208333333332,-0.08537037037037042,1.6906999999880767],[0.44260416666666674,-0.11425925925925924,1.7075999999940379],[0.4882291666666667,-0.15629629629629627,1.7262999999970177],[0.47416666666666674,-0.1655555555555555,1.740699999988081],[0.45166666666666655,-0.20055555555555557,1.7575000000000003],[0.41864583333333344,-0.23203703703703707,1.776299999997022],[0.4319791666666667,-0.24685185185185188,1.7906999999880782],[0.4235416666666666,-0.22388888888888886,1.8072999999970207],[0.4033333333333334,-0.16425925925925924,1.826399999991061],[0.4254166666666668,-0.18481481481481485,1.8406999999880824],[0.4694791666666667,-0.1816666666666667,1.857199999988083],[0.4982291666666666,-0.2212962962962963,1.8738999999910604],[0.4634375000000001,-0.2477777777777778,1.8905999999940377],[0.4678124999999999,-0.24518518518518514,1.9071999999880802],[0.46937499999999993,-0.24296296296296294,1.9238999999910575],[0.5029166666666666,-0.21944444444444444,1.9420000000000002],[0.503125,-0.24203703703703702,1.9603999999910613],[0.5400000000000001,-0.24407407407407408,1.9738999999910618],[0.5768749999999999,-0.24611111111111106,1.9905999999940391],[0.58125,-0.2131481481481482,2.0072999999970236],[0.578125,-0.20185185185185187,2.023899999991059],[0.5683333333333332,-0.1714814814814815,2.0405999999940434],[0.5529166666666666,-0.1227777777777778,2.057199999988079],[0.5653125,-0.09092592592592597,2.076199999988077],[0.5726041666666667,-0.10425925925925927,2.0922999999970173],[0.5527083333333332,-0.10999999999999996,2.1075000000000017],[0.528125,-0.0507407407407407,2.1277999999970234],[0.5081249999999999,-0.055740740740740785,2.1421999999880796],[0.4881249999999999,-0.06074074074074076,2.15979999999702],[0.44031250000000005,-0.051666666666666625,2.1739999999999995],[0.4,-0.02092592592592584,2.1925999999940373],[0.4,-0.02092592592592584,2.2071999999880774],[0.38697916666666665,-0.008333333333333333,2.223899999991062],[0.38697916666666665,-0.008333333333333333,2.240599999994039],[0.3759375000000001,-0.006851851851851936,2.257699999988077],[0.34822916666666665,-0.029814814814814856,2.2790999999940382],[0.34822916666666665,-0.029814814814814856,2.290699999988078],[0.35041666666666677,-0.018703703703703747,2.307199999988079],[0.35041666666666677,-0.018703703703703747,2.3238999999910632],[0.32937500000000003,-0.02092592592592584,2.3405999999940406],[0.32937500000000003,-0.02092592592592584,2.357299999997018],[0.3020833333333333,-0.022592592592592678,2.3738999999910604],[0.3020833333333333,-0.022592592592592678,2.3905999999940377],[0.2540625000000001,-0.027777777777777776,2.407299999997022],[0.21343750000000009,-0.052962962962963,2.425099999994039],[0.20062499999999991,-0.09222222222222225,2.440599999994042],[0.15437500000000004,-0.10240740740740743,2.4594999999999985],[0.08468749999999996,-0.05888888888888891,2.473899999991062],[0.07822916666666657,-0.05407407407407405,2.490699999988081],[0.07802083333333343,-0.04944444444444453,2.5071999999880816],[0.03093750000000005,-0.03129629629629625,2.524000000000001],[-0.000833333333333286,-0.02370370370370362,2.540899999991062],[-0.01083333333333331,-0.03370370370370379,2.557699999988081],[0.0140625,-0.02296296296296292,2.5738999999910632],[0.03156249999999995,0.007777777777777862,2.59169999998808],[0.08822916666666672,-0.02370370370370362,2.607299999997018],[0.17979166666666657,-0.08499999999999996,2.6238999999910604],[0.2620833333333332,-0.14740740740740746,2.640500000000003],[0.29364583333333344,-0.18611111111111112,2.6585000000000036],[0.33958333333333335,-0.182962962962963,2.6738999999910575],[0.4076041666666666,-0.18222222222222217,2.6908999999910606],[0.4669791666666666,-0.20092592592592592,2.7071999999880774],[0.5263541666666666,-0.21962962962962967,2.7240999999940385],[0.5271874999999999,-0.25092592592592594,2.7405000000000044],[0.5280208333333334,-0.2822222222222222,2.7595000000000027],[0.49208333333333343,-0.24259259259259258,2.773899999991059],[0.45437500000000003,-0.2103703703703704,2.790699999988078],[0.42208333333333337,-0.2125925925925926,2.807199999988079],[0.3727083333333333,-0.16518518518518516,2.82409999999404],[0.3198958333333332,-0.13296296296296298,2.8405999999940406],[0.27333333333333343,-0.10203703703703708,2.8577999999970203],[0.2613541666666668,-0.0668518518518519,2.877399999991063]]","[0.00029999999701857405,0.043699999988078275,0.057299999997020734,0.07399999999999807,0.09059999999404056,0.10729999999701789,0.12389999999106038,0.14059999999403772,0.15729999999702216,0.17389999999105754,0.19059999999404198,0.2072999999970193,0.22400000000000375,0.24059999999403914,0.2581999999880793,0.27389999999105896,0.2905999999940434,0.3098999999910603,0.3238999999910632,0.34059999999404056,0.3620000000000019,0.3787999999970211,0.3941999999880821,0.4078999999910593,0.4239999999999995,0.4440999999940374,0.46000000000000085,0.4745999999940409,0.49079999999702295,0.5108999999910608,0.5272999999970196,0.5429999999999993,0.5585000000000022,0.5775999999940424,0.5960000000000036,0.6107999999970204,0.6270999999940372,0.6406999999880796,0.6572999999970222,0.6738999999910575,0.690599999994042,0.7071999999880774,0.7240000000000038,0.7405999999940391,0.7575000000000003,0.773899999991059,0.7905000000000015,0.8071999999880788,0.8238999999910632,0.8405999999940406,0.8572999999970179,0.8738999999910604,0.8905999999940377,0.9071999999880802,0.9239999999999995,0.940599999994042,0.9595999999940403,0.9738999999910618,0.9905999999940391,1.0071999999880816,1.023899999991059,1.0406999999880782,1.0573999999910626,1.073999999999998,1.0941999999880778,1.1083999999910574,1.1240000000000023,1.1405999999940377,1.159699999988078,1.1738999999910575,1.190599999994042,1.2072999999970193,1.2238999999910618,1.240699999988081,1.259999999999998,1.2764999999999986,1.2905999999940434,1.3071999999880788,1.3238999999910632,1.3405999999940406,1.357299999997018,1.374099999994037,1.3905999999940377,1.4072999999970222,1.4238999999910575,1.4405000000000001,1.4571999999880774,1.4738999999910618,1.492299999997023,1.5073999999910583,1.5240999999940428,1.5406999999880782,1.560199999988079,1.5741999999880818,1.5907999999970173,1.6096999999880808,1.624299999997021,1.6407999999970215,1.6600999999940385,1.6757999999970181,1.6906999999880767,1.7075999999940379,1.7262999999970177,1.740699999988081,1.7575000000000003,1.776299999997022,1.7906999999880782,1.8072999999970207,1.826399999991061,1.8406999999880824,1.857199999988083,1.8738999999910604,1.8905999999940377,1.9071999999880802,1.9238999999910575,1.9420000000000002,1.9603999999910613,1.9738999999910618,1.9905999999940391,2.0072999999970236,2.023899999991059,2.0405999999940434,2.057199999988079,2.076199999988077,2.0922999999970173,2.1075000000000017,2.1277999999970234,2.1421999999880796,2.15979999999702,2.1739999999999995,2.1925999999940373,2.2071999999880774,2.223899999991062,2.240599999994039,2.257699999988077,2.2790999999940382,2.290699999988078,2.307199999988079,2.3238999999910632,2.3405999999940406,2.357299999997018,2.3738999999910604,2.3905999999940377,2.407299999997022,2.425099999994039,2.440599999994042,2.4594999999999985,2.473899999991062,2.490699999988081,2.5071999999880816,2.524000000000001,2.540899999991062,2.557699999988081,2.5738999999910632,2.59169999998808,2.607299999997018,2.6238999999910604,2.640500000000003,2.6585000000000036,2.6738999999910575,2.6908999999910606,2.7071999999880774,2.7240999999940385,2.7405000000000044,2.7595000000000027,2.773899999991059,2.790699999988078,2.807199999988079,2.82409999999404,2.8405999999940406,2.8577999999970203,2.877399999991063]","[1733195553118,1733195553155,1733195553168,1733195553185,1733195553202,1733195553218,1733195553235,1733195553252,1733195553268,1733195553285,1733195553302,1733195553318,1733195553335,1733195553352,1733195553369,1733195553385,1733195553402,1733195553421,1733195553435,1733195553452,1733195553473,1733195553490,1733195553505,1733195553519,1733195553535,1733195553555,1733195553571,1733195553586,1733195553602,1733195553622,1733195553638,1733195553654,1733195553670,1733195553689,1733195553707,1733195553722,1733195553738,1733195553752,1733195553768,1733195553785,1733195553802,1733195553818,1733195553835,1733195553852,1733195553869,1733195553885,1733195553902,1733195553918,1733195553935,1733195553952,1733195553968,1733195553985,1733195554002,1733195554018,1733195554035,1733195554052,1733195554071,1733195554085,1733195554102,1733195554118,1733195554135,1733195554152,1733195554168,1733195554185,1733195554205,1733195554219,1733195554235,1733195554253,1733195554272,1733195554286,1733195554303,1733195554319,1733195554336,1733195554353,1733195554372,1733195554389,1733195554403,1733195554419,1733195554436,1733195554453,1733195554469,1733195554486,1733195554503,1733195554519,1733195554536,1733195554553,1733195554569,1733195554586,1733195554604,1733195554619,1733195554636,1733195554653,1733195554672,1733195554686,1733195554703,1733195554722,1733195554736,1733195554753,1733195554772,1733195554788,1733195554803,1733195554820,1733195554838,1733195554853,1733195554870,1733195554888,1733195554903,1733195554919,1733195554939,1733195554953,1733195554969,1733195554986,1733195555003,1733195555019,1733195555036,1733195555054,1733195555072,1733195555086,1733195555103,1733195555119,1733195555136,1733195555153,1733195555169,1733195555188,1733195555204,1733195555220,1733195555240,1733195555254,1733195555272,1733195555286,1733195555305,1733195555319,1733195555336,1733195555353,1733195555370,1733195555391,1733195555403,1733195555419,1733195555436,1733195555453,1733195555469,1733195555486,1733195555503,1733195555519,1733195555537,1733195555553,1733195555572,1733195555586,1733195555603,1733195555619,1733195555636,1733195555653,1733195555670,1733195555686,1733195555704,1733195555719,1733195555736,1733195555753,1733195555771,1733195555786,1733195555803,1733195555819,1733195555836,1733195555853,1733195555872,1733195555886,1733195555903,1733195555919,1733195555936,1733195555953,1733195555970,1733195555989]","[[1311.7,740.1],[1311.7,740.1],[1326.6,740],[1326.6,740],[1291.2,736.2],[1291.2,736.2],[1287.4,767.7],[1287.4,767.7],[1284.1,776.6],[1284.1,776.6],[1283.3,744.4],[1283.3,744.4],[1288.5,702],[1288.5,702],[1291.1,682.7],[1291.1,682.7],[1266.7,691.8],[1280.4,708.6],[1280.4,708.6],[1305.4,711.1],[1283.6,699.5],[1287.8,692.3],[1280.6,681],[1268.7,671],[1273.4,677.2],[1273.2,687.8],[1281,694],[1221.4,688.8],[1148.6,652.7],[1075.8,616.6],[1074.9,618.1],[1063.4,605.4],[1016.9,614.3],[1026.7,595.7],[1026.7,595.7],[1047.7,572.2],[1072.2,589.8],[1079.9,573.2],[1150.6,559.6],[1205.2,585.2],[1245.6,619.8],[1200,666.9],[1176,720.4],[1226,740.1],[1219.7,787.3],[1213.4,844.6],[1211.6,864],[1225.9,901.9],[1199.4,941.6],[1189,954],[1203.1,967.4],[1247.8,958.6],[1247.8,958.6],[1328.9,946.4],[1396.4,931.1],[1409.9,924.8],[1387.2,926.9],[1373.5,937.7],[1357,947],[1429.6,947.1],[1502.2,947.2],[1519.9,940.4],[1519.9,940.4],[1531.6,933.9],[1538.1,914.5],[1519.9,889.8],[1555.7,856.1],[1581.4,825.2],[1598.1,785.6],[1609,750.6],[1571.6,723],[1535.3,703.7],[1538.7,689.6],[1548.9,668.7],[1509.3,642.4],[1456.5,644.4],[1407.4,656.2],[1351,660.5],[1287.8,674.3],[1248.5,661.5],[1203.9,663.6],[1203.9,663.6],[1171.7,648.4],[1117,630.1],[1061.5,618.3],[1057.9,626.5],[1091.4,629.9],[1097.3,615.3],[1120.6,605.4],[1107.8,603.3],[1071.2,625.4],[1117.9,625.9],[1151.1,635.4],[1204.7,615.4],[1269.1,609.5],[1300.2,605.3],[1283.8,588.2],[1291.3,579.3],[1310.1,550.6],[1362.4,529],[1402.1,493.9],[1384.9,478.3],[1428.7,455.6],[1415.2,450.6],[1393.6,431.7],[1361.9,414.7],[1374.7,406.7],[1366.6,419.1],[1347.2,451.3],[1368.4,440.2],[1410.7,441.9],[1438.3,420.5],[1404.9,406.2],[1409.1,407.6],[1410.6,408.8],[1442.8,421.5],[1443,409.3],[1478.4,408.2],[1513.8,407.1],[1518,424.9],[1515,431],[1505.6,447.4],[1490.8,473.7],[1502.7,490.9],[1509.7,483.7],[1490.6,480.6],[1467,512.6],[1447.8,509.9],[1428.6,507.2],[1382.7,512.1],[1344,528.7],[1344,528.7],[1331.5,535.5],[1331.5,535.5],[1320.9,536.3],[1294.3,523.9],[1294.3,523.9],[1296.4,529.9],[1296.4,529.9],[1276.2,528.7],[1276.2,528.7],[1250,527.8],[1250,527.8],[1203.9,525],[1164.9,511.4],[1152.6,490.2],[1108.2,484.7],[1041.3,508.2],[1035.1,510.8],[1034.9,513.3],[989.7,523.1],[959.2,527.2],[949.6,521.8],[973.5,527.6],[990.3,544.2],[1044.7,527.2],[1132.6,494.1],[1211.6,460.4],[1241.9,439.5],[1286,441.2],[1351.3,441.6],[1408.3,431.5],[1465.3,421.4],[1466.1,404.5],[1466.9,387.6],[1432.4,409],[1396.2,426.4],[1365.2,425.2],[1317.8,450.8],[1267.1,468.2],[1222.4,484.9],[1210.9,503.9]]","[0,0.37864299999999995]","[0.37864299999999995,0.37864299999999995]","[-0.37864299999999995,0]","[-0.37864299999999995,-0.37864299999999995]","[0,0]","[0.37864299999999995,0]","[0,-0.37864299999999995]","[0.37864299999999995,-0.37864299999999995]",0,0,0,0,1,2,Laptop,7,1,11,9
,,,,,,,,,,,,,,,,,,,,07,001,2024-12-03_11h11.53.970,Attention_exp_legacy,2023.1.0,Win32,60.24096386,,,,,,,,,,[-0.00625],[0.4222222222222222],[1],[0],[0],[2.3027000000029787],"[""Option1_label""]",Option1_label,2,3.3164,"[[0.47291666666666665,0.2518518518518518],[0.47291666666666665,0.2518518518518518],[0.47291666666666665,0.25],[0.47291666666666665,0.25],[0.471875,0.24814814814814815],[0.471875,0.24814814814814815],[0.471875,0.24444444444444444],[0.471875,0.24444444444444444],[0.471875,0.24444444444444444],[0.4708333333333333,0.24259259259259258],[0.4708333333333333,0.24259259259259258],[0.4708333333333333,0.24259259259259258],[0.4708333333333333,0.24259259259259258],[0.4708333333333333,0.24259259259259258],[0.4708333333333333,0.24259259259259258],[0.4708333333333333,0.24259259259259258],[0.4708333333333333,0.24259259259259258],[0.4708333333333333,0.24259259259259258],[0.4708333333333333,0.24259259259259258],[0.4708333333333333,0.24259259259259258],[0.4708333333333333,0.24259259259259258],[0.4708333333333333,0.24259259259259258],[0.4708333333333333,0.24259259259259258],[0.4708333333333333,0.24259259259259258],[0.4708333333333333,0.24259259259259258],[0.4708333333333333,0.24259259259259258],[0.4708333333333333,0.24259259259259258],[0.4708333333333333,0.24259259259259258],[0.4708333333333333,0.24259259259259258],[0.4708333333333333,0.24259259259259258],[0.4708333333333333,0.24259259259259258],[0.4708333333333333,0.24259259259259258],[0.4708333333333333,0.24259259259259258],[0.4708333333333333,0.24259259259259258],[0.4708333333333333,0.24259259259259258],[0.4708333333333333,0.24259259259259258],[0.4708333333333333,0.24259259259259258],[0.4708333333333333,0.24259259259259258],[0.4708333333333333,0.24259259259259258],[0.4708333333333333,0.24259259259259258],[0.4708333333333333,0.24259259259259258],[0.4708333333333333,0.24259259259259258],[0.4708333333333333,0.24259259259259258],[0.4708333333333333,0.24259259259259258],[0.4708333333333333,0.24259259259259258],[0.4708333333333333,0.24259259259259258],[0.4708333333333333,0.24259259259259258],[0.4708333333333333,0.24259259259259258],[0.4708333333333333,0.24259259259259258],[0.4708333333333333,0.24259259259259258],[0.4708333333333333,0.24259259259259258],[0.4708333333333333,0.24259259259259258],[0.4708333333333333,0.24259259259259258],[0.4708333333333333,0.24259259259259258],[0.4708333333333333,0.24259259259259258],[0.4708333333333333,0.24259259259259258],[0.4708333333333333,0.24259259259259258],[0.4708333333333333,0.24259259259259258],[0.4708333333333333,0.24259259259259258],[0.4708333333333333,0.24259259259259258],[0.4708333333333333,0.24259259259259258],[0.4708333333333333,0.24259259259259258],[0.4708333333333333,0.24259259259259258],[0.4708333333333333,0.24259259259259258],[0.4708333333333333,0.24259259259259258],[0.4708333333333333,0.24259259259259258],[0.4708333333333333,0.24259259259259258],[0.4708333333333333,0.24259259259259258],[0.4708333333333333,0.24259259259259258],[0.4708333333333333,0.24259259259259258],[0.4708333333333333,0.24259259259259258],[0.4708333333333333,0.24259259259259258],[0.4708333333333333,0.24259259259259258],[0.4708333333333333,0.24259259259259258],[0.4708333333333333,0.24259259259259258],[0.4708333333333333,0.24259259259259258],[0.4708333333333333,0.24259259259259258],[0.4708333333333333,0.24259259259259258],[0.4708333333333333,0.24259259259259258],[0.4708333333333333,0.24259259259259258],[0.4708333333333333,0.24259259259259258],[0.4708333333333333,0.24259259259259258],[0.4708333333333333,0.24259259259259258],[0.4708333333333333,0.24259259259259258],[0.4708333333333333,0.24259259259259258],[0.4708333333333333,0.24259259259259258],[0.4708333333333333,0.24259259259259258],[0.4708333333333333,0.24259259259259258],[0.4708333333333333,0.24259259259259258],[0.4708333333333333,0.24259259259259258],[0.4708333333333333,0.24259259259259258],[0.4708333333333333,0.24259259259259258],[0.4708333333333333,0.24259259259259258],[0.4708333333333333,0.24259259259259258],[0.4708333333333333,0.24259259259259258],[0.4708333333333333,0.24259259259259258],[0.46770833333333334,0.24259259259259258],[0.4666666666666667,0.24259259259259258],[0.465625,0.24259259259259258],[0.465625,0.24259259259259258],[0.465625,0.24259259259259258],[0.46458333333333335,0.24259259259259258],[0.4635416666666667,0.24259259259259258],[0.4625,0.24259259259259258],[0.4625,0.24074074074074073],[0.46145833333333336,0.24074074074074073],[0.46145833333333336,0.24074074074074073],[0.46041666666666664,0.24074074074074073],[0.459375,0.2388888888888889],[0.459375,0.2388888888888889],[0.459375,0.2388888888888889],[0.459375,0.2388888888888889],[0.459375,0.2388888888888889],[0.459375,0.2388888888888889],[0.459375,0.2388888888888889],[0.459375,0.23703703703703705],[0.459375,0.23703703703703705],[0.4583333333333333,0.2351851851851852],[0.45729166666666665,0.2351851851851852],[0.453125,0.2351851851851852],[0.4395833333333333,0.23333333333333334],[0.41770833333333335,0.23333333333333334],[0.37916666666666665,0.2388888888888889],[0.3145833333333333,0.2537037037037037],[0.23645833333333333,0.28703703703703703],[0.171875,0.3148148148148148],[0.12291666666666666,0.3388888888888889],[0.09583333333333334,0.3537037037037037],[0.0625,0.37962962962962965],[0.04791666666666667,0.3925925925925926],[0.034375,0.40185185185185185],[0.023958333333333335,0.4111111111111111],[0.016666666666666666,0.412962962962963],[0.010416666666666666,0.4203703703703704],[0.003125,0.4222222222222222],[-0.003125,0.4222222222222222],[-0.00625,0.4222222222222222],[-0.00625,0.4222222222222222],[-0.00625,0.4222222222222222],[-0.00625,0.4222222222222222],[-0.00625,0.4222222222222222],[-0.00625,0.4222222222222222],[-0.00625,0.4222222222222222],[-0.00625,0.4222222222222222],[-0.00625,0.4222222222222222],[-0.00625,0.4222222222222222],[-0.00625,0.4222222222222222],[-0.00625,0.4222222222222222],[-0.00625,0.4222222222222222],[-0.00625,0.4222222222222222],[-0.00625,0.4222222222222222],[-0.00625,0.4222222222222222],[-0.00625,0.4222222222222222],[-0.00625,0.4222222222222222],[-0.00625,0.4222222222222222],[-0.00625,0.4222222222222222],[-0.00625,0.4222222222222222],[-0.00625,0.4222222222222222],[-0.00625,0.4222222222222222],[-0.00625,0.4222222222222222],[-0.00625,0.4222222222222222],[-0.00625,0.4222222222222222],[-0.00625,0.4222222222222222],[-0.00625,0.4222222222222222],[-0.00625,0.4222222222222222],[-0.00625,0.4222222222222222],[-0.00625,0.4222222222222222],[-0.00625,0.4222222222222222],[-0.00625,0.4222222222222222],[-0.00625,0.4222222222222222],[-0.00625,0.4222222222222222],[-0.00625,0.4222222222222222],[-0.00625,0.4222222222222222],[-0.00625,0.4222222222222222],[-0.00625,0.4222222222222222],[-0.00625,0.4222222222222222],[-0.00625,0.4222222222222222],[-0.00625,0.4222222222222222],[-0.00625,0.4222222222222222],[-0.00625,0.4222222222222222],[-0.00625,0.4222222222222222],[-0.00625,0.4222222222222222],[-0.00625,0.4222222222222222],[-0.00625,0.4222222222222222],[-0.00625,0.4222222222222222],[-0.00625,0.4222222222222222],[-0.00625,0.4222222222222222],[-0.00625,0.4222222222222222],[-0.00625,0.4222222222222222],[-0.00625,0.4222222222222222],[-0.00625,0.4222222222222222],[-0.00625,0.4222222222222222],[-0.00625,0.4222222222222222],[-0.00625,0.4222222222222222],[-0.00625,0.4222222222222222],[-0.00625,0.4222222222222222],[-0.00625,0.4222222222222222],[-0.00625,0.4222222222222222],[-0.00625,0.4222222222222222],[-0.00625,0.4222222222222222]]","[[0.5259375000000001,-0.3538888888888889],[0.5396874999999999,-0.3403703703703704],[0.5177083333333333,-0.30092592592592593],[0.4822916666666667,-0.30462962962962964],[0.4822916666666667,-0.30462962962962964],[0.45854166666666674,-0.30351851851851847],[0.45031249999999995,-0.25148148148148153],[0.4125,-0.16925925925925922],[0.3603125000000001,-0.09814814814814815],[0.3081249999999999,-0.027037037037037078],[0.3863541666666668,0.050370370370370454],[0.44031250000000005,0.11425925925925934],[0.36614583333333334,0.1638888888888889],[0.4171875,0.1175925925925926],[0.49458333333333326,0.07555555555555547],[0.5494791666666666,0.02814814814814823],[0.6071875000000001,-0.024629629629629547],[0.6405208333333334,-0.0727777777777778],[0.6347916666666668,-0.042407407407407366],[0.6347916666666668,-0.042407407407407366],[0.6170833333333334,-0.040740740740740744],[0.5230208333333333,-0.06814814814814817],[0.5230208333333333,-0.06814814814814817],[0.4267708333333334,-0.09833333333333337],[0.4267708333333334,-0.09833333333333337],[0.41427083333333337,-0.08907407407407411],[0.41427083333333337,-0.08907407407407411],[0.3029166666666666,-0.024814814814814772],[0.3029166666666666,-0.024814814814814772],[0.23833333333333329,0.013518518518518435],[0.23833333333333329,0.013518518518518435],[0.128125,0.08851851851851844],[0.041875000000000044,0.18111111111111103],[0.007187499999999976,0.23666666666666658],[-0.005624999999999976,0.1948148148148149],[-0.006458333333333381,0.1816666666666667],[-0.02312500000000005,0.20388888888888893],[-0.03760416666666669,0.22888888888888892],[0.0018749999999999527,0.1962962962962963],[0.04989583333333331,0.2024074074074073],[0.051145833333333356,0.23444444444444448],[0.12145833333333324,0.20500000000000007],[0.153125,0.1685185185185185],[0.1805208333333333,0.13185185185185194],[0.22520833333333337,0.11425925925925934],[0.29364583333333344,0.0955555555555556],[0.36083333333333345,0.057037037037036956],[0.40520833333333334,0.02370370370370362],[0.40520833333333334,0.02370370370370362],[0.41218750000000004,0.03425925925925926],[0.3988541666666668,0.022222222222222223],[0.37697916666666675,-0.03740740740740749],[0.3541666666666667,-0.0668518518518519],[0.3095833333333334,-0.11092592592592589],[0.23645833333333333,-0.13944444444444445],[0.16208333333333325,-0.14462962962962966],[0.08145833333333338,-0.11796296296296294],[0.000833333333333286,-0.09129629629629632],[-0.03604166666666669,-0.14648148148148152],[-0.10083333333333329,-0.1844444444444445],[-0.14187500000000006,-0.24500000000000002],[-0.16666666666666666,-0.24259259259259258],[-0.22000000000000006,-0.2192592592592592],[-0.20739583333333336,-0.21870370370370373],[-0.17916666666666667,-0.20425925925925928],[-0.12312500000000005,-0.23740740740740737],[-0.10333333333333337,-0.2794444444444444],[-0.08802083333333334,-0.3303703703703703],[-0.0936458333333333,-0.30462962962962964],[-0.09656250000000005,-0.26222222222222225],[-0.13322916666666665,-0.20833333333333334],[-0.15968749999999995,-0.18277777777777776],[-0.15625,-0.1992592592592593],[-0.18500000000000003,-0.11574074074074074],[-0.18500000000000003,-0.11574074074074074],[-0.19416666666666665,-0.05925925925925926],[-0.22166666666666662,0.004444444444444402],[-0.25125000000000003,0.044999999999999915],[-0.2763541666666666,0.09444444444444444],[-0.30145833333333333,0.14388888888888898],[-0.27718750000000003,0.11462962962962958],[-0.2296875,0.0911111111111112],[-0.24656250000000005,0.09018518518518527],[-0.2454166666666667,0.09833333333333337],[-0.27395833333333336,0.08129629629629626],[-0.26239583333333333,0.0712962962962963],[-0.25802083333333337,0.06462962962962959],[-0.21479166666666671,0.08888888888888889],[-0.16239583333333332,0.09833333333333337],[-0.09614583333333329,0.13666666666666658],[-0.05260416666666667,0.21648148148148144],[-0.057395833333333354,0.25166666666666665],[-0.057395833333333354,0.25166666666666665],[-0.01572916666666669,0.2772222222222223],[0.028645833333333332,0.33129629629629626],[0.11979166666666667,0.3757407407407407],[0.17083333333333334,0.4131481481481482],[0.19958333333333325,0.3596296296296297],[0.19958333333333325,0.3596296296296297],[0.2117708333333333,0.30759259259259264],[0.2125,0.23777777777777773],[0.18947916666666675,0.13425925925925927],[0.2009375000000001,0.05481481481481486],[0.2561458333333334,0.009074074074074031],[0.30458333333333343,-0.09111111111111109],[0.3498958333333334,-0.1955555555555556],[0.36822916666666666,-0.2690740740740741],[0.3707291666666668,-0.37703703703703706],[0.3910416666666668,-0.39962962962962967],[0.4102083333333333,-0.4142592592592592],[0.43166666666666675,-0.3962962962962963],[0.4602083333333333,-0.39518518518518514],[0.45552083333333326,-0.3948148148148148],[0.4752083333333334,-0.38722222222222225],[0.5182291666666666,-0.3274074074074074],[0.5415625000000001,-0.28574074074074074],[0.5654166666666666,-0.3074074074074074],[0.5978125000000001,-0.3218518518518519],[0.6335416666666667,-0.31722222222222224],[0.6626041666666665,-0.35907407407407405],[0.6916666666666667,-0.4009259259259259],[0.6869791666666667,-0.3972222222222222],[0.6795833333333334,-0.41351851851851856],[0.6416666666666667,-0.4142592592592592],[0.5871875000000001,-0.41277777777777774],[0.5442708333333334,-0.4072222222222222],[0.4769791666666668,-0.40907407407407403],[0.4169791666666666,-0.38370370370370366],[0.32874999999999993,-0.4033333333333334],[0.24697916666666658,-0.4177777777777778],[0.19854166666666656,-0.39277777777777784],[0.1866666666666667,-0.39166666666666666],[0.12687499999999996,-0.41814814814814816],[0.10364583333333334,-0.4190740740740741],[0.041666666666666664,-0.48222222222222216],[0.01875,-0.49148148148148146],[-0.0009374999999999763,-0.5496296296296297],[0.034062500000000044,-0.5911111111111111],[0.08031249999999991,-0.5827777777777777],[0.08031249999999991,-0.5827777777777777],[0.10135416666666662,-0.5633333333333334],[0.10135416666666662,-0.5633333333333334],[0.07666666666666658,-0.580925925925926],[0.07666666666666658,-0.580925925925926],[0.10281250000000004,-0.5727777777777778],[0.10281250000000004,-0.5727777777777778],[0.16270833333333337,-0.5496296296296297],[0.16270833333333337,-0.5496296296296297],[0.12312500000000005,-0.5775925925925925],[0.12312500000000005,-0.5775925925925925],[0.17927083333333324,-0.5277777777777778],[0.18552083333333325,-0.53],[0.17614583333333325,-0.45314814814814813],[0.11208333333333324,-0.39296296296296296],[0.09395833333333338,-0.3598148148148148],[0.08645833333333333,-0.33925925925925926],[0.14729166666666677,-0.32833333333333337],[0.07552083333333333,-0.32462962962962966],[0.08125,-0.33796296296296297],[0.13125,-0.3464814814814815],[0.10135416666666662,-0.3442592592592592],[0.08322916666666676,-0.34018518518518515],[0.08677083333333328,-0.33259259259259266],[0.11427083333333338,-0.3227777777777778],[0.11281249999999995,-0.29074074074074074],[0.10718750000000009,-0.27444444444444444],[0.051770833333333384,-0.22166666666666665],[0.08385416666666666,-0.2101851851851852],[0.049687500000000044,-0.1727777777777778],[0.013750000000000047,-0.11148148148148146],[0.0007291666666667141,-0.0764814814814815],[-0.008541666666666715,-0.08796296296296297],[-0.005312500000000024,-0.12111111111111107],[-0.06218750000000005,-0.13574074074074077],[-0.13239583333333335,-0.14962962962962964],[-0.15375000000000003,-0.12000000000000002],[-0.16958333333333328,-0.1427777777777778],[-0.19114583333333332,-0.1427777777777778],[-0.20416666666666666,-0.1294444444444444],[-0.18062499999999998,-0.09703703703703699],[-0.16687500000000005,-0.11814814814814817],[-0.1248958333333333,-0.10481481481481486],[-0.0829166666666667,-0.09148148148148144],[-0.05375000000000003,-0.10111111111111115],[-0.011249999999999953,-0.11148148148148146],[0.06677083333333324,-0.18074074074074079],[0.14093749999999997,-0.22759259259259254],[0.18218750000000009,-0.2403703703703704],[0.2178124999999999,-0.2627777777777777],[0.22374999999999995,-0.31351851851851853],[0.23927083333333338,-0.30999999999999994],[0.23177083333333334,-0.29518518518518516],[0.22427083333333328,-0.2803703703703703],[0.25020833333333337,-0.27],[0.25020833333333337,-0.27],[0.2752083333333334,-0.2542592592592593],[0.2618750000000001,-0.17481481481481478],[0.2271874999999999,-0.13444444444444448],[0.2484375,-0.13277777777777774],[0.2696875000000001,-0.13111111111111112]]","[[0.5259375000000001,-0.3538888888888889,0.0000999999940418661],[0.5396874999999999,-0.3403703703703704,0.017700000002982108],[0.5177083333333333,-0.30092592592592593,0.03620000000297807],[0.4822916666666667,-0.30462962962962964,0.049700000002978584],[0.4822916666666667,-0.30462962962962964,0.0694999999999979],[0.45854166666666674,-0.30351851851851847,0.08339999999105885],[0.45031249999999995,-0.25148148148148153,0.10489999999105493],[0.4125,-0.16925925925925922,0.11979999999702073],[0.3603125000000001,-0.09814814814814815,0.13309999999403743],[0.3081249999999999,-0.027037037037037078,0.14999999999999858],[0.3863541666666668,0.050370370370370454,0.16639999999105726],[0.44031250000000005,0.11425925925925934,0.1830999999940417],[0.36614583333333334,0.1638888888888889,0.20209999999404005],[0.4171875,0.1175925925925926,0.21770000000297784],[0.49458333333333326,0.07555555555555547,0.23309999999403885],[0.5494791666666666,0.02814814814814823,0.24970000000298143],[0.6071875000000001,-0.024629629629629547,0.2665000000000006],[0.6405208333333334,-0.0727777777777778,0.28320000000297796],[0.6347916666666668,-0.042407407407407366,0.2998999999910552],[0.6347916666666668,-0.042407407407407366,0.3164999999999978],[0.6170833333333334,-0.040740740740740744,0.3330999999940403],[0.5230208333333333,-0.06814814814814817,0.353399999991062],[0.5230208333333333,-0.06814814814814817,0.3663999999910601],[0.4267708333333334,-0.09833333333333337,0.38309999999403743],[0.4267708333333334,-0.09833333333333337,0.4002000000029824],[0.41427083333333337,-0.08907407407407411,0.4164999999999992],[0.41427083333333337,-0.08907407407407411,0.4330999999940417],[0.3029166666666666,-0.024814814814814772,0.44970000000297716],[0.3029166666666666,-0.024814814814814772,0.4663999999910615],[0.23833333333333329,0.013518518518518435,0.4832000000029808],[0.23833333333333329,0.013518518518518435,0.4997999999970162],[0.128125,0.08851851851851844,0.5163999999910587],[0.041875000000000044,0.18111111111111103,0.5332999999970198],[0.007187499999999976,0.23666666666666658,0.5497000000029786],[-0.005624999999999976,0.1948148148148149,0.5663999999910558],[-0.006458333333333381,0.1816666666666667,0.5830999999940403],[-0.02312500000000005,0.20388888888888893,0.5997999999970176],[-0.03760416666666669,0.22888888888888892,0.6163999999910601],[0.0018749999999999527,0.1962962962962963,0.6330999999940374],[0.04989583333333331,0.2024074074074073,0.6497999999970219],[0.051145833333333356,0.23444444444444448,0.6670999999940364],[0.12145833333333324,0.20500000000000007,0.6829999999999998],[0.153125,0.1685185185185185,0.6997000000029772],[0.1805208333333333,0.13185185185185194,0.7163999999910615],[0.22520833333333337,0.11425925925925934,0.7332000000029808],[0.29364583333333344,0.0955555555555556,0.7497000000029814],[0.36083333333333345,0.057037037037036956,0.7682000000029774],[0.40520833333333334,0.02370370370370362,0.7830000000000013],[0.40520833333333334,0.02370370370370362,0.7997999999970204],[0.41218750000000004,0.03425925925925926,0.8163999999910558],[0.3988541666666668,0.022222222222222223,0.8344999999999985],[0.37697916666666675,-0.03740740740740749,0.8497000000029828],[0.3541666666666667,-0.0668518518518519,0.8677999999970183],[0.3095833333333334,-0.11092592592592589,0.8830000000000027],[0.23645833333333333,-0.13944444444444445,0.8997999999970219],[0.16208333333333325,-0.14462962962962966,0.9163999999910573],[0.08145833333333338,-0.11796296296296294,0.9329999999999998],[0.000833333333333286,-0.09129629629629632,0.949799999997019],[-0.03604166666666669,-0.14648148148148152,0.9663999999910615],[-0.10083333333333329,-0.1844444444444445,0.9830999999940389],[-0.14187500000000006,-0.24500000000000002,0.9997000000029814],[-0.16666666666666666,-0.24259259259259258,1.0163999999910587],[-0.22000000000000006,-0.2192592592592592,1.0333999999910617],[-0.20739583333333336,-0.21870370370370373,1.0497000000029786],[-0.17916666666666667,-0.20425925925925928,1.0663999999910558],[-0.12312500000000005,-0.23740740740740737,1.0829999999999984],[-0.10333333333333337,-0.2794444444444444,1.0997000000029828],[-0.08802083333333334,-0.3303703703703703,1.11639999999106],[-0.0936458333333333,-0.30462962962962964,1.1330999999940374],[-0.09656250000000005,-0.26222222222222225,1.14970000000298],[-0.13322916666666665,-0.20833333333333334,1.1664999999999992],[-0.15968749999999995,-0.18277777777777776,1.1830999999940417],[-0.15625,-0.1992592592592593,1.1997000000029772],[-0.18500000000000003,-0.11574074074074074,1.2162999999970197],[-0.18500000000000003,-0.11574074074074074,1.2332000000029808],[-0.19416666666666665,-0.05925925925925926,1.2497000000029814],[-0.22166666666666662,0.004444444444444402,1.2667000000029773],[-0.25125000000000003,0.044999999999999915,1.283099999994036],[-0.2763541666666666,0.09444444444444444,1.2997000000029786],[-0.30145833333333333,0.14388888888888898,1.316299999997021],[-0.27718750000000003,0.11462962962962958,1.3330999999940403],[-0.2296875,0.0911111111111112,1.3497000000029828],[-0.24656250000000005,0.09018518518518527,1.3667000000029788],[-0.2454166666666667,0.09833333333333337,1.3830000000000027],[-0.27395833333333336,0.08129629629629626,1.4029999999999987],[-0.26239583333333333,0.0712962962962963,1.4194999999999993],[-0.25802083333333337,0.06462962962962959,1.4337999999970208],[-0.21479166666666671,0.08888888888888889,1.449799999997019],[-0.16239583333333332,0.09833333333333337,1.4663999999910615],[-0.09614583333333329,0.13666666666666658,1.4830999999940389],[-0.05260416666666667,0.21648148148148144,1.4997999999970162],[-0.057395833333333354,0.25166666666666665,1.5165000000000006],[-0.057395833333333354,0.25166666666666665,1.533200000002978],[-0.01572916666666669,0.2772222222222223,1.5497999999970204],[0.028645833333333332,0.33129629629629626,1.5667000000029816],[0.11979166666666667,0.3757407407407407,1.5829999999999984],[0.17083333333333334,0.4131481481481482,1.6015000000000015],[0.19958333333333325,0.3596296296296297,1.6165999999940368],[0.19958333333333325,0.3596296296296297,1.6332000000029794],[0.2117708333333333,0.30759259259259264,1.64970000000298],[0.2125,0.23777777777777773,1.6668999999910596],[0.18947916666666675,0.13425925925925927,1.6863999999910604],[0.2009375000000001,0.05481481481481486,1.699799999997019],[0.2561458333333334,0.009074074074074031,1.7185999999940407],[0.30458333333333343,-0.09111111111111109,1.7332000000029808],[0.3498958333333334,-0.1955555555555556,1.752299999997021],[0.36822916666666666,-0.2690740740740741,1.7675999999940402],[0.3707291666666668,-0.37703703703703706,1.783099999994036],[0.3910416666666668,-0.39962962962962967,1.8032999999970158],[0.4102083333333333,-0.4142592592592592,1.8167000000029816],[0.43166666666666675,-0.3962962962962963,1.8330999999940403],[0.4602083333333333,-0.39518518518518514,1.8497999999970176],[0.45552083333333326,-0.3948148148148148,1.8687000000029812],[0.4752083333333334,-0.38722222222222225,1.8830000000000027],[0.5182291666666666,-0.3274074074074074,1.89970000000298],[0.5415625000000001,-0.28574074074074074,1.9185000000000016],[0.5654166666666666,-0.3074074074074074,1.9329999999999998],[0.5978125000000001,-0.3218518518518519,1.949899999991061],[0.6335416666666667,-0.31722222222222224,1.9697000000029803],[0.6626041666666665,-0.35907407407407405,1.9834999999999994],[0.6916666666666667,-0.4009259259259259,1.9997999999970162],[0.6869791666666667,-0.3972222222222222,2.0165000000000006],[0.6795833333333334,-0.41351851851851856,2.0364999999999966],[0.6416666666666667,-0.4142592592592592,2.0497999999970204],[0.5871875000000001,-0.41277777777777774,2.0667000000029816],[0.5442708333333334,-0.4072222222222222,2.086399999991059],[0.4769791666666668,-0.40907407407407403,2.10029999999702],[0.4169791666666666,-0.38370370370370366,2.116500000000002],[0.32874999999999993,-0.4033333333333334,2.1332999999970212],[0.24697916666666658,-0.4177777777777778,2.151899999991059],[0.19854166666666656,-0.39277777777777784,2.1670000000000016],[0.1866666666666667,-0.39166666666666666,2.1832000000029765],[0.12687499999999996,-0.41814814814814816,2.199799999997019],[0.10364583333333334,-0.4190740740740741,2.2185999999940407],[0.041666666666666664,-0.48222222222222216,2.234399999991055],[0.01875,-0.49148148148148146,2.2515],[-0.0009374999999999763,-0.5496296296296297,2.2704999999999984],[0.034062500000000044,-0.5911111111111111,2.2860000000000014],[0.08031249999999991,-0.5827777777777777,2.3042000000029788],[0.08031249999999991,-0.5827777777777777,2.316399999991056],[0.10135416666666662,-0.5633333333333334,2.3330999999940403],[0.10135416666666662,-0.5633333333333334,2.354200000002976],[0.07666666666666658,-0.580925925925926,2.36639999999106],[0.07666666666666658,-0.580925925925926,2.3830999999940374],[0.10281250000000004,-0.5727777777777778,2.4000999999940404],[0.10281250000000004,-0.5727777777777778,2.4163999999910573],[0.16270833333333337,-0.5496296296296297,2.4332000000029765],[0.16270833333333337,-0.5496296296296297,2.449799999997019],[0.12312500000000005,-0.5775925925925925,2.4663999999910615],[0.12312500000000005,-0.5775925925925925,2.483200000002981],[0.17927083333333324,-0.5277777777777778,2.4997000000029814],[0.18552083333333325,-0.53,2.5167000000029773],[0.17614583333333325,-0.45314814814814813,2.5330000000000013],[0.11208333333333324,-0.39296296296296296,2.5497000000029786],[0.09395833333333338,-0.3598148148148148,2.5690999999940374],[0.08645833333333333,-0.33925925925925926,2.583399999991059],[0.14729166666666677,-0.32833333333333337,2.599700000002983],[0.07552083333333333,-0.32462962962962966,2.61639999999106],[0.08125,-0.33796296296296297,2.6330999999940374],[0.13125,-0.3464814814814815,2.64970000000298],[0.10135416666666662,-0.3442592592592592,2.6677000000029807],[0.08322916666666676,-0.34018518518518515,2.6832999999970184],[0.08677083333333328,-0.33259259259259266,2.699700000002977],[0.11427083333333338,-0.3227777777777778,2.7163999999910615],[0.11281249999999995,-0.29074074074074074,2.733099999994039],[0.10718750000000009,-0.27444444444444444,2.749799999997016],[0.051770833333333384,-0.22166666666666665,2.7687000000029798],[0.08385416666666666,-0.2101851851851852,2.7830000000000013],[0.049687500000000044,-0.1727777777777778,2.800200000002981],[0.013750000000000047,-0.11148148148148146,2.816399999991056],[0.0007291666666667141,-0.0764814814814815,2.8330999999940403],[-0.008541666666666715,-0.08796296296296297,2.849700000002983],[-0.005312500000000024,-0.12111111111111107,2.8675999999940416],[-0.06218750000000005,-0.13574074074074077,2.8830000000000027],[-0.13239583333333335,-0.14962962962962964,2.89970000000298],[-0.15375000000000003,-0.12000000000000002,2.9163999999910573],[-0.16958333333333328,-0.1427777777777778,2.933],[-0.19114583333333332,-0.1427777777777778,2.949700000002977],[-0.20416666666666666,-0.1294444444444444,2.966799999997022],[-0.18062499999999998,-0.09703703703703699,2.983099999994039],[-0.16687500000000005,-0.11814814814814817,2.9997000000029814],[-0.1248958333333333,-0.10481481481481486,3.018399999991061],[-0.0829166666666667,-0.09148148148148144,3.033099999994036],[-0.05375000000000003,-0.10111111111111115,3.0497000000029786],[-0.011249999999999953,-0.11148148148148146,3.0675999999940373],[0.06677083333333324,-0.18074074074074079,3.0830999999940403],[0.14093749999999997,-0.22759259259259254,3.099599999994041],[0.18218750000000009,-0.2403703703703704,3.1162999999970182],[0.2178124999999999,-0.2627777777777777,3.1330999999940374],[0.22374999999999995,-0.31351851851851853,3.14970000000298],[0.23927083333333338,-0.30999999999999994,3.167499999999997],[0.23177083333333334,-0.29518518518518516,3.1830999999940417],[0.22427083333333328,-0.2803703703703703,3.2000999999940376],[0.25020833333333337,-0.27,3.2163999999910615],[0.25020833333333337,-0.27,3.232999999999997],[0.2752083333333334,-0.2542592592592593,3.2497000000029814],[0.2618750000000001,-0.17481481481481478,3.266799999997019],[0.2271874999999999,-0.13444444444444448,3.2830000000000013],[0.2484375,-0.13277777777777774,3.2997000000029786],[0.2696875000000001,-0.13111111111111112,3.316399999991056]]","[0.0000999999940418661,0.017700000002982108,0.03620000000297807,0.049700000002978584,0.0694999999999979,0.08339999999105885,0.10489999999105493,0.11979999999702073,0.13309999999403743,0.14999999999999858,0.16639999999105726,0.1830999999940417,0.20209999999404005,0.21770000000297784,0.23309999999403885,0.24970000000298143,0.2665000000000006,0.28320000000297796,0.2998999999910552,0.3164999999999978,0.3330999999940403,0.353399999991062,0.3663999999910601,0.38309999999403743,0.4002000000029824,0.4164999999999992,0.4330999999940417,0.44970000000297716,0.4663999999910615,0.4832000000029808,0.4997999999970162,0.5163999999910587,0.5332999999970198,0.5497000000029786,0.5663999999910558,0.5830999999940403,0.5997999999970176,0.6163999999910601,0.6330999999940374,0.6497999999970219,0.6670999999940364,0.6829999999999998,0.6997000000029772,0.7163999999910615,0.7332000000029808,0.7497000000029814,0.7682000000029774,0.7830000000000013,0.7997999999970204,0.8163999999910558,0.8344999999999985,0.8497000000029828,0.8677999999970183,0.8830000000000027,0.8997999999970219,0.9163999999910573,0.9329999999999998,0.949799999997019,0.9663999999910615,0.9830999999940389,0.9997000000029814,1.0163999999910587,1.0333999999910617,1.0497000000029786,1.0663999999910558,1.0829999999999984,1.0997000000029828,1.11639999999106,1.1330999999940374,1.14970000000298,1.1664999999999992,1.1830999999940417,1.1997000000029772,1.2162999999970197,1.2332000000029808,1.2497000000029814,1.2667000000029773,1.283099999994036,1.2997000000029786,1.316299999997021,1.3330999999940403,1.3497000000029828,1.3667000000029788,1.3830000000000027,1.4029999999999987,1.4194999999999993,1.4337999999970208,1.449799999997019,1.4663999999910615,1.4830999999940389,1.4997999999970162,1.5165000000000006,1.533200000002978,1.5497999999970204,1.5667000000029816,1.5829999999999984,1.6015000000000015,1.6165999999940368,1.6332000000029794,1.64970000000298,1.6668999999910596,1.6863999999910604,1.699799999997019,1.7185999999940407,1.7332000000029808,1.752299999997021,1.7675999999940402,1.783099999994036,1.8032999999970158,1.8167000000029816,1.8330999999940403,1.8497999999970176,1.8687000000029812,1.8830000000000027,1.89970000000298,1.9185000000000016,1.9329999999999998,1.949899999991061,1.9697000000029803,1.9834999999999994,1.9997999999970162,2.0165000000000006,2.0364999999999966,2.0497999999970204,2.0667000000029816,2.086399999991059,2.10029999999702,2.116500000000002,2.1332999999970212,2.151899999991059,2.1670000000000016,2.1832000000029765,2.199799999997019,2.2185999999940407,2.234399999991055,2.2515,2.2704999999999984,2.2860000000000014,2.3042000000029788,2.316399999991056,2.3330999999940403,2.354200000002976,2.36639999999106,2.3830999999940374,2.4000999999940404,2.4163999999910573,2.4332000000029765,2.449799999997019,2.4663999999910615,2.483200000002981,2.4997000000029814,2.5167000000029773,2.5330000000000013,2.5497000000029786,2.5690999999940374,2.583399999991059,2.599700000002983,2.61639999999106,2.6330999999940374,2.64970000000298,2.6677000000029807,2.6832999999970184,2.699700000002977,2.7163999999910615,2.733099999994039,2.749799999997016,2.7687000000029798,2.7830000000000013,2.800200000002981,2.816399999991056,2.8330999999940403,2.849700000002983,2.8675999999940416,2.8830000000000027,2.89970000000298,2.9163999999910573,2.933,2.949700000002977,2.966799999997022,2.983099999994039,2.9997000000029814,3.018399999991061,3.033099999994036,3.0497000000029786,3.0675999999940373,3.0830999999940403,3.099599999994041,3.1162999999970182,3.1330999999940374,3.14970000000298,3.167499999999997,3.1830999999940417,3.2000999999940376,3.2163999999910615,3.232999999999997,3.2497000000029814,3.266799999997019,3.2830000000000013,3.2997000000029786,3.316399999991056]","[1733195557004,1733195557021,1733195557039,1733195557053,1733195557072,1733195557086,1733195557108,1733195557123,1733195557136,1733195557153,1733195557169,1733195557186,1733195557205,1733195557221,1733195557236,1733195557253,1733195557269,1733195557286,1733195557303,1733195557319,1733195557336,1733195557356,1733195557369,1733195557386,1733195557403,1733195557419,1733195557436,1733195557453,1733195557469,1733195557486,1733195557503,1733195557519,1733195557536,1733195557553,1733195557569,1733195557586,1733195557603,1733195557619,1733195557636,1733195557653,1733195557670,1733195557686,1733195557703,1733195557719,1733195557736,1733195557753,1733195557771,1733195557786,1733195557803,1733195557819,1733195557837,1733195557853,1733195557871,1733195557886,1733195557903,1733195557919,1733195557936,1733195557953,1733195557969,1733195557986,1733195558003,1733195558019,1733195558036,1733195558053,1733195558069,1733195558086,1733195558103,1733195558119,1733195558136,1733195558153,1733195558169,1733195558186,1733195558203,1733195558219,1733195558236,1733195558253,1733195558270,1733195558286,1733195558303,1733195558319,1733195558336,1733195558353,1733195558370,1733195558386,1733195558406,1733195558423,1733195558437,1733195558453,1733195558469,1733195558486,1733195558503,1733195558519,1733195558536,1733195558553,1733195558570,1733195558586,1733195558604,1733195558619,1733195558636,1733195558653,1733195558670,1733195558689,1733195558703,1733195558722,1733195558736,1733195558755,1733195558771,1733195558786,1733195558806,1733195558820,1733195558836,1733195558853,1733195558872,1733195558886,1733195558903,1733195558921,1733195558936,1733195558953,1733195558973,1733195558986,1733195559003,1733195559019,1733195559039,1733195559053,1733195559070,1733195559089,1733195559103,1733195559119,1733195559136,1733195559155,1733195559170,1733195559186,1733195559203,1733195559221,1733195559237,1733195559254,1733195559273,1733195559289,1733195559307,1733195559319,1733195559336,1733195559357,1733195559369,1733195559386,1733195559403,1733195559419,1733195559436,1733195559453,1733195559469,1733195559486,1733195559503,1733195559520,1733195559536,1733195559553,1733195559572,1733195559586,1733195559603,1733195559619,1733195559636,1733195559653,1733195559671,1733195559686,1733195559703,1733195559719,1733195559736,1733195559753,1733195559772,1733195559786,1733195559803,1733195559819,1733195559836,1733195559853,1733195559870,1733195559886,1733195559903,1733195559919,1733195559936,1733195559953,1733195559970,1733195559986,1733195560003,1733195560021,1733195560036,1733195560053,1733195560071,1733195560086,1733195560103,1733195560119,1733195560136,1733195560153,1733195560170,1733195560186,1733195560203,1733195560219,1733195560236,1733195560253,1733195560270,1733195560286,1733195560303,1733195560319]","[[1464.9,348.9],[1478.1,356.2],[1457,377.5],[1423,375.5],[1423,375.5],[1400.2,376.1],[1392.3,404.2],[1356,448.6],[1305.9,487],[1255.8,525.4],[1330.9,567.2],[1382.7,601.7],[1311.5,628.5],[1360.5,603.5],[1434.8,580.8],[1487.5,555.2],[1542.9,526.7],[1574.9,500.7],[1569.4,517.1],[1569.4,517.1],[1552.4,518],[1462.1,503.2],[1462.1,503.2],[1369.7,486.9],[1369.7,486.9],[1357.7,491.9],[1357.7,491.9],[1250.8,526.6],[1250.8,526.6],[1188.8,547.3],[1188.8,547.3],[1083,587.8],[1000.2,637.8],[966.9,667.8],[954.6,645.2],[953.8,638.1],[937.8,650.1],[923.9,663.6],[961.8,646],[1007.9,649.3],[1009.1,666.6],[1076.6,650.7],[1107,631],[1133.3,611.2],[1176.2,601.7],[1241.9,591.6],[1306.4,570.8],[1349,552.8],[1349,552.8],[1355.7,558.5],[1342.9,552],[1321.9,519.8],[1300,503.9],[1257.2,480.1],[1187,464.7],[1115.6,461.9],[1038.2,476.3],[960.8,490.7],[925.4,460.9],[863.2,440.4],[823.8,407.7],[800,409],[748.8,421.6],[760.9,421.9],[788,429.7],[841.8,411.8],[860.8,389.1],[875.5,361.6],[870.1,375.5],[867.3,398.4],[832.1,427.5],[806.7,441.3],[810,432.4],[782.4,477.5],[782.4,477.5],[773.6,508],[747.2,542.4],[718.8,564.3],[694.7,591],[670.6,617.7],[693.9,601.9],[739.5,589.2],[723.3,588.7],[724.4,593.1],[697,583.9],[708.1,578.5],[712.3,574.9],[753.8,588],[804.1,593.1],[867.7,613.8],[909.5,656.9],[904.9,675.9],[904.9,675.9],[944.9,689.7],[987.5,718.9],[1075,742.9],[1124,763.1],[1151.6,734.2],[1151.6,734.2],[1163.3,706.1],[1164,668.4],[1141.9,612.5],[1152.9,569.6],[1205.9,544.9],[1252.4,490.8],[1295.9,434.4],[1313.5,394.7],[1315.9,336.4],[1335.4,324.2],[1353.8,316.3],[1374.4,326],[1401.8,326.6],[1397.3,326.8],[1416.2,330.9],[1457.5,363.2],[1479.9,385.7],[1502.8,374],[1533.9,366.2],[1568.2,368.7],[1596.1,346.1],[1624,323.5],[1619.5,325.5],[1612.4,316.7],[1576,316.3],[1523.7,317.1],[1482.5,320.1],[1417.9,319.1],[1360.3,332.8],[1275.6,322.2],[1197.1,314.4],[1150.6,327.9],[1139.2,328.5],[1081.8,314.2],[1059.5,313.7],[1000,279.6],[978,274.6],[959.1,243.2],[992.7,220.8],[1037.1,225.3],[1037.1,225.3],[1057.3,235.8],[1057.3,235.8],[1033.6,226.3],[1033.6,226.3],[1058.7,230.7],[1058.7,230.7],[1116.2,243.2],[1116.2,243.2],[1078.2,228.1],[1078.2,228.1],[1132.1,255],[1138.1,253.8],[1129.1,295.3],[1067.6,327.8],[1050.2,345.7],[1043,356.8],[1101.4,362.7],[1032.5,364.7],[1038,357.5],[1086,352.9],[1057.3,354.1],[1039.9,356.3],[1043.3,360.4],[1069.7,365.7],[1068.3,383],[1062.9,391.8],[1009.7,420.3],[1040.5,426.5],[1007.7,446.7],[973.2,479.8],[960.7,498.7],[951.8,492.5],[954.9,474.6],[900.3,466.7],[832.9,459.2],[812.4,475.2],[797.2,462.9],[776.5,462.9],[764,470.1],[786.6,487.6],[799.8,476.2],[840.1,483.4],[880.4,490.6],[908.4,485.4],[949.2,479.8],[1024.1,442.4],[1095.3,417.1],[1134.9,410.2],[1169.1,398.1],[1174.8,370.7],[1189.7,372.6],[1182.5,380.6],[1175.3,388.6],[1200.2,394.2],[1200.2,394.2],[1224.2,402.7],[1211.4,445.6],[1178.1,467.4],[1198.5,468.3],[1218.9,469.2]]","[0,0.37864299999999995]","[0.37864299999999995,0.37864299999999995]","[-0.37864299999999995,-0.37864299999999995]","[-0.37864299999999995,0]","[0,-0.37864299999999995]","[0.37864299999999995,-0.37864299999999995]","[0,0]","[0.37864299999999995,0]",0,1,1,1,1,2,Laptop,13,7,11,1
