inst1_resp.keys,inst1_resp.rt,calibrationMouse.x,calibrationMouse.y,calibrationMouse.leftButton,calibrationMouse.midButton,calibrationMouse.rightButton,calibrationClick.x,calibrationClick.y,calibrationClick.leftButton,calibrationClick.midButton,calibrationClick.rightButton,trialsc.thisRepN,trialsc.thisTrialN,trialsc.thisN,trialsc.thisIndex,trialsc.ran,calibration_x,calibration_y,participant,session,date,expName,psychopyVersion,OS,frameRate,calibrationClick.clicked_name,ScreenRes_pixels,Camera_pixels,mouse_2.x,mouse_2.y,mouse_2.leftButton,mouse_2.midButton,mouse_2.rightButton,mouse_2.time,mouse_2.clicked_name,mouse.x,mouse.y,mouse.leftButton,mouse.midButton,mouse.rightButton,mouse.time,mouse.clicked_name,Choice,Trial,TrialDuration,MOUSE_GAZE,ET_GAZE,ET_GAZE_x_T,time,unixTime,ET_GAZE_NF,Loc_Option1_label,Loc_Option2_label,Loc_Cost_label,Loc_Qual_label,Loc_Option1_cost,Loc_Option2_cost,Loc_Option1_quality,Loc_Option2_quality,trials.thisRepN,trials.thisTrialN,trials.thisN,trials.thisIndex,trials.ran,Block,Device,cost1,qual1,cost2,qual2
space,2.481,0.00625,-0.318518519,1,0,0,0.010416667,-0.318518519,0,0,0,0,0,0,6,1,-0.33,0,33,001,2024-11-28_13h11.03.767,Attention_exp_legacy,2023.1.0,Win32,60.24096386,,,,,,,,,,,,,,,,,,,,,,,,,,,,,,,,,,,,,,,,,,,,,
,,,,,,,0.002083333,0.331481481,1,0,0,0,1,1,12,1,0,0.33,33,001,2024-11-28_13h11.03.767,Attention_exp_legacy,2023.1.0,Win32,60.24096386,calibration_square,,,,,,,,,,,,,,,,,,,,,,,,,,,,,,,,,,,,,,,,,,,,
,,,,,,,-0.669791667,-0.005555556,1,0,0,0,2,2,2,1,-0.67,0,33,001,2024-11-28_13h11.03.767,Attention_exp_legacy,2023.1.0,Win32,60.24096386,calibration_square,,,,,,,,,,,,,,,,,,,,,,,,,,,,,,,,,,,,,,,,,,,,
,,,,,,,-0.00625,-0.674074074,1,0,0,0,3,3,9,1,0,-0.67,33,001,2024-11-28_13h11.03.767,Attention_exp_legacy,2023.1.0,Win32,60.24096386,calibration_square,,,,,,,,,,,,,,,,,,,,,,,,,,,,,,,,,,,,,,,,,,,,
,,,,,,,-0.002083333,0.664814815,1,0,0,0,4,4,13,1,0,0.67,33,001,2024-11-28_13h11.03.767,Attention_exp_legacy,2023.1.0,Win32,60.24096386,calibration_square,,,,,,,,,,,,,,,,,,,,,,,,,,,,,,,,,,,,,,,,,,,,
,,,,,,,0.325,-0.003703704,1,0,0,0,5,5,16,1,0.33,0,33,001,2024-11-28_13h11.03.767,Attention_exp_legacy,2023.1.0,Win32,60.24096386,calibration_square,,,,,,,,,,,,,,,,,,,,,,,,,,,,,,,,,,,,,,,,,,,,
,,,,,,,-0.683333333,0.324074074,1,0,0,0,6,6,3,1,-0.67,0.33,33,001,2024-11-28_13h11.03.767,Attention_exp_legacy,2023.1.0,Win32,60.24096386,,,,,,,,,,,,,,,,,,,,,,,,,,,,,,,,,,,,,,,,,,,,,
,,,,,,,0.327083333,-0.331481481,1,0,0,0,7,7,15,1,0.33,-0.33,33,001,2024-11-28_13h11.03.767,Attention_exp_legacy,2023.1.0,Win32,60.24096386,calibration_square,,,,,,,,,,,,,,,,,,,,,,,,,,,,,,,,,,,,,,,,,,,,
,,,,,,,0.001041667,-0.007407407,1,0,0,0,8,8,11,1,0,0,33,001,2024-11-28_13h11.03.767,Attention_exp_legacy,2023.1.0,Win32,60.24096386,calibration_square,,,,,,,,,,,,,,,,,,,,,,,,,,,,,,,,,,,,,,,,,,,,
,,,,,,,-0.66875,-0.664814815,1,0,0,0,9,9,0,1,-0.67,-0.67,33,001,2024-11-28_13h11.03.767,Attention_exp_legacy,2023.1.0,Win32,60.24096386,calibration_square,,,,,,,,,,,,,,,,,,,,,,,,,,,,,,,,,,,,,,,,,,,,
,,,,,,,0.002083333,-0.335185185,1,0,0,0,10,10,10,1,0,-0.33,33,001,2024-11-28_13h11.03.767,Attention_exp_legacy,2023.1.0,Win32,60.24096386,calibration_square,,,,,,,,,,,,,,,,,,,,,,,,,,,,,,,,,,,,,,,,,,,,
,,,,,,,-0.33125,-0.662962963,1,0,0,0,11,11,4,1,-0.33,-0.67,33,001,2024-11-28_13h11.03.767,Attention_exp_legacy,2023.1.0,Win32,60.24096386,calibration_square,,,,,,,,,,,,,,,,,,,,,,,,,,,,,,,,,,,,,,,,,,,,
,,,,,,,0.676041667,-0.677777778,1,0,0,0,12,12,20,1,0.67,-0.67,33,001,2024-11-28_13h11.03.767,Attention_exp_legacy,2023.1.0,Win32,60.24096386,calibration_square,,,,,,,,,,,,,,,,,,,,,,,,,,,,,,,,,,,,,,,,,,,,
,,,,,,,0.335416667,-0.672222222,1,0,0,0,13,13,14,1,0.33,-0.67,33,001,2024-11-28_13h11.03.767,Attention_exp_legacy,2023.1.0,Win32,60.24096386,calibration_square,,,,,,,,,,,,,,,,,,,,,,,,,,,,,,,,,,,,,,,,,,,,
,,,,,,,-0.332291667,0.32962963,1,0,0,0,14,14,7,1,-0.33,0.33,33,001,2024-11-28_13h11.03.767,Attention_exp_legacy,2023.1.0,Win32,60.24096386,calibration_square,,,,,,,,,,,,,,,,,,,,,,,,,,,,,,,,,,,,,,,,,,,,
,,,,,,,0.329166667,0.331481481,1,0,0,0,15,15,17,1,0.33,0.33,33,001,2024-11-28_13h11.03.767,Attention_exp_legacy,2023.1.0,Win32,60.24096386,calibration_square,,,,,,,,,,,,,,,,,,,,,,,,,,,,,,,,,,,,,,,,,,,,
,,,,,,,0.666666667,0.661111111,1,0,0,0,16,16,19,1,0.67,0.67,33,001,2024-11-28_13h11.03.767,Attention_exp_legacy,2023.1.0,Win32,60.24096386,calibration_square,,,,,,,,,,,,,,,,,,,,,,,,,,,,,,,,,,,,,,,,,,,,
,,,,,,,-0.661458333,-0.333333333,1,0,0,0,17,17,1,1,-0.67,-0.33,33,001,2024-11-28_13h11.03.767,Attention_exp_legacy,2023.1.0,Win32,60.24096386,calibration_square,,,,,,,,,,,,,,,,,,,,,,,,,,,,,,,,,,,,,,,,,,,,
,,,,,,,-0.328125,-0.327777778,1,0,0,0,18,18,5,1,-0.33,-0.33,33,001,2024-11-28_13h11.03.767,Attention_exp_legacy,2023.1.0,Win32,60.24096386,calibration_square,,,,,,,,,,,,,,,,,,,,,,,,,,,,,,,,,,,,,,,,,,,,
,,,,,,,0.33125,0.674074074,1,0,0,0,19,19,18,1,0.33,0.67,33,001,2024-11-28_13h11.03.767,Attention_exp_legacy,2023.1.0,Win32,60.24096386,calibration_square,,,,,,,,,,,,,,,,,,,,,,,,,,,,,,,,,,,,,,,,,,,,
,,,,,,,-0.327083333,0.668518519,1,0,0,0,20,20,8,1,-0.33,0.67,33,001,2024-11-28_13h11.03.767,Attention_exp_legacy,2023.1.0,Win32,60.24096386,calibration_square,,,,,,,,,,,,,,,,,,,,,,,,,,,,,,,,,,,,,,,,,,,,
,,,,,,,,,,,,,,,,,,,33,001,2024-11-28_13h11.03.767,Attention_exp_legacy,2023.1.0,Win32,60.24096386,,"[1920,1080]","[640,480]",[0.01875],[-0.5203703703703704],[1],[0],[0],[3.7474000000059604],"[""StartButton""]",[0.121875],[0.45925925925925926],[1],[0],[0],[7.556199999988081],"[""Option1_label""]",Option1_label,1,8.5727,"[[0.027083333333333334,-0.43333333333333335],[0.027083333333333334,-0.43333333333333335],[0.027083333333333334,-0.43333333333333335],[0.027083333333333334,-0.43333333333333335],[0.027083333333333334,-0.43333333333333335],[0.027083333333333334,-0.43333333333333335],[0.027083333333333334,-0.43333333333333335],[0.027083333333333334,-0.43333333333333335],[0.027083333333333334,-0.43333333333333335],[0.027083333333333334,-0.43333333333333335],[0.027083333333333334,-0.43333333333333335],[0.027083333333333334,-0.43333333333333335],[0.027083333333333334,-0.43333333333333335],[0.027083333333333334,-0.43333333333333335],[0.027083333333333334,-0.43333333333333335],[0.027083333333333334,-0.43333333333333335],[0.027083333333333334,-0.43333333333333335],[0.027083333333333334,-0.43333333333333335],[0.027083333333333334,-0.43333333333333335],[0.027083333333333334,-0.43333333333333335],[0.027083333333333334,-0.43333333333333335],[0.027083333333333334,-0.43333333333333335],[0.027083333333333334,-0.43333333333333335],[0.027083333333333334,-0.43333333333333335],[0.027083333333333334,-0.43333333333333335],[0.027083333333333334,-0.43333333333333335],[0.027083333333333334,-0.43333333333333335],[0.027083333333333334,-0.43333333333333335],[0.027083333333333334,-0.43333333333333335],[0.027083333333333334,-0.43333333333333335],[0.027083333333333334,-0.43333333333333335],[0.027083333333333334,-0.43333333333333335],[0.027083333333333334,-0.43333333333333335],[0.027083333333333334,-0.43333333333333335],[0.027083333333333334,-0.43333333333333335],[0.027083333333333334,-0.43333333333333335],[0.027083333333333334,-0.43333333333333335],[0.027083333333333334,-0.43333333333333335],[0.027083333333333334,-0.43333333333333335],[0.027083333333333334,-0.43333333333333335],[0.027083333333333334,-0.43333333333333335],[0.027083333333333334,-0.43333333333333335],[0.027083333333333334,-0.43333333333333335],[0.027083333333333334,-0.43333333333333335],[0.027083333333333334,-0.43333333333333335],[0.027083333333333334,-0.43333333333333335],[0.027083333333333334,-0.43333333333333335],[0.027083333333333334,-0.43333333333333335],[0.027083333333333334,-0.43333333333333335],[0.027083333333333334,-0.43333333333333335],[0.027083333333333334,-0.43333333333333335],[0.027083333333333334,-0.43333333333333335],[0.027083333333333334,-0.43333333333333335],[0.027083333333333334,-0.43333333333333335],[0.027083333333333334,-0.43333333333333335],[0.027083333333333334,-0.43333333333333335],[0.027083333333333334,-0.43333333333333335],[0.03125,-0.43333333333333335],[0.03229166666666667,-0.4351851851851852],[0.03229166666666667,-0.4351851851851852],[0.03229166666666667,-0.4351851851851852],[0.03229166666666667,-0.4351851851851852],[0.03229166666666667,-0.4351851851851852],[0.035416666666666666,-0.4351851851851852],[0.040625,-0.43703703703703706],[0.042708333333333334,-0.43703703703703706],[0.042708333333333334,-0.43703703703703706],[0.042708333333333334,-0.43703703703703706],[0.042708333333333334,-0.43703703703703706],[0.042708333333333334,-0.43703703703703706],[0.042708333333333334,-0.43703703703703706],[0.042708333333333334,-0.43703703703703706],[0.042708333333333334,-0.43703703703703706],[0.042708333333333334,-0.43703703703703706],[0.042708333333333334,-0.43703703703703706],[0.042708333333333334,-0.43703703703703706],[0.042708333333333334,-0.43703703703703706],[0.042708333333333334,-0.43703703703703706],[0.042708333333333334,-0.43703703703703706],[0.042708333333333334,-0.43703703703703706],[0.042708333333333334,-0.43703703703703706],[0.042708333333333334,-0.43703703703703706],[0.042708333333333334,-0.43703703703703706],[0.042708333333333334,-0.43703703703703706],[0.042708333333333334,-0.43703703703703706],[0.042708333333333334,-0.43703703703703706],[0.042708333333333334,-0.43703703703703706],[0.042708333333333334,-0.43703703703703706],[0.042708333333333334,-0.43703703703703706],[0.042708333333333334,-0.43703703703703706],[0.042708333333333334,-0.43703703703703706],[0.042708333333333334,-0.43703703703703706],[0.042708333333333334,-0.43703703703703706],[0.042708333333333334,-0.43703703703703706],[0.042708333333333334,-0.43703703703703706],[0.042708333333333334,-0.43703703703703706],[0.042708333333333334,-0.43703703703703706],[0.042708333333333334,-0.43703703703703706],[0.042708333333333334,-0.43703703703703706],[0.042708333333333334,-0.43703703703703706],[0.042708333333333334,-0.43703703703703706],[0.042708333333333334,-0.43703703703703706],[0.042708333333333334,-0.43703703703703706],[0.042708333333333334,-0.43703703703703706],[0.042708333333333334,-0.43703703703703706],[0.042708333333333334,-0.43703703703703706],[0.042708333333333334,-0.43703703703703706],[0.042708333333333334,-0.43703703703703706],[0.042708333333333334,-0.43703703703703706],[0.042708333333333334,-0.43703703703703706],[0.042708333333333334,-0.43703703703703706],[0.042708333333333334,-0.43703703703703706],[0.042708333333333334,-0.43703703703703706],[0.042708333333333334,-0.43703703703703706],[0.042708333333333334,-0.43703703703703706],[0.042708333333333334,-0.43703703703703706],[0.042708333333333334,-0.43703703703703706],[0.042708333333333334,-0.43703703703703706],[0.042708333333333334,-0.43703703703703706],[0.042708333333333334,-0.43703703703703706],[0.042708333333333334,-0.43703703703703706],[0.042708333333333334,-0.43703703703703706],[0.042708333333333334,-0.43703703703703706],[0.042708333333333334,-0.43703703703703706],[0.042708333333333334,-0.43703703703703706],[0.042708333333333334,-0.43703703703703706],[0.042708333333333334,-0.43703703703703706],[0.042708333333333334,-0.43703703703703706],[0.042708333333333334,-0.43703703703703706],[0.042708333333333334,-0.43703703703703706],[0.042708333333333334,-0.43703703703703706],[0.042708333333333334,-0.43703703703703706],[0.042708333333333334,-0.43703703703703706],[0.042708333333333334,-0.43703703703703706],[0.042708333333333334,-0.43703703703703706],[0.042708333333333334,-0.43703703703703706],[0.042708333333333334,-0.43703703703703706],[0.042708333333333334,-0.43703703703703706],[0.042708333333333334,-0.43703703703703706],[0.042708333333333334,-0.43703703703703706],[0.042708333333333334,-0.43703703703703706],[0.042708333333333334,-0.43703703703703706],[0.042708333333333334,-0.43703703703703706],[0.042708333333333334,-0.43703703703703706],[0.042708333333333334,-0.43703703703703706],[0.042708333333333334,-0.43703703703703706],[0.042708333333333334,-0.43703703703703706],[0.042708333333333334,-0.43703703703703706],[0.042708333333333334,-0.43703703703703706],[0.042708333333333334,-0.43703703703703706],[0.042708333333333334,-0.43703703703703706],[0.042708333333333334,-0.43703703703703706],[0.042708333333333334,-0.43703703703703706],[0.042708333333333334,-0.43703703703703706],[0.042708333333333334,-0.43703703703703706],[0.042708333333333334,-0.43703703703703706],[0.042708333333333334,-0.43703703703703706],[0.042708333333333334,-0.43703703703703706],[0.042708333333333334,-0.43703703703703706],[0.042708333333333334,-0.43703703703703706],[0.042708333333333334,-0.43703703703703706],[0.042708333333333334,-0.43703703703703706],[0.042708333333333334,-0.43703703703703706],[0.042708333333333334,-0.43703703703703706],[0.042708333333333334,-0.43703703703703706],[0.042708333333333334,-0.43703703703703706],[0.042708333333333334,-0.43703703703703706],[0.042708333333333334,-0.43703703703703706],[0.042708333333333334,-0.43703703703703706],[0.042708333333333334,-0.43703703703703706],[0.042708333333333334,-0.43703703703703706],[0.042708333333333334,-0.43703703703703706],[0.042708333333333334,-0.43703703703703706],[0.042708333333333334,-0.43703703703703706],[0.042708333333333334,-0.43703703703703706],[0.042708333333333334,-0.43703703703703706],[0.042708333333333334,-0.43703703703703706],[0.042708333333333334,-0.43703703703703706],[0.042708333333333334,-0.43703703703703706],[0.042708333333333334,-0.43703703703703706],[0.042708333333333334,-0.43703703703703706],[0.042708333333333334,-0.43703703703703706],[0.042708333333333334,-0.43703703703703706],[0.042708333333333334,-0.43703703703703706],[0.042708333333333334,-0.43703703703703706],[0.042708333333333334,-0.43703703703703706],[0.042708333333333334,-0.4388888888888889],[0.042708333333333334,-0.4388888888888889],[0.042708333333333334,-0.4388888888888889],[0.042708333333333334,-0.4388888888888889],[0.042708333333333334,-0.4388888888888889],[0.042708333333333334,-0.4388888888888889],[0.042708333333333334,-0.4388888888888889],[0.042708333333333334,-0.4388888888888889],[0.042708333333333334,-0.4388888888888889],[0.042708333333333334,-0.4388888888888889],[0.042708333333333334,-0.4388888888888889],[0.042708333333333334,-0.4388888888888889],[0.042708333333333334,-0.4388888888888889],[0.042708333333333334,-0.4388888888888889],[0.042708333333333334,-0.4388888888888889],[0.042708333333333334,-0.4388888888888889],[0.042708333333333334,-0.4388888888888889],[0.042708333333333334,-0.4388888888888889],[0.042708333333333334,-0.4388888888888889],[0.042708333333333334,-0.4388888888888889],[0.042708333333333334,-0.4388888888888889],[0.042708333333333334,-0.4388888888888889],[0.042708333333333334,-0.4388888888888889],[0.042708333333333334,-0.4388888888888889],[0.042708333333333334,-0.4388888888888889],[0.042708333333333334,-0.4388888888888889],[0.042708333333333334,-0.4388888888888889],[0.042708333333333334,-0.4388888888888889],[0.042708333333333334,-0.4388888888888889],[0.042708333333333334,-0.4388888888888889],[0.042708333333333334,-0.4388888888888889],[0.042708333333333334,-0.4388888888888889],[0.042708333333333334,-0.4388888888888889],[0.042708333333333334,-0.4388888888888889],[0.042708333333333334,-0.4388888888888889],[0.042708333333333334,-0.4388888888888889],[0.042708333333333334,-0.4388888888888889],[0.042708333333333334,-0.4388888888888889],[0.042708333333333334,-0.4388888888888889],[0.042708333333333334,-0.4388888888888889],[0.042708333333333334,-0.4388888888888889],[0.042708333333333334,-0.4388888888888889],[0.042708333333333334,-0.4388888888888889],[0.042708333333333334,-0.4388888888888889],[0.042708333333333334,-0.4388888888888889],[0.042708333333333334,-0.4388888888888889],[0.042708333333333334,-0.4388888888888889],[0.042708333333333334,-0.4388888888888889],[0.042708333333333334,-0.4388888888888889],[0.042708333333333334,-0.4388888888888889],[0.042708333333333334,-0.4388888888888889],[0.042708333333333334,-0.4388888888888889],[0.042708333333333334,-0.4388888888888889],[0.042708333333333334,-0.4388888888888889],[0.042708333333333334,-0.4388888888888889],[0.042708333333333334,-0.4388888888888889],[0.042708333333333334,-0.4388888888888889],[0.042708333333333334,-0.4388888888888889],[0.042708333333333334,-0.4388888888888889],[0.042708333333333334,-0.4388888888888889],[0.042708333333333334,-0.4388888888888889],[0.042708333333333334,-0.4388888888888889],[0.042708333333333334,-0.4388888888888889],[0.042708333333333334,-0.4388888888888889],[0.042708333333333334,-0.4388888888888889],[0.042708333333333334,-0.4388888888888889],[0.042708333333333334,-0.4388888888888889],[0.042708333333333334,-0.4388888888888889],[0.042708333333333334,-0.4388888888888889],[0.042708333333333334,-0.4388888888888889],[0.042708333333333334,-0.4388888888888889],[0.042708333333333334,-0.4388888888888889],[0.042708333333333334,-0.4388888888888889],[0.042708333333333334,-0.4388888888888889],[0.042708333333333334,-0.4388888888888889],[0.042708333333333334,-0.4388888888888889],[0.042708333333333334,-0.43703703703703706],[0.04583333333333333,-0.43148148148148147],[0.04895833333333333,-0.42407407407407405],[0.05416666666666667,-0.4148148148148148],[0.057291666666666664,-0.40370370370370373],[0.06666666666666667,-0.3685185185185185],[0.075,-0.3314814814814815],[0.07916666666666666,-0.28888888888888886],[0.08229166666666667,-0.26666666666666666],[0.08854166666666667,-0.21481481481481482],[0.096875,-0.17592592592592593],[0.10104166666666667,-0.16111111111111112],[0.10208333333333333,-0.15555555555555556],[0.10208333333333333,-0.1537037037037037],[0.10208333333333333,-0.1537037037037037],[0.10208333333333333,-0.1537037037037037],[0.10208333333333333,-0.1537037037037037],[0.10208333333333333,-0.1537037037037037],[0.10208333333333333,-0.1537037037037037],[0.10208333333333333,-0.1537037037037037],[0.10208333333333333,-0.1537037037037037],[0.10208333333333333,-0.1537037037037037],[0.10208333333333333,-0.1537037037037037],[0.10208333333333333,-0.1537037037037037],[0.10208333333333333,-0.1537037037037037],[0.10208333333333333,-0.1537037037037037],[0.10208333333333333,-0.1537037037037037],[0.10208333333333333,-0.1537037037037037],[0.10208333333333333,-0.1537037037037037],[0.10208333333333333,-0.1537037037037037],[0.10208333333333333,-0.1537037037037037],[0.10208333333333333,-0.1537037037037037],[0.10208333333333333,-0.1537037037037037],[0.10208333333333333,-0.1537037037037037],[0.10208333333333333,-0.1537037037037037],[0.10208333333333333,-0.1537037037037037],[0.10208333333333333,-0.1537037037037037],[0.10208333333333333,-0.1537037037037037],[0.10208333333333333,-0.1537037037037037],[0.10208333333333333,-0.1537037037037037],[0.10208333333333333,-0.1537037037037037],[0.10208333333333333,-0.1537037037037037],[0.10208333333333333,-0.1537037037037037],[0.10208333333333333,-0.1537037037037037],[0.10208333333333333,-0.1537037037037037],[0.10208333333333333,-0.1537037037037037],[0.10208333333333333,-0.1537037037037037],[0.10208333333333333,-0.1537037037037037],[0.10208333333333333,-0.1537037037037037],[0.10208333333333333,-0.1537037037037037],[0.10208333333333333,-0.15],[0.1,-0.15],[0.1,-0.15],[0.1,-0.15],[0.09895833333333333,-0.14814814814814814],[0.09895833333333333,-0.14814814814814814],[0.1,-0.14629629629629629],[0.1,-0.14629629629629629],[0.10208333333333333,-0.14444444444444443],[0.10208333333333333,-0.1425925925925926],[0.10208333333333333,-0.1425925925925926],[0.10208333333333333,-0.1425925925925926],[0.10416666666666667,-0.1425925925925926],[0.10416666666666667,-0.1425925925925926],[0.10416666666666667,-0.14074074074074075],[0.10520833333333333,-0.14074074074074075],[0.10520833333333333,-0.14074074074074075],[0.10625,-0.1388888888888889],[0.10729166666666666,-0.1388888888888889],[0.10729166666666666,-0.13703703703703704],[0.10833333333333334,-0.13703703703703704],[0.109375,-0.13518518518518519],[0.11041666666666666,-0.13333333333333333],[0.1125,-0.13148148148148148],[0.11354166666666667,-0.12777777777777777],[0.11458333333333333,-0.1259259259259259],[0.115625,-0.1259259259259259],[0.11666666666666667,-0.12222222222222222],[0.11770833333333333,-0.12037037037037036],[0.11875,-0.12037037037037036],[0.12083333333333333,-0.11666666666666667],[0.121875,-0.11481481481481481],[0.121875,-0.11296296296296296],[0.12395833333333334,-0.10925925925925926],[0.125,-0.10555555555555556],[0.12604166666666666,-0.1037037037037037],[0.12604166666666666,-0.1037037037037037],[0.12604166666666666,-0.1037037037037037],[0.12708333333333333,-0.1],[0.12708333333333333,-0.09814814814814815],[0.12708333333333333,-0.09814814814814815],[0.128125,-0.09814814814814815],[0.128125,-0.09814814814814815],[0.128125,-0.09814814814814815],[0.128125,-0.0962962962962963],[0.128125,-0.09444444444444444],[0.128125,-0.09444444444444444],[0.12916666666666668,-0.09259259259259259],[0.12916666666666668,-0.09259259259259259],[0.13020833333333334,-0.09074074074074075],[0.13125,-0.08888888888888889],[0.13125,-0.08703703703703704],[0.13229166666666667,-0.08518518518518518],[0.13541666666666666,-0.07777777777777778],[0.1375,-0.07222222222222222],[0.14375,-0.053703703703703705],[0.146875,-0.044444444444444446],[0.15,-0.03148148148148148],[0.15208333333333332,-0.024074074074074074],[0.15729166666666666,-0.011111111111111112],[0.15833333333333333,-0.001851851851851852],[0.16041666666666668,0.005555555555555556],[0.16354166666666667,0.014814814814814815],[0.16666666666666666,0.027777777777777776],[0.16875,0.03888888888888889],[0.17083333333333334,0.053703703703703705],[0.17291666666666666,0.06851851851851852],[0.17604166666666668,0.08148148148148149],[0.178125,0.09814814814814815],[0.17916666666666667,0.1111111111111111],[0.18020833333333333,0.12962962962962962],[0.18229166666666666,0.15185185185185185],[0.18229166666666666,0.17222222222222222],[0.18229166666666666,0.18888888888888888],[0.18229166666666666,0.20185185185185187],[0.18229166666666666,0.21666666666666667],[0.18229166666666666,0.22962962962962963],[0.18229166666666666,0.24259259259259258],[0.18229166666666666,0.2518518518518518],[0.17916666666666667,0.26481481481481484],[0.175,0.2722222222222222],[0.17291666666666666,0.2814814814814815],[0.17083333333333334,0.28888888888888886],[0.16770833333333332,0.29814814814814816],[0.165625,0.3055555555555556],[0.16354166666666667,0.3111111111111111],[0.16041666666666668,0.31851851851851853],[0.15625,0.3314814814814815],[0.153125,0.3388888888888889],[0.15,0.35185185185185186],[0.146875,0.362962962962963],[0.14479166666666668,0.37037037037037035],[0.14375,0.37592592592592594],[0.14166666666666666,0.3814814814814815],[0.140625,0.387037037037037],[0.13958333333333334,0.3907407407407407],[0.1375,0.3962962962962963],[0.1375,0.4],[0.13541666666666666,0.4074074074074074],[0.134375,0.4111111111111111],[0.13333333333333333,0.4148148148148148],[0.13229166666666667,0.4185185185185185],[0.13229166666666667,0.4203703703703704],[0.13229166666666667,0.4203703703703704],[0.13020833333333334,0.42592592592592593],[0.12916666666666668,0.42962962962962964],[0.12916666666666668,0.43148148148148147],[0.12916666666666668,0.43333333333333335],[0.128125,0.4351851851851852],[0.12708333333333333,0.43703703703703706],[0.12708333333333333,0.43703703703703706],[0.12708333333333333,0.43703703703703706],[0.12708333333333333,0.4388888888888889],[0.12604166666666666,0.4388888888888889],[0.12604166666666666,0.4388888888888889],[0.12604166666666666,0.4388888888888889],[0.12604166666666666,0.44074074074074077],[0.12604166666666666,0.4425925925925926],[0.125,0.4444444444444444],[0.12395833333333334,0.4462962962962963],[0.12395833333333334,0.4462962962962963],[0.12291666666666666,0.45],[0.12291666666666666,0.45],[0.12291666666666666,0.45185185185185184],[0.12291666666666666,0.45185185185185184],[0.12291666666666666,0.45185185185185184],[0.12291666666666666,0.4537037037037037],[0.12291666666666666,0.45555555555555555],[0.12291666666666666,0.45555555555555555],[0.12291666666666666,0.45555555555555555],[0.12291666666666666,0.45740740740740743],[0.12291666666666666,0.45740740740740743],[0.12291666666666666,0.45925925925925926],[0.12291666666666666,0.45925925925925926],[0.12291666666666666,0.45925925925925926],[0.12291666666666666,0.45925925925925926],[0.12291666666666666,0.45925925925925926],[0.12291666666666666,0.45925925925925926],[0.12291666666666666,0.45925925925925926],[0.12291666666666666,0.45925925925925926],[0.121875,0.45925925925925926],[0.121875,0.45925925925925926],[0.121875,0.45925925925925926],[0.121875,0.45925925925925926],[0.121875,0.45925925925925926],[0.121875,0.45925925925925926],[0.121875,0.45925925925925926],[0.121875,0.45925925925925926],[0.121875,0.45925925925925926],[0.121875,0.45925925925925926],[0.121875,0.45925925925925926],[0.121875,0.45925925925925926],[0.121875,0.45925925925925926],[0.121875,0.45925925925925926],[0.121875,0.45925925925925926],[0.121875,0.45925925925925926],[0.121875,0.45925925925925926],[0.121875,0.45925925925925926],[0.121875,0.45925925925925926],[0.121875,0.45925925925925926],[0.121875,0.45925925925925926],[0.121875,0.45925925925925926],[0.121875,0.45925925925925926],[0.121875,0.45925925925925926],[0.121875,0.45925925925925926],[0.121875,0.45925925925925926],[0.121875,0.45925925925925926],[0.121875,0.45925925925925926],[0.121875,0.45925925925925926],[0.121875,0.45925925925925926],[0.121875,0.45925925925925926],[0.121875,0.45925925925925926],[0.121875,0.45925925925925926],[0.121875,0.45925925925925926],[0.121875,0.45925925925925926],[0.121875,0.45925925925925926],[0.121875,0.45925925925925926],[0.121875,0.45925925925925926],[0.121875,0.45925925925925926],[0.121875,0.45925925925925926],[0.121875,0.45925925925925926],[0.121875,0.45925925925925926],[0.121875,0.45925925925925926],[0.121875,0.45925925925925926],[0.121875,0.45925925925925926],[0.121875,0.45925925925925926],[0.121875,0.45925925925925926],[0.121875,0.45925925925925926],[0.121875,0.45925925925925926],[0.121875,0.45925925925925926],[0.121875,0.45925925925925926],[0.121875,0.45925925925925926],[0.121875,0.45925925925925926],[0.121875,0.45925925925925926],[0.121875,0.45925925925925926],[0.121875,0.45925925925925926],[0.121875,0.45925925925925926],[0.121875,0.45925925925925926],[0.121875,0.45925925925925926],[0.121875,0.45925925925925926],[0.121875,0.45925925925925926],[0.121875,0.45925925925925926]]","[[0.02781250000000005,0.11629629629629622],[0.02781250000000005,0.11629629629629622],[0.0026041666666666665,0.10981481481481473],[0.018229166666666668,0.05981481481481473],[0.08947916666666676,-0.005185185185185101],[0.0974999999999999,0.021481481481481525],[0.13864583333333325,-0.06759259259259259],[0.15583333333333324,-0.06870370370370374],[0.15,-0.13537037037037042],[0.1178124999999999,-0.15092592592592594],[0.09479166666666666,-0.2477777777777778],[0.03427083333333331,-0.17888888888888893],[0.03322916666666664,-0.2644444444444445],[0.005833333333333357,-0.28203703703703703],[-0.0907291666666667,-0.30648148148148147],[-0.18385416666666668,-0.34],[-0.240625,-0.36129629629629634],[-0.2842708333333333,-0.3622222222222223],[-0.28854166666666664,-0.35833333333333334],[-0.26187499999999997,-0.4388888888888889],[-0.27062499999999995,-0.44833333333333336],[-0.26760416666666664,-0.517962962962963],[-0.26760416666666664,-0.517962962962963],[-0.28572916666666665,-0.4938888888888889],[-0.28375,-0.4398148148148148],[-0.2669791666666666,-0.41944444444444445],[-0.24260416666666665,-0.39592592592592596],[-0.2515625,-0.372037037037037],[-0.27458333333333335,-0.287962962962963],[-0.27458333333333335,-0.287962962962963],[-0.2720833333333334,-0.3085185185185186],[-0.2720833333333334,-0.3085185185185186],[-0.27791666666666665,-0.24148148148148144],[-0.26687500000000003,-0.22037037037037038],[-0.2794791666666666,-0.20259259259259255],[-0.296875,-0.19314814814814818],[-0.3015625,-0.15351851851851847],[-0.3102083333333333,-0.15685185185185183],[-0.33093750000000005,-0.1331481481481481],[-0.3592708333333333,-0.12629629629629627],[-0.3741666666666667,-0.1935185185185185],[-0.4013541666666666,-0.15833333333333333],[-0.4289583333333333,-0.1633333333333333],[-0.4583333333333333,-0.0948148148148148],[-0.45625,-0.010185185185185186],[-0.44906250000000003,-0.01444444444444436],[-0.5088541666666667,-0.060555555555555536],[-0.564375,-0.04666666666666675],[-0.5645833333333333,-0.018703703703703747],[-0.588125,-0.03611111111111111],[-0.6054166666666667,-0.024814814814814772],[-0.6194791666666667,-0.03814814814814819],[-0.6503125,-0.06185185185185181],[-0.6775,-0.12518518518518523],[-0.6976041666666667,-0.1418518518518519],[-0.7140625,-0.08333333333333333],[-0.6819791666666667,-0.04314814814814806],[-0.6565624999999999,-0.019444444444444445],[-0.6092708333333333,-0.029259259259259176],[-0.530625,0.02833333333333325],[-0.48822916666666666,0.0455555555555556],[-0.45718749999999997,0.09611111111111106],[-0.39302083333333326,0.14462962962962966],[-0.3376041666666667,0.22018518518518515],[-0.2819791666666667,0.21388888888888888],[-0.23666666666666672,0.2272222222222223],[-0.15958333333333338,0.19703703703703698],[-0.07739583333333329,0.22185185185185177],[-0.09187500000000005,0.22444444444444453],[-0.1063541666666667,0.2270370370370371],[-0.08614583333333338,0.2603703703703704],[-0.0578125,0.285],[-0.05427083333333336,0.2735185185185186],[-0.06135416666666664,0.30055555555555546],[-0.06197916666666667,0.3114814814814816],[-0.0626041666666667,0.3224074074074075],[-0.025416666666666643,0.3248148148148148],[0.011770833333333286,0.3272222222222223],[0.057083333333333285,0.3242592592592593],[0.10239583333333328,0.3212962962962963],[0.1798958333333334,0.28055555555555556],[0.2573958333333332,0.23981481481481481],[0.2573958333333332,0.23981481481481481],[0.30614583333333345,0.23870370370370367],[0.39375,0.19888888888888884],[0.47208333333333335,0.18481481481481474],[0.5169791666666667,0.15240740740740732],[0.5169791666666667,0.15240740740740732],[0.49729166666666674,0.13518518518518519],[0.4569791666666667,0.1485185185185186],[0.4253124999999999,0.18203703703703694],[0.3814583333333334,0.2125925925925925],[0.3042708333333332,0.25388888888888894],[0.2537499999999999,0.256111111111111],[0.2526041666666667,0.24518518518518514],[0.221875,0.2131481481481482],[0.16802083333333329,0.22111111111111106],[0.14020833333333324,0.23037037037037034],[0.14020833333333324,0.23037037037037034],[0.11239583333333343,0.23962962962962958],[0.09364583333333343,0.20999999999999996],[0.08927083333333338,0.175],[0.09937500000000009,0.2146296296296296],[0.09052083333333343,0.25092592592592594],[0.06937499999999991,0.39277777777777784],[0.02645833333333331,0.524074074074074],[-0.010520833333333358,0.6625925925925925],[-0.024374999999999977,0.7611111111111111],[-0.034062500000000044,0.8942592592592592],[-0.04458333333333329,1.0177777777777777],[-0.024062500000000025,1.1387037037037038],[-0.003541666666666643,1.2596296296296297],[0.03875000000000005,1.3420370370370371],[0.07458333333333324,1.4496296296296296],[0.059895833333333336,1.4514814814814814],[0.059895833333333336,1.4514814814814814],[0.08479166666666677,1.4344444444444442],[0.12666666666666657,1.4383333333333335],[0.15,1.3961111111111113],[0.1775000000000001,1.3661111111111113],[0.22041666666666657,1.3124074074074075],[0.2259375000000001,1.2724074074074072],[0.23145833333333338,1.2324074074074074],[0.21291666666666675,1.1592592592592592],[0.17322916666666663,1.0520370370370369],[0.17322916666666663,1.0520370370370369],[0.1696875000000001,0.9840740740740742],[0.12854166666666675,0.9201851851851853],[0.12854166666666675,0.9201851851851853],[0.07572916666666671,0.8542592592592592],[0.03718750000000005,0.7742592592592593],[-0.0010416666666666667,0.6651851851851853],[-0.04656250000000005,0.5905555555555555],[-0.07416666666666671,0.5131481481481482],[-0.08145833333333338,0.42740740740740735],[-0.08145833333333338,0.42740740740740735],[-0.11479166666666671,0.3864814814814816],[-0.11479166666666671,0.3864814814814816],[-0.11895833333333337,0.3242592592592593],[-0.11895833333333337,0.3242592592592593],[-0.15427083333333336,0.19944444444444454],[-0.15427083333333336,0.19944444444444454],[-0.21468750000000003,0.12981481481481486],[-0.21468750000000003,0.12981481481481486],[-0.27718750000000003,0.0764814814814814],[-0.27718750000000003,0.0764814814814814],[-0.33947916666666667,0.055740740740740785],[-0.40979166666666667,0.06870370370370374],[-0.4875,0.040370370370370286],[-0.5591666666666666,0.03981481481481482],[-0.6476041666666668,0.032407407407407406],[-0.7100000000000001,-0.0198148148148149],[-0.7844791666666667,-0.029814814814814856],[-0.8278125000000001,0.022777777777777692],[-0.825,-0.027407407407407325],[-0.8361458333333334,-0.04277777777777782],[-0.7814583333333334,-0.01796296296296305],[-0.7046875,-0.05703703703703706],[-0.5673958333333334,-0.06518518518518517],[-0.43416666666666665,-0.15851851851851856],[-0.3376041666666667,-0.12259259259259257],[-0.24114583333333334,-0.08277777777777776],[-0.13510416666666672,-0.0824074074074074],[-0.02166666666666662,-0.0801851851851852],[0.04624999999999998,-0.004444444444444402],[0.13770833333333338,-0.0014814814814813973],[0.1609375,0.005740740740740783],[0.1662499999999999,0.051666666666666625],[0.10864583333333329,0.09240740740740737],[0.05791666666666669,0.17962962962962964],[0.04468749999999998,0.14962962962962956],[0.03604166666666669,0.11074074074074065],[0.03125,0.10055555555555547],[-0.0005208333333333333,0.09055555555555551],[0.022708333333333285,0.12240740740740745],[0.03302083333333338,0.1557407407407408],[0.044375000000000026,0.19444444444444445],[0.058541666666666714,0.19870370370370363],[0.09322916666666667,0.19222222222222213],[0.10281250000000004,0.21333333333333343],[0.10822916666666677,0.24537037037037038],[0.10916666666666662,0.2824074074074074],[0.08729166666666661,0.29555555555555557],[0.09583333333333334,0.3514814814814814],[0.05656249999999995,0.28592592592592586],[0.04520833333333331,0.27092592592592585],[0.02166666666666662,0.28481481481481474],[0.018229166666666668,0.2890740740740741],[-0.02822916666666669,0.29499999999999993],[-0.058437500000000024,0.28425925925925927],[-0.08125,0.2492592592592593],[-0.09708333333333338,0.2544444444444444],[-0.13770833333333338,0.32259259259259265],[-0.18916666666666668,0.34592592592592586],[-0.21864583333333332,0.42685185185185187],[-0.26291666666666663,0.3875925925925925],[-0.3071875,0.3633333333333334],[-0.3616666666666667,0.37759259259259254],[-0.3977083333333333,0.3603703703703704],[-0.43374999999999997,0.3431481481481481],[-0.4715625,0.3853703703703704],[-0.5066666666666666,0.39148148148148143],[-0.5045833333333333,0.38000000000000006],[-0.501875,0.33481481481481473],[-0.5138541666666667,0.2574074074074074],[-0.5467708333333333,0.2505555555555555],[-0.5646875,0.202962962962963],[-0.5723958333333333,0.20722222222222217],[-0.5768749999999999,0.18055555555555555],[-0.595625,0.22685185185185186],[-0.6063541666666666,0.2037037037037037],[-0.6148958333333333,0.23333333333333334],[-0.6285416666666667,0.16055555555555565],[-0.6428125,0.12148148148148152],[-0.6553125000000001,0.1485185185185186],[-0.6363541666666667,0.22333333333333338],[-0.625,0.1962962962962963],[-0.6309375,0.1603703703703704],[-0.6284375,0.1905555555555555],[-0.5911458333333334,0.18129629629629626],[-0.580625,0.1418518518518519],[-0.5810416666666666,0.10759259259259263],[-0.596875,0.13259259259259262],[-0.6164583333333333,0.13759259259259252],[-0.6115625,0.11222222222222226],[-0.6103124999999999,0.1388888888888889],[-0.5850000000000001,0.16203703703703703],[-0.5742708333333333,0.1866666666666666],[-0.5955208333333334,0.21592592592592597],[-0.6197916666666666,0.21870370370370373],[-0.65125,0.23148148148148148],[-0.6496875000000001,0.23370370370370377],[-0.643125,0.25018518518518523],[-0.6128125,0.28296296296296286],[-0.6214583333333333,0.3101851851851852],[-0.6283333333333334,0.2168518518518519],[-0.6744791666666666,0.23648148148148157],[-0.7132291666666667,0.19685185185185178],[-0.7116666666666667,0.18851851851851845],[-0.7128125,0.21148148148148158],[-0.7067708333333333,0.23296296296296287],[-0.7073958333333333,0.2101851851851852],[-0.7065625,0.21370370370370367],[-0.7226041666666667,0.25462962962962965],[-0.715,0.25203703703703706],[-0.724375,0.2433333333333333],[-0.7008333333333333,0.20851851851851855],[-0.6840625,0.20203703703703707],[-0.6896875,0.23481481481481473],[-0.6836458333333333,0.24222222222222214],[-0.6636458333333334,0.2601851851851852],[-0.6694791666666667,0.21370370370370367],[-0.675,0.17185185185185176],[-0.6836458333333333,0.0962962962962963],[-0.6880208333333333,0.07018518518518514],[-0.7054166666666667,0.0824074074074074],[-0.7336458333333333,0.13185185185185194],[-0.7509374999999999,0.16407407407407412],[-0.7516666666666667,0.08555555555555563],[-0.7788541666666667,-0.00592592592592601],[-0.8023958333333333,-0.05611111111111113],[-0.8273958333333333,-0.049074074074074076],[-0.8273958333333333,-0.049074074074074076],[-0.7661458333333333,-0.000925925925925926],[-0.6514583333333334,0.05907407407407403],[-0.5367708333333333,0.12037037037037036],[-0.4435416666666666,0.1735185185185186],[-0.34697916666666667,0.18259259259259264],[-0.27145833333333336,0.16425925925925935],[-0.18822916666666673,0.27444444444444455],[-0.18822916666666673,0.27444444444444455],[-0.10427083333333335,0.3942592592592592],[-0.008020833333333382,0.497037037037037],[0.08052083333333329,0.5338888888888889],[0.07885416666666671,0.5937037037037037],[0.02374999999999995,0.6416666666666667],[0.02374999999999995,0.6416666666666667],[-0.013020833333333334,0.6298148148148148],[-0.0067708333333333336,0.6225925925925927],[-0.0067708333333333336,0.6225925925925927],[-0.029375000000000047,0.5903703703703703],[-0.030520833333333285,0.6388888888888888],[-0.0484375,0.6077777777777779],[-0.06708333333333331,0.5670370370370371],[-0.08322916666666665,0.5453703703703704],[-0.09166666666666666,0.5896296296296296],[-0.09166666666666666,0.5896296296296296],[-0.08229166666666667,0.5657407407407408],[-0.08229166666666667,0.5657407407407408],[-0.08229166666666667,0.5657407407407408],[-0.09520833333333331,0.5459259259259258],[-0.10552083333333329,0.5583333333333333],[-0.16364583333333335,0.590925925925926],[-0.1929166666666667,0.6485185185185186],[-0.1935416666666666,0.6292592592592592],[-0.19375,0.6242592592592593],[-0.2063541666666667,0.5907407407407408],[-0.22427083333333328,0.585],[-0.2727083333333333,0.5420370370370371],[-0.2959375,0.48481481481481475],[-0.24874999999999994,0.4094444444444445],[-0.24874999999999994,0.4094444444444445],[-0.2782291666666667,0.39574074074074084],[-0.2782291666666667,0.39574074074074084],[-0.26593749999999994,0.3725925925925927],[-0.24416666666666664,0.31370370370370365],[-0.23177083333333334,0.32759259259259255],[-0.21833333333333335,0.3337037037037038],[-0.2352083333333333,0.3861111111111111],[-0.24593750000000003,0.38259259259259265],[-0.19020833333333337,0.37222222222222223],[-0.14937499999999998,0.36018518518518516],[-0.1710416666666667,0.39296296296296307],[-0.1710416666666667,0.39296296296296307],[-0.1486458333333334,0.34148148148148144],[-0.1486458333333334,0.34148148148148144],[-0.09572916666666664,0.2874074074074075],[-0.09572916666666664,0.2874074074074075],[-0.11479166666666671,0.32592592592592595],[-0.11479166666666671,0.32592592592592595],[-0.1655208333333333,0.3235185185185186],[-0.1655208333333333,0.3235185185185186],[-0.1453125,0.29314814814814805],[-0.1453125,0.29314814814814805],[-0.134375,0.21185185185185182],[-0.134375,0.21185185185185182],[-0.08500000000000002,0.20388888888888893],[-0.0984375,0.21796296296296305],[-0.13374999999999998,0.2301851851851851],[-0.128125,0.19148148148148145],[-0.0782291666666667,0.15759259259259265],[-0.06302083333333333,0.12555555555555548],[0.0007291666666667141,0.046296296296296294],[0.06854166666666663,0.015000000000000043],[0.08562500000000005,-0.0022222222222223064],[0.1546875,0.013703703703703662],[0.14593749999999991,-0.04277777777777782],[0.18385416666666668,-0.048333333333333374],[0.24364583333333342,-0.052037037037037076],[0.2768749999999999,-0.03555555555555564],[0.27229166666666677,0.025370370370370456],[0.27145833333333325,0.07666666666666662],[0.26614583333333336,0.10907407407407403],[0.24604166666666671,0.0837037037037038],[0.24770833333333328,0.06351851851851843],[0.24072916666666658,0.04759259259259268],[0.24083333333333337,0.07314814814814814],[0.2203125,0.06666666666666667],[0.22177083333333342,0.0455555555555556],[0.22322916666666662,0.02444444444444453],[0.22020833333333342,0.03925925925925934],[0.19979166666666662,0.040370370370370286],[0.22010416666666663,0.0551851851851851],[0.2631249999999999,0.07148148148148152],[0.26614583333333336,0.08129629629629626],[0.2778125000000001,0.0868518518518518],[0.3071875000000001,0.08425925925925926],[0.30750000000000005,0.08333333333333333],[0.3180208333333333,0.0911111111111112],[0.3285416666666668,0.09888888888888885],[0.3141666666666666,0.0257407407407407],[0.3076041666666666,-0.0011111111111111532],[0.30447916666666663,0.012222222222222264],[0.3016666666666666,-0.007592592592592635],[0.2700000000000001,-0.03555555555555564],[0.23833333333333329,-0.06351851851851854],[0.21604166666666677,-0.0742592592592593],[0.2205208333333334,-0.09129629629629632],[0.15677083333333333,-0.0735185185185185],[0.09302083333333329,-0.055740740740740785],[0.06937499999999991,0.036481481481481566],[0.07833333333333338,0.055740740740740785],[0.06197916666666667,-0.03148148148148148],[0.0453125,-0.08555555555555554],[0.04697916666666669,-0.058333333333333334],[0.05791666666666669,-0.031111111111111027],[0.04583333333333333,-0.012222222222222264],[0.03687499999999998,0.01444444444444436],[0.04041666666666662,0.009814814814814731],[0.043958333333333384,0.005185185185185101],[0.09135416666666671,-0.09870370370370372],[0.11604166666666677,-0.14685185185185187],[0.11604166666666677,-0.14685185185185187],[0.11958333333333329,-0.12759259259259256],[0.11124999999999995,-0.07851851851851847],[0.11145833333333334,-0.08740740740740739],[0.11697916666666662,-0.13444444444444448],[0.1304166666666667,-0.2022222222222222],[0.14427083333333332,-0.26666666666666666],[0.14427083333333332,-0.26666666666666666],[0.17770833333333325,-0.3066666666666667],[0.1618750000000001,-0.3264814814814815],[0.13072916666666667,-0.2903703703703704],[0.09552083333333337,-0.25999999999999995],[0.08562500000000005,-0.25574074074074077],[0.08760416666666657,-0.28129629629629627],[0.09375,-0.30388888888888893],[0.09270833333333334,-0.267037037037037],[0.0678124999999999,-0.27518518518518525],[0.044062499999999956,-0.2462962962962963],[-0.03937499999999995,-0.20703703703703705],[-0.07354166666666669,-0.18796296296296297],[-0.09781249999999998,-0.1824074074074074],[-0.12208333333333338,-0.17685185185185184],[-0.1326041666666666,-0.15333333333333335],[-0.14312499999999997,-0.12981481481481486],[-0.15239583333333329,-0.14203703703703702],[-0.1658333333333334,-0.15833333333333333],[-0.13270833333333332,-0.1588888888888889],[-0.10843750000000002,-0.1588888888888889],[-0.02052083333333338,-0.19129629629629633],[0.06739583333333338,-0.22370370370370374],[0.10979166666666676,-0.23018518518518521],[0.1484375,-0.23074074074074077],[0.14645833333333325,-0.2572222222222222],[0.14645833333333325,-0.2572222222222222],[0.1397916666666667,-0.26370370370370366],[0.15010416666666657,-0.2462962962962963],[0.19416666666666677,-0.28296296296296297],[0.21552083333333344,-0.2903703703703704],[0.21052083333333324,-0.32703703703703707],[0.2055208333333333,-0.36370370370370364],[0.18104166666666663,-0.39759259259259255],[0.15656249999999997,-0.43148148148148147],[0.1931250000000001,-0.4890740740740741],[0.2091666666666666,-0.49425925925925923],[0.22000000000000006,-0.5385185185185185],[0.21041666666666667,-0.5355555555555556],[0.14854166666666657,-0.508888888888889],[0.10968749999999995,-0.4883333333333333],[0.09916666666666671,-0.46407407407407414],[0.08864583333333324,-0.4398148148148148],[0.01395833333333331,-0.38870370370370366],[-0.06072916666666662,-0.3375925925925926],[-0.13187500000000002,-0.30925925925925923],[-0.16020833333333329,-0.30481481481481487],[-0.17906249999999999,-0.2711111111111111],[-0.1998958333333333,-0.2757407407407407],[-0.17562500000000003,-0.29888888888888887],[-0.17562500000000003,-0.29888888888888887],[-0.17583333333333329,-0.30037037037037034],[-0.14458333333333329,-0.33185185185185184],[-0.14458333333333329,-0.33185185185185184],[-0.1330208333333334,-0.36444444444444446],[-0.03427083333333331,-0.42888888888888893],[0.06447916666666664,-0.4933333333333333],[0.08031249999999991,-0.48814814814814816],[0.09614583333333329,-0.482962962962963],[0.09614583333333329,-0.482962962962963],[0.14187500000000006,-0.49444444444444446],[0.22291666666666668,-0.5122222222222222],[0.24708333333333338,-0.509074074074074],[0.23802083333333332,-0.5135185185185185],[0.23802083333333332,-0.5135185185185185],[0.24083333333333337,-0.517962962962963],[0.2633333333333333,-0.5212962962962963],[0.275,-0.5662962962962963],[0.28802083333333334,-0.557962962962963],[0.32312500000000005,-0.5787037037037037],[0.35822916666666677,-0.5994444444444444],[0.3556250000000001,-0.645],[0.3177083333333333,-0.6842592592592592],[0.29677083333333343,-0.687962962962963],[0.31052083333333325,-0.6996296296296296],[0.30322916666666655,-0.7124074074074074],[0.2959374999999999,-0.7251851851851853],[0.2942708333333333,-0.6661111111111111],[0.2912499999999999,-0.6603703703703704],[0.2690624999999999,-0.6438888888888888],[0.278125,-0.659074074074074],[0.28093750000000006,-0.5948148148148148],[0.2946875000000001,-0.5418518518518519],[0.34500000000000003,-0.5824074074074074],[0.3632291666666667,-0.5746296296296296],[0.3632291666666667,-0.5787037037037037],[0.3632291666666667,-0.5827777777777777],[0.34135416666666674,-0.6142592592592593],[0.32083333333333336,-0.6516666666666666],[0.33708333333333323,-0.695925925925926],[0.33708333333333323,-0.695925925925926],[0.31885416666666655,-0.71],[0.29656250000000006,-0.7596296296296297],[0.2633333333333333,-0.7979629629629629],[0.24749999999999991,-0.7957407407407407],[0.24333333333333323,-0.8298148148148149],[0.24208333333333343,-0.837037037037037],[0.22072916666666675,-0.8114814814814815],[0.22291666666666668,-0.7864814814814814],[0.22000000000000006,-0.7794444444444444],[0.2021874999999999,-0.7777777777777778],[0.19562499999999997,-0.7681481481481481],[0.19562499999999997,-0.7681481481481481],[0.19104166666666675,-0.7857407407407407],[0.21197916666666666,-0.7972222222222223],[0.19947916666666668,-0.7757407407407407],[0.20739583333333325,-0.7662962962962964],[0.19364583333333343,-0.7557407407407408],[0.19364583333333343,-0.7557407407407408],[0.2,-0.777962962962963],[0.21604166666666677,-0.8061111111111111],[0.23187499999999991,-0.8127777777777777],[0.24500000000000005,-0.8179629629629629],[0.24500000000000005,-0.8179629629629629],[0.22177083333333342,-0.7942592592592592],[0.21583333333333338,-0.7718518518518519],[0.18718750000000003,-0.7118518518518518],[0.1877083333333334,-0.7262962962962963],[0.1877083333333334,-0.7262962962962963],[0.175,-0.7648148148148148],[0.175,-0.7648148148148148],[0.18552083333333325,-0.7640740740740741],[0.18552083333333325,-0.7640740740740741],[0.19333333333333325,-0.7764814814814816],[0.19333333333333325,-0.7764814814814816]]","[[0.02781250000000005,0.11629629629629622,0.0003000000119186552],[0.02781250000000005,0.11629629629629622,0.039400000005962],[0.0026041666666666665,0.10981481481481473,0.05609999999403925],[0.018229166666666668,0.05981481481481473,0.07269999998808174],[0.08947916666666676,-0.005185185185185101,0.08950000000000102],[0.0974999999999999,0.021481481481481525,0.10699999999999932],[0.13864583333333325,-0.06759259259259259,0.12299999999999756],[0.15583333333333324,-0.06870370370370374,0.14219999998807964],[0.15,-0.13537037037037042,0.15850000000000364],[0.1178124999999999,-0.15092592592592594,0.17269999998807606],[0.09479166666666666,-0.2477777777777778,0.18940000000596058],[0.03427083333333331,-0.17888888888888893,0.20609999999403783],[0.03322916666666664,-0.2644444444444445,0.22290000000596422],[0.005833333333333357,-0.28203703703703703,0.24169999998807867],[-0.0907291666666667,-0.30648148148148147,0.2560000000000002],[-0.18385416666666668,-0.34,0.2726999999880775],[-0.240625,-0.36129629629629634,0.289400000005962],[-0.2842708333333333,-0.3622222222222223,0.30609999999403925],[-0.28854166666666664,-0.35833333333333334,0.3235000000000028],[-0.26187499999999997,-0.4388888888888889,0.3416999999880801],[-0.27062499999999995,-0.44833333333333336,0.35859999999404124],[-0.26760416666666664,-0.517962962962963,0.37400000000000233],[-0.26760416666666664,-0.517962962962963,0.38959999999404005],[-0.28572916666666665,-0.4938888888888889,0.4060999999940407],[-0.28375,-0.4398148148148148,0.4239000000059576],[-0.2669791666666666,-0.41944444444444445,0.44109999999403726],[-0.24260416666666665,-0.39592592592592596,0.45609999999403783],[-0.2515625,-0.372037037037037,0.4729000000059642],[-0.27458333333333335,-0.287962962962963,0.48940000000595774],[-0.27458333333333335,-0.287962962962963,0.5083000000119213],[-0.2720833333333334,-0.3085185185185186,0.5278000000119221],[-0.2720833333333334,-0.3085185185185186,0.539400000005962],[-0.27791666666666665,-0.24148148148148144,0.5560999999940393],[-0.26687500000000003,-0.22037037037037038,0.5726999999880817],[-0.2794791666666666,-0.20259259259259255,0.5894000000059592],[-0.296875,-0.19314814814814818,0.6060000000000016],[-0.3015625,-0.15351851851851847,0.6230999999940394],[-0.3102083333333333,-0.15685185185185183,0.6420999999940378],[-0.33093750000000005,-0.1331481481481481,0.6560999999940407],[-0.3592708333333333,-0.12629629629629627,0.6726999999880761],[-0.3741666666666667,-0.1935185185185185,0.6894000000059606],[-0.4013541666666666,-0.15833333333333333,0.7060999999940378],[-0.4289583333333333,-0.1633333333333333,0.722999999999999],[-0.4583333333333333,-0.0948148148148148,0.7394999999999996],[-0.45625,-0.010185185185185186,0.7560999999940421],[-0.44906250000000003,-0.01444444444444436,0.7754000000059591],[-0.5088541666666667,-0.060555555555555536,0.7893000000119201],[-0.564375,-0.04666666666666675,0.8060999999940393],[-0.5645833333333333,-0.018703703703703747,0.8229000000059585],[-0.588125,-0.03611111111111111,0.8394000000059592],[-0.6054166666666667,-0.024814814814814772,0.8560000000000016],[-0.6194791666666667,-0.03814814814814819,0.8728000000119209],[-0.6503125,-0.06185185185185181,0.8894000000059634],[-0.6775,-0.12518518518518523,0.9060999999940407],[-0.6976041666666667,-0.1418518518518519,0.9234999999999971],[-0.7140625,-0.08333333333333333,0.941400000005963],[-0.6819791666666667,-0.04314814814814806,0.9560999999940378],[-0.6565624999999999,-0.019444444444444445,0.9770999999940386],[-0.6092708333333333,-0.029259259259259176,0.9919999999999973],[-0.530625,0.02833333333333325,1.0068000000119213],[-0.48822916666666666,0.0455555555555556,1.0228000000119195],[-0.45718749999999997,0.09611111111111106,1.040099999994041],[-0.39302083333333326,0.14462962962962966,1.0560999999940393],[-0.3376041666666667,0.22018518518518515,1.0756999999880819],[-0.2819791666666667,0.21388888888888888,1.0900999999940382],[-0.23666666666666672,0.2272222222222223,1.1081999999880807],[-0.15958333333333338,0.19703703703703698,1.123400000005958],[-0.07739583333333329,0.22185185185185177,1.139699999988082],[-0.09187500000000005,0.22444444444444453,1.1560999999940407],[-0.1063541666666667,0.2270370370370371,1.173499999999997],[-0.08614583333333338,0.2603703703703704,1.1894000000059606],[-0.0578125,0.285,1.206000000000003],[-0.05427083333333336,0.2735185185185186,1.22530000001192],[-0.06135416666666664,0.30055555555555546,1.2429000000059602],[-0.06197916666666667,0.3114814814814816,1.2561999999880769],[-0.0626041666666667,0.3224074074074075,1.2726999999880775],[-0.025416666666666643,0.3248148148148148,1.2895999999940386],[0.011770833333333286,0.3272222222222223,1.3069000000059603],[0.057083333333333285,0.3242592592592593,1.323300000011919],[0.10239583333333328,0.3212962962962963,1.3424000000059593],[0.1798958333333334,0.28055555555555556,1.3560999999940364],[0.2573958333333332,0.23981481481481481,1.3729999999999976],[0.2573958333333332,0.23981481481481481,1.3894999999999982],[0.30614583333333345,0.23870370370370367,1.4060999999940407],[0.39375,0.19888888888888884,1.4234000000059623],[0.47208333333333335,0.18481481481481474,1.439699999988079],[0.5169791666666667,0.15240740740740732,1.4560999999940378],[0.5169791666666667,0.15240740740740732,1.4726999999880803],[0.49729166666666674,0.13518518518518519,1.489300000011923],[0.4569791666666667,0.1485185185185186,1.5095999999940375],[0.4253124999999999,0.18203703703703694,1.5249000000059638],[0.3814583333333334,0.2125925925925925,1.5425999999940387],[0.3042708333333332,0.25388888888888894,1.5586999999880788],[0.2537499999999999,0.256111111111111,1.573199999988077],[0.2526041666666667,0.24518518518518514,1.5894000000059592],[0.221875,0.2131481481481482,1.6060999999940364],[0.16802083333333329,0.22111111111111106,1.6249000000059581],[0.14020833333333324,0.23037037037037034,1.6435999999940378],[0.14020833333333324,0.23037037037037034,1.6560999999940407],[0.11239583333333343,0.23962962962962958,1.672800000011918],[0.09364583333333343,0.20999999999999996,1.692099999994042],[0.08927083333333338,0.175,1.7096999999880822],[0.09937500000000009,0.2146296296296296,1.7264000000059596],[0.09052083333333343,0.25092592592592594,1.7429000000059602],[0.06937499999999991,0.39277777777777784,1.759300000011919],[0.02645833333333331,0.524074074074074,1.7726999999880775],[-0.010520833333333358,0.6625925925925925,1.7895000000000039],[-0.024374999999999977,0.7611111111111111,1.8060999999940393],[-0.034062500000000044,0.8942592592592592,1.8239000000059633],[-0.04458333333333329,1.0177777777777777,1.842599999994043],[-0.024062500000000025,1.1387037037037038,1.8564000000059622],[-0.003541666666666643,1.2596296296296297,1.875900000005963],[0.03875000000000005,1.3420370370370371,1.8900999999940424],[0.07458333333333324,1.4496296296296296,1.9059999999999988],[0.059895833333333336,1.4514814814814814,1.9280999999940391],[0.059895833333333336,1.4514814814814814,1.9393000000119187],[0.08479166666666677,1.4344444444444442,1.9560999999940378],[0.12666666666666657,1.4383333333333335,1.975999999999999],[0.15,1.3961111111111113,1.992300000011923],[0.1775000000000001,1.3661111111111113,2.0066999999880792],[0.22041666666666657,1.3124074074074075,2.0249999999999986],[0.2259375000000001,1.2724074074074072,2.0438000000119203],[0.23145833333333338,1.2324074074074074,2.058800000011921],[0.21291666666666675,1.1592592592592592,2.0730999999940423],[0.17322916666666663,1.0520370370370369,2.089500000000001],[0.17322916666666663,1.0520370370370369,2.1060999999940364],[0.1696875000000001,0.9840740740740742,2.122900000005963],[0.12854166666666675,0.9201851851851853,2.145300000011922],[0.12854166666666675,0.9201851851851853,2.1560999999940407],[0.07572916666666671,0.8542592592592592,2.172800000011918],[0.03718750000000005,0.7742592592592593,2.192699999988079],[-0.0010416666666666667,0.6651851851851853,2.2101999999880775],[-0.04656250000000005,0.5905555555555555,2.228199999988078],[-0.07416666666666671,0.5131481481481482,2.2443000000119184],[-0.08145833333333338,0.42740740740740735,2.2634000000059586],[-0.08145833333333338,0.42740740740740735,2.2726999999880775],[-0.11479166666666671,0.3864814814814816,2.28930000001192],[-0.11479166666666671,0.3864814814814816,2.3060999999940393],[-0.11895833333333337,0.3242592592592593,2.3226999999880817],[-0.11895833333333337,0.3242592592592593,2.339500000000001],[-0.15427083333333336,0.19944444444444454,2.3560999999940364],[-0.15427083333333336,0.19944444444444454,2.372900000005963],[-0.21468750000000003,0.12981481481481486,2.389499999999998],[-0.21468750000000003,0.12981481481481486,2.405999999999999],[-0.27718750000000003,0.0764814814814814,2.422800000011918],[-0.27718750000000003,0.0764814814814814,2.4393000000119187],[-0.33947916666666667,0.055740740740740785,2.456000000000003],[-0.40979166666666667,0.06870370370370374,2.4755999999940386],[-0.4875,0.040370370370370286,2.4898000000119183],[-0.5591666666666666,0.03981481481481482,2.506099999994042],[-0.6476041666666668,0.032407407407407406,2.5236999999880823],[-0.7100000000000001,-0.0198148148148149,2.5435000000000016],[-0.7844791666666667,-0.029814814814814856,2.5581999999880765],[-0.8278125000000001,0.022777777777777692,2.575800000011924],[-0.825,-0.027407407407407325,2.59019999998808],[-0.8361458333333334,-0.04277777777777782,2.608699999988076],[-0.7814583333333334,-0.01796296296296305,2.6245999999940395],[-0.7046875,-0.05703703703703706,2.6400999999940424],[-0.5673958333333334,-0.06518518518518517,2.6561999999880825],[-0.43416666666666665,-0.15851851851851856,2.672699999988076],[-0.3376041666666667,-0.12259259259259257,2.689599999994037],[-0.24114583333333334,-0.08277777777777776,2.706099999994038],[-0.13510416666666672,-0.0824074074074074,2.7228000000119224],[-0.02166666666666662,-0.0801851851851852,2.7410999999940415],[0.04624999999999998,-0.004444444444444402,2.756099999994042],[0.13770833333333338,-0.0014814814814813973,2.7726999999880775],[0.1609375,0.005740740740740783,2.789400000005962],[0.1662499999999999,0.051666666666666625,2.8083000000119185],[0.10864583333333329,0.09240740740740737,2.825800000011924],[0.05791666666666669,0.17962962962962964,2.8420999999940406],[0.04468749999999998,0.14962962962962956,2.8560000000000016],[0.03604166666666669,0.11074074074074065,2.872699999988079],[0.03125,0.10055555555555547,2.88959999999404],[-0.0005208333333333333,0.09055555555555551,2.9073000000119222],[0.022708333333333285,0.12240740740740745,2.923599999994039],[0.03302083333333338,0.1557407407407408,2.939800000011921],[0.044375000000000026,0.19444444444444445,2.956000000000003],[0.058541666666666714,0.19870370370370363,2.9726999999880803],[0.09322916666666667,0.19222222222222213,2.9894000000059577],[0.10281250000000004,0.21333333333333343,3.0086999999880817],[0.10822916666666677,0.24537037037037038,3.0228000000119195],[0.10916666666666662,0.2824074074074074,3.0420000000000016],[0.08729166666666661,0.29555555555555557,3.056199999988081],[0.09583333333333334,0.3514814814814814,3.07409999999404],[0.05656249999999995,0.28592592592592586,3.089400000005959],[0.04520833333333331,0.27092592592592585,3.1060999999940364],[0.02166666666666662,0.28481481481481474,3.127400000005963],[0.018229166666666668,0.2890740740740741,3.1433000000119193],[-0.02822916666666669,0.29499999999999993,3.1585999999940384],[-0.058437500000000024,0.28425925925925927,3.17290000000596],[-0.08125,0.2492592592592593,3.1894000000059606],[-0.09708333333333338,0.2544444444444444,3.206099999994038],[-0.13770833333333338,0.32259259259259265,3.222900000005964],[-0.18916666666666668,0.34592592592592586,3.2398000000119183],[-0.21864583333333332,0.42685185185185187,3.256099999994042],[-0.26291666666666663,0.3875925925925925,3.2726999999880775],[-0.3071875,0.3633333333333334,3.289400000005962],[-0.3616666666666667,0.37759259259259254,3.3060999999940393],[-0.3977083333333333,0.3603703703703704,3.324699999988077],[-0.43374999999999997,0.3431481481481481,3.34169999998808],[-0.4715625,0.3853703703703704,3.358099999994039],[-0.5066666666666666,0.39148148148148143,3.3739000000059605],[-0.5045833333333333,0.38000000000000006,3.3923000000119217],[-0.501875,0.33481481481481473,3.4094000000059594],[-0.5138541666666667,0.2574074074074074,3.4255999999940414],[-0.5467708333333333,0.2505555555555555,3.4410999999940373],[-0.5646875,0.202962962962963,3.456000000000003],[-0.5723958333333333,0.20722222222222217,3.474800000011925],[-0.5768749999999999,0.18055555555555555,3.4895999999940415],[-0.595625,0.22685185185185186,3.5060000000000002],[-0.6063541666666666,0.2037037037037037,3.5228000000119195],[-0.6148958333333333,0.23333333333333334,3.54340000000596],[-0.6285416666666667,0.16055555555555565,3.5589000000059627],[-0.6428125,0.12148148148148152,3.575699999988082],[-0.6553125000000001,0.1485185185185186,3.591099999994043],[-0.6363541666666667,0.22333333333333338,3.6060000000000016],[-0.625,0.1962962962962963,3.6229999999999976],[-0.6309375,0.1603703703703704,3.6420999999940378],[-0.6284375,0.1905555555555555,3.655999999999999],[-0.5911458333333334,0.18129629629629626,3.672699999988076],[-0.580625,0.1418518518518519,3.6894000000059606],[-0.5810416666666666,0.10759259259259263,3.7064999999999984],[-0.596875,0.13259259259259262,3.7228000000119224],[-0.6164583333333333,0.13759259259259252,3.7409999999999997],[-0.6115625,0.11222222222222226,3.7560000000000002],[-0.6103124999999999,0.1388888888888889,3.7726999999880775],[-0.5850000000000001,0.16203703703703703,3.791699999988083],[-0.5742708333333333,0.1866666666666666,3.806400000005958],[-0.5955208333333334,0.21592592592592597,3.8245999999940423],[-0.6197916666666666,0.21870370370370373,3.841099999994043],[-0.65125,0.23148148148148148,3.8563000000119203],[-0.6496875000000001,0.23370370370370377,3.872699999988079],[-0.643125,0.25018518518518523,3.889499999999998],[-0.6128125,0.28296296296296286,3.906500000000001],[-0.6214583333333333,0.3101851851851852,3.9246999999880785],[-0.6283333333333334,0.2168518518518519,3.9425000000000026],[-0.6744791666666666,0.23648148148148157,3.958500000000001],[-0.7132291666666667,0.19685185185185178,3.973099999994041],[-0.7116666666666667,0.18851851851851845,3.9916999999880787],[-0.7128125,0.21148148148148158,4.0089000000059585],[-0.7067708333333333,0.23296296296296287,4.025599999994043],[-0.7073958333333333,0.2101851851851852,4.042900000005957],[-0.7065625,0.21370370370370367,4.058699999988079],[-0.7226041666666667,0.25462962962962965,4.07259999999404],[-0.715,0.25203703703703706,4.089300000011924],[-0.724375,0.2433333333333333,4.106000000000002],[-0.7008333333333333,0.20851851851851855,4.122800000011921],[-0.6840625,0.20203703703703707,4.141699999988077],[-0.6896875,0.23481481481481473,4.156500000000001],[-0.6836458333333333,0.24222222222222214,4.172699999988076],[-0.6636458333333334,0.2601851851851852,4.189400000005961],[-0.6694791666666667,0.21370370370370367,4.206000000000003],[-0.675,0.17185185185185176,4.222900000005964],[-0.6836458333333333,0.0962962962962963,4.241800000011921],[-0.6880208333333333,0.07018518518518514,4.256],[-0.7054166666666667,0.0824074074074074,4.275400000005959],[-0.7336458333333333,0.13185185185185194,4.289900000005964],[-0.7509374999999999,0.16407407407407412,4.309400000005958],[-0.7516666666666667,0.08555555555555563,4.326099999994042],[-0.7788541666666667,-0.00592592592592601,4.3430000000000035],[-0.8023958333333333,-0.05611111111111113,4.360500000000002],[-0.8273958333333333,-0.049074074074074076,4.3785000000000025],[-0.8273958333333333,-0.049074074074074076,4.39709999999404],[-0.7661458333333333,-0.000925925925925926,4.4061999999880825],[-0.6514583333333334,0.05907407407407403,4.425800000011918],[-0.5367708333333333,0.12037037037037036,4.444800000011924],[-0.4435416666666666,0.1735185185185186,4.45959999999404],[-0.34697916666666667,0.18259259259259264,4.476599999994043],[-0.27145833333333336,0.16425925925925935,4.495099999994039],[-0.18822916666666673,0.27444444444444455,4.5120000000000005],[-0.18822916666666673,0.27444444444444455,4.523400000005964],[-0.10427083333333335,0.3942592592592592,4.539599999994039],[-0.008020833333333382,0.497037037037037,4.560000000000002],[0.08052083333333329,0.5338888888888889,4.577199999988082],[0.07885416666666671,0.5937037037037037,4.593099999994038],[0.02374999999999995,0.6416666666666667,4.612099999994037],[0.02374999999999995,0.6416666666666667,4.622800000011921],[-0.013020833333333334,0.6298148148148148,4.639400000005963],[-0.0067708333333333336,0.6225925925925927,4.656099999994041],[-0.0067708333333333336,0.6225925925925927,4.672699999988076],[-0.029375000000000047,0.5903703703703703,4.689599999994037],[-0.030520833333333285,0.6388888888888888,4.70659999999404],[-0.0484375,0.6077777777777779,4.725599999994039],[-0.06708333333333331,0.5670370370370371,4.743599999994039],[-0.08322916666666665,0.5453703703703704,4.759],[-0.09166666666666666,0.5896296296296296,4.773300000011922],[-0.09166666666666666,0.5896296296296296,4.804000000000002],[-0.08229166666666667,0.5657407407407408,4.820199999988077],[-0.08229166666666667,0.5657407407407408,4.832300000011919],[-0.08229166666666667,0.5657407407407408,4.839300000011924],[-0.09520833333333331,0.5459259259259258,4.856000000000002],[-0.10552083333333329,0.5583333333333333,4.872599999994037],[-0.16364583333333335,0.590925925925926,4.890099999994042],[-0.1929166666666667,0.6485185185185186,4.908900000005964],[-0.1935416666666666,0.6292592592592592,4.925400000005958],[-0.19375,0.6242592592592593,4.943400000005958],[-0.2063541666666667,0.5907407407407408,4.956800000011924],[-0.22427083333333328,0.585,4.97269999998808],[-0.2727083333333333,0.5420370370370371,4.989400000005958],[-0.2959375,0.48481481481481475,5.006599999994037],[-0.24874999999999994,0.4094444444444445,5.025599999994043],[-0.24874999999999994,0.4094444444444445,5.03930000001192],[-0.2782291666666667,0.39574074074074084,5.056099999994039],[-0.2782291666666667,0.39574074074074084,5.07259999999404],[-0.26593749999999994,0.3725925925925927,5.089400000005959],[-0.24416666666666664,0.31370370370370365,5.106000000000002],[-0.23177083333333334,0.32759259259259255,5.124400000005963],[-0.21833333333333335,0.3337037037037038,5.139499999999998],[-0.2352083333333333,0.3861111111111111,5.1561999999880825],[-0.24593750000000003,0.38259259259259265,5.17590000000596],[-0.19020833333333337,0.37222222222222223,5.189800000011921],[-0.14937499999999998,0.36018518518518516,5.206099999994038],[-0.1710416666666667,0.39296296296296307,5.228900000005957],[-0.1710416666666667,0.39296296296296307,5.2395],[-0.1486458333333334,0.34148148148148144,5.256],[-0.1486458333333334,0.34148148148148144,5.272599999994043],[-0.09572916666666664,0.2874074074074075,5.297199999988081],[-0.09572916666666664,0.2874074074074075,5.305900000005963],[-0.11479166666666671,0.32592592592592595,5.328499999999998],[-0.11479166666666671,0.32592592592592595,5.339300000011924],[-0.1655208333333333,0.3235185185185186,5.36040000000596],[-0.1655208333333333,0.3235185185185186,5.373099999994039],[-0.1453125,0.29314814814814805,5.389400000005963],[-0.1453125,0.29314814814814805,5.405999999999999],[-0.134375,0.21185185185185182,5.428099999994039],[-0.134375,0.21185185185185182,5.439300000011919],[-0.08500000000000002,0.20388888888888893,5.45619999998808],[-0.0984375,0.21796296296296305,5.472800000011922],[-0.13374999999999998,0.2301851851851851,5.48990000000596],[-0.128125,0.19148148148148145,5.50859999999404],[-0.0782291666666667,0.15759259259259265,5.523099999994038],[-0.06302083333333333,0.12555555555555548,5.539500000000004],[0.0007291666666667141,0.046296296296296294,5.558800000011921],[0.06854166666666663,0.015000000000000043,5.573199999988077],[0.08562500000000005,-0.0022222222222223064,5.589599999994043],[0.1546875,0.013703703703703662,5.610300000011918],[0.14593749999999991,-0.04277777777777782,5.625999999999998],[0.18385416666666668,-0.048333333333333374,5.641500000000001],[0.24364583333333342,-0.052037037037037076,5.6561999999880825],[0.2768749999999999,-0.03555555555555564,5.675599999994041],[0.27229166666666677,0.025370370370370456,5.689699999988079],[0.27145833333333325,0.07666666666666662,5.70619999998808],[0.26614583333333336,0.10907407407407403,5.726599999994043],[0.24604166666666671,0.0837037037037038,5.741500000000002],[0.24770833333333328,0.06351851851851843,5.756300000011919],[0.24072916666666658,0.04759259259259268,5.772900000005961],[0.24083333333333337,0.07314814814814814,5.791599999994041],[0.2203125,0.06666666666666667,5.806099999994039],[0.22177083333333342,0.0455555555555556,5.823900000005963],[0.22322916666666662,0.02444444444444453,5.839400000005959],[0.22020833333333342,0.03925925925925934,5.8584000000059575],[0.19979166666666662,0.040370370370370286,5.872699999988079],[0.22010416666666663,0.0551851851851851,5.8893000000119216],[0.2631249999999999,0.07148148148148152,5.906099999994041],[0.26614583333333336,0.08129629629629626,5.922699999988076],[0.2778125000000001,0.0868518518518518,5.939300000011919],[0.3071875000000001,0.08425925925925926,5.958300000011924],[0.30750000000000005,0.08333333333333333,5.972800000011922],[0.3180208333333333,0.0911111111111112,5.989400000005958],[0.3285416666666668,0.09888888888888885,6.009099999994042],[0.3141666666666666,0.0257407407407407,6.0228000000119195],[0.3076041666666666,-0.0011111111111111532,6.0396999999880805],[0.30447916666666663,0.012222222222222264,6.056199999988081],[0.3016666666666666,-0.007592592592592635,6.077800000011919],[0.2700000000000001,-0.03555555555555564,6.0915000000000035],[0.23833333333333329,-0.06351851851851854,6.106199999988078],[0.21604166666666677,-0.0742592592592593,6.125500000000002],[0.2205208333333334,-0.09129629629629632,6.141800000011919],[0.15677083333333333,-0.0735185185185185,6.156599999994043],[0.09302083333333329,-0.055740740740740785,6.172699999988076],[0.06937499999999991,0.036481481481481566,6.19159999999404],[0.07833333333333338,0.055740740740740785,6.20619999998808],[0.06197916666666667,-0.03148148148148148,6.223199999988083],[0.0453125,-0.08555555555555554,6.2395999999940415],[0.04697916666666669,-0.058333333333333334,6.259199999988077],[0.05791666666666669,-0.031111111111111027,6.276099999994038],[0.04583333333333333,-0.012222222222222264,6.292900000005957],[0.03687499999999998,0.01444444444444436,6.311300000011919],[0.04041666666666662,0.009814814814814731,6.3268000000119216],[0.043958333333333384,0.005185185185185101,6.342400000005959],[0.09135416666666671,-0.09870370370370372,6.356599999994039],[0.11604166666666677,-0.14685185185185187,6.37909999999404],[0.11604166666666677,-0.14685185185185187,6.39069999998808],[0.11958333333333329,-0.12759259259259256,6.4061999999880825],[0.11124999999999995,-0.07851851851851847,6.422800000011918],[0.11145833333333334,-0.08740740740740739,6.443300000011924],[0.11697916666666662,-0.13444444444444448,6.458199999988082],[0.1304166666666667,-0.2022222222222222,6.472800000011922],[0.14427083333333332,-0.26666666666666666,6.49290000000596],[0.14427083333333332,-0.26666666666666666,6.506400000005961],[0.17770833333333325,-0.3066666666666667,6.523300000011922],[0.1618750000000001,-0.3264814814814815,6.54490000000596],[0.13072916666666667,-0.2903703703703704,6.559300000011923],[0.09552083333333337,-0.25999999999999995,6.575900000005959],[0.08562500000000005,-0.25574074074074077,6.590000000000003],[0.08760416666666657,-0.28129629629629627,6.609900000005958],[0.09375,-0.30388888888888893,6.625800000011921],[0.09270833333333334,-0.267037037037037,6.64109999999404],[0.0678124999999999,-0.27518518518518525,6.659599999994043],[0.044062499999999956,-0.2462962962962963,6.676300000011921],[-0.03937499999999995,-0.20703703703703705,6.694000000000003],[-0.07354166666666669,-0.18796296296296297,6.711500000000001],[-0.09781249999999998,-0.1824074074074074,6.727400000005964],[-0.12208333333333338,-0.17685185185185184,6.742599999994042],[-0.1326041666666666,-0.15333333333333335,6.756199999988077],[-0.14312499999999997,-0.12981481481481486,6.77580000001192],[-0.15239583333333329,-0.14203703703703702,6.791300000011923],[-0.1658333333333334,-0.15833333333333333,6.806800000011918],[-0.13270833333333332,-0.1588888888888889,6.827500000000001],[-0.10843750000000002,-0.1588888888888889,6.842500000000001],[-0.02052083333333338,-0.19129629629629633,6.856599999994039],[0.06739583333333338,-0.22370370370370374,6.872800000011921],[0.10979166666666676,-0.23018518518518521,6.893500000000003],[0.1484375,-0.23074074074074077,6.9100999999940385],[0.14645833333333325,-0.2572222222222222,6.928800000011918],[0.14645833333333325,-0.2572222222222222,6.939300000011919],[0.1397916666666667,-0.26370370370370366,6.960000000000001],[0.15010416666666657,-0.2462962962962963,6.975999999999999],[0.19416666666666677,-0.28296296296296297,6.991500000000002],[0.21552083333333344,-0.2903703703703704,7.0089000000059585],[0.21052083333333324,-0.32703703703703707,7.024999999999999],[0.2055208333333333,-0.36370370370370364,7.041499999999999],[0.18104166666666663,-0.39759259259259255,7.055999999999997],[0.15656249999999997,-0.43148148148148147,7.07259999999404],[0.1931250000000001,-0.4890740740740741,7.092400000005959],[0.2091666666666666,-0.49425925925925923,7.108699999988076],[0.22000000000000006,-0.5385185185185185,7.1245999999940395],[0.21041666666666667,-0.5355555555555556,7.141800000011919],[0.14854166666666657,-0.508888888888889,7.158900000005964],[0.10968749999999995,-0.4883333333333333,7.173599999994039],[0.09916666666666671,-0.46407407407407414,7.1895000000000024],[0.08864583333333324,-0.4398148148148148,7.206400000005964],[0.01395833333333331,-0.38870370370370366,7.223300000011925],[-0.06072916666666662,-0.3375925925925926,7.242599999994042],[-0.13187500000000002,-0.30925925925925923,7.2589000000059585],[-0.16020833333333329,-0.30481481481481487,7.27319999998808],[-0.17906249999999999,-0.2711111111111111,7.292400000005962],[-0.1998958333333333,-0.2757407407407407,7.308900000005963],[-0.17562500000000003,-0.29888888888888887,7.330300000011924],[-0.17562500000000003,-0.29888888888888887,7.339500000000001],[-0.17583333333333329,-0.30037037037037034,7.356000000000002],[-0.14458333333333329,-0.33185185185185184,7.375699999988079],[-0.14458333333333329,-0.33185185185185184,7.39559999999404],[-0.1330208333333334,-0.36444444444444446,7.405999999999999],[-0.03427083333333331,-0.42888888888888893,7.424999999999997],[0.06447916666666664,-0.4933333333333333,7.441900000005958],[0.08031249999999991,-0.48814814814814816,7.458900000005961],[0.09614583333333329,-0.482962962962963,7.472900000005964],[0.09614583333333329,-0.482962962962963,7.489300000011923],[0.14187500000000006,-0.49444444444444446,7.506],[0.22291666666666668,-0.5122222222222222,7.52619999998808],[0.24708333333333338,-0.509074074074074,7.543500000000002],[0.23802083333333332,-0.5135185185185185,7.563300000011921],[0.23802083333333332,-0.5135185185185185,7.57259999999404],[0.24083333333333337,-0.517962962962963,7.589500000000001],[0.2633333333333333,-0.5212962962962963,7.608699999988076],[0.275,-0.5662962962962963,7.625599999994037],[0.28802083333333334,-0.557962962962963,7.64369999998808],[0.32312500000000005,-0.5787037037037037,7.66019999998808],[0.35822916666666677,-0.5994444444444444,7.677],[0.3556250000000001,-0.645,7.694000000000003],[0.3177083333333333,-0.6842592592592592,7.7103000000119195],[0.29677083333333343,-0.687962962962963,7.727699999988083],[0.31052083333333325,-0.6996296296296296,7.745199999988081],[0.30322916666666655,-0.7124074074074074,7.76009999999404],[0.2959374999999999,-0.7251851851851853,7.777000000000001],[0.2942708333333333,-0.6661111111111111,7.79230000001192],[0.2912499999999999,-0.6603703703703704,7.810199999988079],[0.2690624999999999,-0.6438888888888888,7.8266999999880795],[0.278125,-0.659074074074074,7.843300000011922],[0.28093750000000006,-0.5948148148148148,7.860500000000002],[0.2946875000000001,-0.5418518518518519,7.877199999988079],[0.34500000000000003,-0.5824074074074074,7.893500000000003],[0.3632291666666667,-0.5746296296296296,7.910000000000004],[0.3632291666666667,-0.5787037037037037,7.926300000011921],[0.3632291666666667,-0.5827777777777777,7.943599999994042],[0.34135416666666674,-0.6142592592592593,7.959000000000003],[0.32083333333333336,-0.6516666666666666,7.97530000001192],[0.33708333333333323,-0.695925925925926,7.992300000011923],[0.33708333333333323,-0.695925925925926,8.006],[0.31885416666666655,-0.71,8.022900000005961],[0.29656250000000006,-0.7596296296296297,8.042800000011923],[0.2633333333333333,-0.7979629629629629,8.055999999999997],[0.24749999999999991,-0.7957407407407407,8.07630000001192],[0.24333333333333323,-0.8298148148148149,8.092699999988078],[0.24208333333333343,-0.837037037037037,8.110900000005962],[0.22072916666666675,-0.8114814814814815,8.12759999999404],[0.22291666666666668,-0.7864814814814814,8.14369999998808],[0.22000000000000006,-0.7794444444444444,8.16130000001192],[0.2021874999999999,-0.7777777777777778,8.177199999988076],[0.19562499999999997,-0.7681481481481481,8.193300000011924],[0.19562499999999997,-0.7681481481481481,8.206000000000003],[0.19104166666666675,-0.7857407407407407,8.222800000011922],[0.21197916666666666,-0.7972222222222223,8.243800000011923],[0.19947916666666668,-0.7757407407407407,8.260400000005959],[0.20739583333333325,-0.7662962962962964,8.277199999988078],[0.19364583333333343,-0.7557407407407408,8.293699999988078],[0.19364583333333343,-0.7557407407407408,8.305999999999997],[0.2,-0.777962962962963,8.322900000005959],[0.21604166666666677,-0.8061111111111111,8.344000000000001],[0.23187499999999991,-0.8127777777777777,8.360099999994041],[0.24500000000000005,-0.8179629629629629,8.378199999988077],[0.24500000000000005,-0.8179629629629629,8.38959999999404],[0.22177083333333342,-0.7942592592592592,8.405999999999999],[0.21583333333333338,-0.7718518518518519,8.42480000001192],[0.18718750000000003,-0.7118518518518518,8.441800000011924],[0.1877083333333334,-0.7262962962962963,8.456400000005964],[0.1877083333333334,-0.7262962962962963,8.472599999994038],[0.175,-0.7648148148148148,8.489300000011923],[0.175,-0.7648148148148148,8.506099999994042],[0.18552083333333325,-0.7640740740740741,8.522699999988077],[0.18552083333333325,-0.7640740740740741,8.53930000001192],[0.19333333333333325,-0.7764814814814816,8.555999999999997],[0.19333333333333325,-0.7764814814814816,8.572699999988082]]","[0.0003000000119186552,0.039400000005962,0.05609999999403925,0.07269999998808174,0.08950000000000102,0.10699999999999932,0.12299999999999756,0.14219999998807964,0.15850000000000364,0.17269999998807606,0.18940000000596058,0.20609999999403783,0.22290000000596422,0.24169999998807867,0.2560000000000002,0.2726999999880775,0.289400000005962,0.30609999999403925,0.3235000000000028,0.3416999999880801,0.35859999999404124,0.37400000000000233,0.38959999999404005,0.4060999999940407,0.4239000000059576,0.44109999999403726,0.45609999999403783,0.4729000000059642,0.48940000000595774,0.5083000000119213,0.5278000000119221,0.539400000005962,0.5560999999940393,0.5726999999880817,0.5894000000059592,0.6060000000000016,0.6230999999940394,0.6420999999940378,0.6560999999940407,0.6726999999880761,0.6894000000059606,0.7060999999940378,0.722999999999999,0.7394999999999996,0.7560999999940421,0.7754000000059591,0.7893000000119201,0.8060999999940393,0.8229000000059585,0.8394000000059592,0.8560000000000016,0.8728000000119209,0.8894000000059634,0.9060999999940407,0.9234999999999971,0.941400000005963,0.9560999999940378,0.9770999999940386,0.9919999999999973,1.0068000000119213,1.0228000000119195,1.040099999994041,1.0560999999940393,1.0756999999880819,1.0900999999940382,1.1081999999880807,1.123400000005958,1.139699999988082,1.1560999999940407,1.173499999999997,1.1894000000059606,1.206000000000003,1.22530000001192,1.2429000000059602,1.2561999999880769,1.2726999999880775,1.2895999999940386,1.3069000000059603,1.323300000011919,1.3424000000059593,1.3560999999940364,1.3729999999999976,1.3894999999999982,1.4060999999940407,1.4234000000059623,1.439699999988079,1.4560999999940378,1.4726999999880803,1.489300000011923,1.5095999999940375,1.5249000000059638,1.5425999999940387,1.5586999999880788,1.573199999988077,1.5894000000059592,1.6060999999940364,1.6249000000059581,1.6435999999940378,1.6560999999940407,1.672800000011918,1.692099999994042,1.7096999999880822,1.7264000000059596,1.7429000000059602,1.759300000011919,1.7726999999880775,1.7895000000000039,1.8060999999940393,1.8239000000059633,1.842599999994043,1.8564000000059622,1.875900000005963,1.8900999999940424,1.9059999999999988,1.9280999999940391,1.9393000000119187,1.9560999999940378,1.975999999999999,1.992300000011923,2.0066999999880792,2.0249999999999986,2.0438000000119203,2.058800000011921,2.0730999999940423,2.089500000000001,2.1060999999940364,2.122900000005963,2.145300000011922,2.1560999999940407,2.172800000011918,2.192699999988079,2.2101999999880775,2.228199999988078,2.2443000000119184,2.2634000000059586,2.2726999999880775,2.28930000001192,2.3060999999940393,2.3226999999880817,2.339500000000001,2.3560999999940364,2.372900000005963,2.389499999999998,2.405999999999999,2.422800000011918,2.4393000000119187,2.456000000000003,2.4755999999940386,2.4898000000119183,2.506099999994042,2.5236999999880823,2.5435000000000016,2.5581999999880765,2.575800000011924,2.59019999998808,2.608699999988076,2.6245999999940395,2.6400999999940424,2.6561999999880825,2.672699999988076,2.689599999994037,2.706099999994038,2.7228000000119224,2.7410999999940415,2.756099999994042,2.7726999999880775,2.789400000005962,2.8083000000119185,2.825800000011924,2.8420999999940406,2.8560000000000016,2.872699999988079,2.88959999999404,2.9073000000119222,2.923599999994039,2.939800000011921,2.956000000000003,2.9726999999880803,2.9894000000059577,3.0086999999880817,3.0228000000119195,3.0420000000000016,3.056199999988081,3.07409999999404,3.089400000005959,3.1060999999940364,3.127400000005963,3.1433000000119193,3.1585999999940384,3.17290000000596,3.1894000000059606,3.206099999994038,3.222900000005964,3.2398000000119183,3.256099999994042,3.2726999999880775,3.289400000005962,3.3060999999940393,3.324699999988077,3.34169999998808,3.358099999994039,3.3739000000059605,3.3923000000119217,3.4094000000059594,3.4255999999940414,3.4410999999940373,3.456000000000003,3.474800000011925,3.4895999999940415,3.5060000000000002,3.5228000000119195,3.54340000000596,3.5589000000059627,3.575699999988082,3.591099999994043,3.6060000000000016,3.6229999999999976,3.6420999999940378,3.655999999999999,3.672699999988076,3.6894000000059606,3.7064999999999984,3.7228000000119224,3.7409999999999997,3.7560000000000002,3.7726999999880775,3.791699999988083,3.806400000005958,3.8245999999940423,3.841099999994043,3.8563000000119203,3.872699999988079,3.889499999999998,3.906500000000001,3.9246999999880785,3.9425000000000026,3.958500000000001,3.973099999994041,3.9916999999880787,4.0089000000059585,4.025599999994043,4.042900000005957,4.058699999988079,4.07259999999404,4.089300000011924,4.106000000000002,4.122800000011921,4.141699999988077,4.156500000000001,4.172699999988076,4.189400000005961,4.206000000000003,4.222900000005964,4.241800000011921,4.256,4.275400000005959,4.289900000005964,4.309400000005958,4.326099999994042,4.3430000000000035,4.360500000000002,4.3785000000000025,4.39709999999404,4.4061999999880825,4.425800000011918,4.444800000011924,4.45959999999404,4.476599999994043,4.495099999994039,4.5120000000000005,4.523400000005964,4.539599999994039,4.560000000000002,4.577199999988082,4.593099999994038,4.612099999994037,4.622800000011921,4.639400000005963,4.656099999994041,4.672699999988076,4.689599999994037,4.70659999999404,4.725599999994039,4.743599999994039,4.759,4.773300000011922,4.804000000000002,4.820199999988077,4.832300000011919,4.839300000011924,4.856000000000002,4.872599999994037,4.890099999994042,4.908900000005964,4.925400000005958,4.943400000005958,4.956800000011924,4.97269999998808,4.989400000005958,5.006599999994037,5.025599999994043,5.03930000001192,5.056099999994039,5.07259999999404,5.089400000005959,5.106000000000002,5.124400000005963,5.139499999999998,5.1561999999880825,5.17590000000596,5.189800000011921,5.206099999994038,5.228900000005957,5.2395,5.256,5.272599999994043,5.297199999988081,5.305900000005963,5.328499999999998,5.339300000011924,5.36040000000596,5.373099999994039,5.389400000005963,5.405999999999999,5.428099999994039,5.439300000011919,5.45619999998808,5.472800000011922,5.48990000000596,5.50859999999404,5.523099999994038,5.539500000000004,5.558800000011921,5.573199999988077,5.589599999994043,5.610300000011918,5.625999999999998,5.641500000000001,5.6561999999880825,5.675599999994041,5.689699999988079,5.70619999998808,5.726599999994043,5.741500000000002,5.756300000011919,5.772900000005961,5.791599999994041,5.806099999994039,5.823900000005963,5.839400000005959,5.8584000000059575,5.872699999988079,5.8893000000119216,5.906099999994041,5.922699999988076,5.939300000011919,5.958300000011924,5.972800000011922,5.989400000005958,6.009099999994042,6.0228000000119195,6.0396999999880805,6.056199999988081,6.077800000011919,6.0915000000000035,6.106199999988078,6.125500000000002,6.141800000011919,6.156599999994043,6.172699999988076,6.19159999999404,6.20619999998808,6.223199999988083,6.2395999999940415,6.259199999988077,6.276099999994038,6.292900000005957,6.311300000011919,6.3268000000119216,6.342400000005959,6.356599999994039,6.37909999999404,6.39069999998808,6.4061999999880825,6.422800000011918,6.443300000011924,6.458199999988082,6.472800000011922,6.49290000000596,6.506400000005961,6.523300000011922,6.54490000000596,6.559300000011923,6.575900000005959,6.590000000000003,6.609900000005958,6.625800000011921,6.64109999999404,6.659599999994043,6.676300000011921,6.694000000000003,6.711500000000001,6.727400000005964,6.742599999994042,6.756199999988077,6.77580000001192,6.791300000011923,6.806800000011918,6.827500000000001,6.842500000000001,6.856599999994039,6.872800000011921,6.893500000000003,6.9100999999940385,6.928800000011918,6.939300000011919,6.960000000000001,6.975999999999999,6.991500000000002,7.0089000000059585,7.024999999999999,7.041499999999999,7.055999999999997,7.07259999999404,7.092400000005959,7.108699999988076,7.1245999999940395,7.141800000011919,7.158900000005964,7.173599999994039,7.1895000000000024,7.206400000005964,7.223300000011925,7.242599999994042,7.2589000000059585,7.27319999998808,7.292400000005962,7.308900000005963,7.330300000011924,7.339500000000001,7.356000000000002,7.375699999988079,7.39559999999404,7.405999999999999,7.424999999999997,7.441900000005958,7.458900000005961,7.472900000005964,7.489300000011923,7.506,7.52619999998808,7.543500000000002,7.563300000011921,7.57259999999404,7.589500000000001,7.608699999988076,7.625599999994037,7.64369999998808,7.66019999998808,7.677,7.694000000000003,7.7103000000119195,7.727699999988083,7.745199999988081,7.76009999999404,7.777000000000001,7.79230000001192,7.810199999988079,7.8266999999880795,7.843300000011922,7.860500000000002,7.877199999988079,7.893500000000003,7.910000000000004,7.926300000011921,7.943599999994042,7.959000000000003,7.97530000001192,7.992300000011923,8.006,8.022900000005961,8.042800000011923,8.055999999999997,8.07630000001192,8.092699999988078,8.110900000005962,8.12759999999404,8.14369999998808,8.16130000001192,8.177199999988076,8.193300000011924,8.206000000000003,8.222800000011922,8.243800000011923,8.260400000005959,8.277199999988078,8.293699999988078,8.305999999999997,8.322900000005959,8.344000000000001,8.360099999994041,8.378199999988077,8.38959999999404,8.405999999999999,8.42480000001192,8.441800000011924,8.456400000005964,8.472599999994038,8.489300000011923,8.506099999994042,8.522699999988077,8.53930000001192,8.555999999999997,8.572699999988082]","[1732770710051,1732770710083,1732770710099,1732770710116,1732770710133,1732770710150,1732770710166,1732770710186,1732770710202,1732770710216,1732770710233,1732770710249,1732770710266,1732770710285,1732770710299,1732770710316,1732770710333,1732770710349,1732770710367,1732770710385,1732770710402,1732770710417,1732770710433,1732770710449,1732770710467,1732770710484,1732770710499,1732770710516,1732770710533,1732770710552,1732770710571,1732770710583,1732770710599,1732770710616,1732770710633,1732770710649,1732770710666,1732770710685,1732770710699,1732770710716,1732770710733,1732770710749,1732770710766,1732770710783,1732770710799,1732770710819,1732770710833,1732770710849,1732770710866,1732770710883,1732770710899,1732770710916,1732770710933,1732770710949,1732770710967,1732770710985,1732770710999,1732770711020,1732770711035,1732770711050,1732770711066,1732770711083,1732770711099,1732770711119,1732770711133,1732770711151,1732770711167,1732770711183,1732770711199,1732770711217,1732770711233,1732770711249,1732770711269,1732770711286,1732770711299,1732770711316,1732770711333,1732770711350,1732770711367,1732770711386,1732770711399,1732770711416,1732770711433,1732770711449,1732770711467,1732770711483,1732770711499,1732770711516,1732770711533,1732770711553,1732770711568,1732770711586,1732770711602,1732770711617,1732770711633,1732770711649,1732770711668,1732770711687,1732770711699,1732770711716,1732770711735,1732770711753,1732770711770,1732770711786,1732770711803,1732770711816,1732770711833,1732770711849,1732770711867,1732770711886,1732770711900,1732770711919,1732770711933,1732770711949,1732770711971,1732770711983,1732770711999,1732770712019,1732770712036,1732770712050,1732770712068,1732770712087,1732770712102,1732770712116,1732770712133,1732770712149,1732770712166,1732770712189,1732770712199,1732770712216,1732770712236,1732770712254,1732770712271,1732770712288,1732770712307,1732770712316,1732770712333,1732770712349,1732770712366,1732770712383,1732770712399,1732770712416,1732770712433,1732770712449,1732770712466,1732770712483,1732770712499,1732770712519,1732770712533,1732770712549,1732770712567,1732770712587,1732770712602,1732770712619,1732770712634,1732770712652,1732770712668,1732770712683,1732770712699,1732770712716,1732770712733,1732770712749,1732770712766,1732770712784,1732770712799,1732770712816,1732770712833,1732770712852,1732770712869,1732770712885,1732770712899,1732770712916,1732770712933,1732770712951,1732770712967,1732770712983,1732770712999,1732770713016,1732770713033,1732770713052,1732770713066,1732770713085,1732770713099,1732770713117,1732770713133,1732770713149,1732770713171,1732770713187,1732770713202,1732770713216,1732770713233,1732770713249,1732770713266,1732770713283,1732770713299,1732770713316,1732770713333,1732770713349,1732770713368,1732770713385,1732770713401,1732770713417,1732770713436,1732770713453,1732770713469,1732770713484,1732770713499,1732770713518,1732770713533,1732770713549,1732770713566,1732770713587,1732770713602,1732770713619,1732770713634,1732770713649,1732770713666,1732770713685,1732770713699,1732770713716,1732770713733,1732770713750,1732770713766,1732770713784,1732770713799,1732770713816,1732770713835,1732770713850,1732770713868,1732770713884,1732770713900,1732770713916,1732770713933,1732770713950,1732770713968,1732770713986,1732770714002,1732770714016,1732770714035,1732770714052,1732770714069,1732770714086,1732770714102,1732770714116,1732770714133,1732770714149,1732770714166,1732770714185,1732770714200,1732770714216,1732770714233,1732770714249,1732770714266,1732770714285,1732770714299,1732770714319,1732770714333,1732770714353,1732770714369,1732770714386,1732770714404,1732770714422,1732770714441,1732770714449,1732770714469,1732770714488,1732770714503,1732770714520,1732770714538,1732770714555,1732770714567,1732770714583,1732770714603,1732770714620,1732770714636,1732770714655,1732770714666,1732770714683,1732770714699,1732770714716,1732770714733,1732770714750,1732770714769,1732770714787,1732770714802,1732770714817,1732770714847,1732770714864,1732770714876,1732770714883,1732770714899,1732770714916,1732770714933,1732770714952,1732770714969,1732770714987,1732770715000,1732770715016,1732770715033,1732770715050,1732770715069,1732770715083,1732770715099,1732770715116,1732770715133,1732770715149,1732770715168,1732770715183,1732770715199,1732770715219,1732770715233,1732770715249,1732770715272,1732770715283,1732770715299,1732770715316,1732770715340,1732770715349,1732770715372,1732770715383,1732770715404,1732770715416,1732770715433,1732770715449,1732770715472,1732770715483,1732770715499,1732770715516,1732770715533,1732770715552,1732770715566,1732770715583,1732770715602,1732770715617,1732770715633,1732770715654,1732770715669,1732770715685,1732770715699,1732770715719,1732770715733,1732770715750,1732770715770,1732770715785,1732770715800,1732770715816,1732770715835,1732770715850,1732770715867,1732770715883,1732770715902,1732770715916,1732770715933,1732770715949,1732770715966,1732770715983,1732770716002,1732770716016,1732770716033,1732770716052,1732770716066,1732770716083,1732770716099,1732770716121,1732770716135,1732770716150,1732770716169,1732770716185,1732770716200,1732770716216,1732770716235,1732770716249,1732770716267,1732770716283,1732770716303,1732770716319,1732770716336,1732770716355,1732770716370,1732770716386,1732770716400,1732770716422,1732770716434,1732770716449,1732770716466,1732770716487,1732770716502,1732770716516,1732770716536,1732770716550,1732770716567,1732770716588,1732770716603,1732770716619,1732770716633,1732770716653,1732770716669,1732770716684,1732770716703,1732770716720,1732770716737,1732770716755,1732770716771,1732770716786,1732770716799,1732770716819,1732770716835,1732770716850,1732770716871,1732770716886,1732770716900,1732770716916,1732770716937,1732770716953,1732770716972,1732770716983,1732770717003,1732770717019,1732770717035,1732770717052,1732770717068,1732770717085,1732770717099,1732770717116,1732770717136,1732770717152,1732770717168,1732770717185,1732770717202,1732770717217,1732770717233,1732770717250,1732770717267,1732770717286,1732770717302,1732770717317,1732770717336,1732770717352,1732770717374,1732770717383,1732770717399,1732770717419,1732770717439,1732770717449,1732770717468,1732770717485,1732770717502,1732770717516,1732770717533,1732770717549,1732770717570,1732770717587,1732770717607,1732770717616,1732770717633,1732770717652,1732770717669,1732770717687,1732770717704,1732770717720,1732770717737,1732770717754,1732770717771,1732770717789,1732770717803,1732770717820,1732770717836,1732770717854,1732770717870,1732770717887,1732770717904,1732770717921,1732770717937,1732770717953,1732770717970,1732770717987,1732770718002,1732770718019,1732770718036,1732770718049,1732770718066,1732770718086,1732770718099,1732770718120,1732770718136,1732770718154,1732770718171,1732770718187,1732770718205,1732770718221,1732770718237,1732770718249,1732770718266,1732770718287,1732770718304,1732770718320,1732770718337,1732770718349,1732770718366,1732770718387,1732770718403,1732770718422,1732770718433,1732770718449,1732770718468,1732770718485,1732770718500,1732770718516,1732770718533,1732770718549,1732770718566,1732770718583,1732770718599,1732770718616]","[[986.7,602.8],[986.7,602.8],[962.5,599.3],[977.5,572.3],[1045.9,537.2],[1053.6,551.6],[1093.1,503.5],[1109.6,502.9],[1104,466.9],[1073.1,458.5],[1051,406.2],[992.9,443.4],[991.9,397.2],[965.6,387.7],[872.9,374.5],[783.5,356.4],[729,344.9],[687.1,344.4],[683,346.5],[708.6,303],[700.2,297.9],[703.1,260.3],[703.1,260.3],[685.7,273.3],[687.6,302.5],[703.7,313.5],[727.1,326.2],[718.5,339.1],[696.4,384.5],[696.4,384.5],[698.8,373.4],[698.8,373.4],[693.2,409.6],[703.8,421],[691.7,430.6],[675,435.7],[670.5,457.1],[662.2,455.3],[642.3,468.1],[615.1,471.8],[600.8,435.5],[574.7,454.5],[548.2,451.8],[520,488.8],[522,534.5],[528.9,532.2],[471.5,507.3],[418.2,514.8],[418,529.9],[395.4,520.5],[378.8,526.6],[365.3,519.4],[335.7,506.6],[309.6,472.4],[290.3,463.4],[274.5,495],[305.3,516.7],[329.7,529.5],[375.1,524.2],[450.6,555.3],[491.3,564.6],[521.1,591.9],[582.7,618.1],[635.9,658.9],[689.3,655.5],[732.8,662.7],[806.8,646.4],[885.7,659.8],[871.8,661.2],[857.9,662.6],[877.3,680.6],[904.5,693.9],[907.9,687.7],[901.1,702.3],[900.5,708.2],[899.9,714.1],[935.6,715.4],[971.3,716.7],[1014.8,715.1],[1058.3,713.5],[1132.7,691.5],[1207.1,669.5],[1207.1,669.5],[1253.9,668.9],[1338,647.4],[1413.2,639.8],[1456.3,622.3],[1456.3,622.3],[1437.4,613],[1398.7,620.2],[1368.3,638.3],[1326.2,654.8],[1252.1,677.1],[1203.6,678.3],[1202.5,672.4],[1173,655.1],[1121.3,659.4],[1094.6,664.4],[1094.6,664.4],[1067.9,669.4],[1049.9,653.4],[1045.7,634.5],[1055.4,655.9],[1046.9,675.5],[1026.6,752.1],[985.4,823],[949.9,897.8],[936.6,951],[927.3,1022.9],[917.2,1089.6],[936.9,1154.9],[956.6,1220.2],[997.2,1264.7],[1031.6,1322.8],[1017.5,1323.8],[1017.5,1323.8],[1041.4,1314.6],[1081.6,1316.7],[1104,1293.9],[1130.4,1277.7],[1171.6,1248.7],[1176.9,1227.1],[1182.2,1205.5],[1164.4,1166],[1126.3,1108.1],[1126.3,1108.1],[1122.9,1071.4],[1083.4,1036.9],[1083.4,1036.9],[1032.7,1001.3],[995.7,958.1],[959,899.2],[915.3,858.9],[888.8,817.1],[881.8,770.8],[881.8,770.8],[849.8,748.7],[849.8,748.7],[845.8,715.1],[845.8,715.1],[811.9,647.7],[811.9,647.7],[753.9,610.1],[753.9,610.1],[693.9,581.3],[693.9,581.3],[634.1,570.1],[566.6,577.1],[492,561.8],[423.2,561.5],[338.3,557.5],[278.4,529.3],[206.9,523.9],[165.3,552.3],[168,525.2],[157.3,516.9],[209.8,530.3],[283.5,509.2],[415.3,504.8],[543.2,454.4],[635.9,473.8],[728.5,495.3],[830.3,495.5],[939.2,496.7],[1004.4,537.6],[1092.2,539.2],[1114.5,543.1],[1119.6,567.9],[1064.3,589.9],[1015.6,637],[1002.9,620.8],[994.6,599.8],[990,594.3],[959.5,588.9],[981.8,606.1],[991.7,624.1],[1002.6,645],[1016.2,647.3],[1049.5,643.8],[1058.7,655.2],[1063.9,672.5],[1064.8,692.5],[1043.8,699.6],[1052,729.8],[1014.3,694.4],[1003.4,686.3],[980.8,693.8],[977.5,696.1],[932.9,699.3],[903.9,693.5],[882,674.6],[866.8,677.4],[827.8,714.2],[778.4,726.8],[750.1,770.5],[707.6,749.3],[665.1,736.2],[612.8,743.9],[578.2,734.6],[543.6,725.3],[507.3,748.1],[473.6,751.4],[475.6,745.2],[478.2,720.8],[466.7,679],[435.1,675.3],[417.9,649.6],[410.5,651.9],[406.2,637.5],[388.2,662.5],[377.9,650],[369.7,666],[356.6,626.7],[342.9,605.6],[330.9,620.2],[349.1,660.6],[360,646],[354.3,626.6],[356.7,642.9],[392.5,637.9],[402.6,616.6],[402.2,598.1],[387,611.6],[368.2,614.3],[372.9,600.6],[374.1,615],[398.4,627.5],[408.7,640.8],[388.3,656.6],[365,658.1],[334.8,665],[336.3,666.2],[342.6,675.1],[371.7,692.8],[363.4,707.5],[356.8,657.1],[312.5,667.7],[275.3,646.3],[276.8,641.8],[275.7,654.2],[281.5,665.8],[280.9,653.5],[281.7,655.4],[266.3,677.5],[273.6,676.1],[264.6,671.4],[287.2,652.6],[303.3,649.1],[297.9,666.8],[303.7,670.8],[322.9,680.5],[317.3,655.4],[312,632.8],[303.7,592],[299.5,577.9],[282.8,584.5],[255.7,611.2],[239.1,628.6],[238.4,586.2],[212.3,536.8],[189.7,509.7],[165.7,513.5],[165.7,513.5],[224.5,539.5],[334.6,571.9],[444.7,605],[534.2,633.7],[626.9,638.6],[699.4,628.7],[779.3,688.2],[779.3,688.2],[859.9,752.9],[952.3,808.4],[1037.3,828.3],[1035.7,860.6],[982.8,886.5],[982.8,886.5],[947.5,880.1],[953.5,876.2],[953.5,876.2],[931.8,858.8],[930.7,885],[913.5,868.2],[895.6,846.2],[880.1,834.5],[872,858.4],[872,858.4],[881,845.5],[881,845.5],[881,845.5],[868.6,834.8],[858.7,841.5],[802.9,859.1],[774.8,890.2],[774.2,879.8],[774,877.1],[761.9,859],[744.7,855.9],[698.2,832.7],[675.9,801.8],[721.2,761.1],[721.2,761.1],[692.9,753.7],[692.9,753.7],[704.7,741.2],[725.6,709.4],[737.5,716.9],[750.4,720.2],[734.2,748.5],[723.9,746.6],[777.4,741],[816.6,734.5],[795.8,752.2],[795.8,752.2],[817.3,724.4],[817.3,724.4],[868.1,695.2],[868.1,695.2],[849.8,716],[849.8,716],[801.1,714.7],[801.1,714.7],[820.5,698.3],[820.5,698.3],[831,654.4],[831,654.4],[878.4,650.1],[865.5,657.7],[831.6,664.3],[837,643.4],[884.9,625.1],[899.5,607.8],[960.7,565],[1025.8,548.1],[1042.2,538.8],[1108.5,547.4],[1100.1,516.9],[1136.5,513.9],[1193.9,511.9],[1225.8,520.8],[1221.4,553.7],[1220.6,581.4],[1215.5,598.9],[1196.2,585.2],[1197.8,574.3],[1191.1,565.7],[1191.2,579.5],[1171.5,576],[1172.9,564.6],[1174.3,553.2],[1171.4,561.2],[1151.8,561.8],[1171.3,569.8],[1212.6,578.6],[1215.5,583.9],[1226.7,586.9],[1254.9,585.5],[1255.2,585],[1265.3,589.2],[1275.4,593.4],[1261.6,553.9],[1255.3,539.4],[1252.3,546.6],[1249.6,535.9],[1219.2,520.8],[1188.8,505.7],[1167.4,499.9],[1171.7,490.7],[1110.5,500.3],[1049.3,509.9],[1026.6,559.7],[1035.2,570.1],[1019.5,523],[1003.5,493.8],[1005.1,508.5],[1015.6,523.2],[1004,533.4],[995.4,547.8],[998.8,545.3],[1002.2,542.8],[1047.7,486.7],[1071.4,460.7],[1071.4,460.7],[1074.8,471.1],[1066.8,497.6],[1067,492.8],[1072.3,467.4],[1085.2,430.8],[1098.5,396],[1098.5,396],[1130.6,374.4],[1115.4,363.7],[1085.5,383.2],[1051.7,399.6],[1042.2,401.9],[1044.1,388.1],[1050,375.9],[1049,395.8],[1025.1,391.4],[1002.3,407],[922.2,428.2],[889.4,438.5],[866.1,441.5],[842.8,444.5],[832.7,457.2],[822.6,469.9],[813.7,463.3],[800.8,454.5],[832.6,454.2],[855.9,454.2],[940.3,436.7],[1024.7,419.2],[1065.4,415.7],[1102.5,415.4],[1100.6,401.1],[1100.6,401.1],[1094.2,397.6],[1104.1,407],[1146.4,387.2],[1166.9,383.2],[1162.1,363.4],[1157.3,343.6],[1133.8,325.3],[1