inst1_resp.keys,inst1_resp.rt,calibrationMouse.x,calibrationMouse.y,calibrationMouse.leftButton,calibrationMouse.midButton,calibrationMouse.rightButton,calibrationClick.x,calibrationClick.y,calibrationClick.leftButton,calibrationClick.midButton,calibrationClick.rightButton,trialsc.thisRepN,trialsc.thisTrialN,trialsc.thisN,trialsc.thisIndex,trialsc.ran,calibration_x,calibration_y,participant,session,date,expName,psychopyVersion,OS,frameRate,calibrationClick.clicked_name,ScreenRes_pixels,Camera_pixels,mouse_2.x,mouse_2.y,mouse_2.leftButton,mouse_2.midButton,mouse_2.rightButton,mouse_2.time,mouse_2.clicked_name,mouse.x,mouse.y,mouse.leftButton,mouse.midButton,mouse.rightButton,mouse.time,mouse.clicked_name,Choice,Trial,TrialDuration,MOUSE_GAZE,ET_GAZE,ET_GAZE_x_T,time,unixTime,ET_GAZE_NF,Loc_Option1_label,Loc_Option2_label,Loc_Cost_label,Loc_Qual_label,Loc_Option1_cost,Loc_Option2_cost,Loc_Option1_quality,Loc_Option2_quality,trials.thisRepN,trials.thisTrialN,trials.thisN,trials.thisIndex,trials.ran,Block,Device,cost1,qual1,cost2,qual2
space,4.4748,-1,-0.998148148,1,0,0,-1,-0.124074074,0,0,0,0,0,0,7,1,-0.33,0.33,21,001,2024-11-28_12h56.58.332,Attention_exp_legacy,2023.1.0,Win32,59.88023952,,,,,,,,,,,,,,,,,,,,,,,,,,,,,,,,,,,,,,,,,,,,,
,,,,,,,-0.001041667,-0.674074074,1,0,0,0,1,1,9,1,0,-0.67,21,001,2024-11-28_12h56.58.332,Attention_exp_legacy,2023.1.0,Win32,59.88023952,calibration_square,,,,,,,,,,,,,,,,,,,,,,,,,,,,,,,,,,,,,,,,,,,,
,,,,,,,-0.002083333,0.677777778,1,0,0,0,2,2,13,1,0,0.67,21,001,2024-11-28_12h56.58.332,Attention_exp_legacy,2023.1.0,Win32,59.88023952,calibration_square,,,,,,,,,,,,,,,,,,,,,,,,,,,,,,,,,,,,,,,,,,,,
,,,,,,,-0.664583333,-0.340740741,1,0,0,0,3,3,1,1,-0.67,-0.33,21,001,2024-11-28_12h56.58.332,Attention_exp_legacy,2023.1.0,Win32,59.88023952,,,,,,,,,,,,,,,,,,,,,,,,,,,,,,,,,,,,,,,,,,,,,
,,,,,,,0.333333333,0.322222222,1,0,0,0,4,4,17,1,0.33,0.33,21,001,2024-11-28_12h56.58.332,Attention_exp_legacy,2023.1.0,Win32,59.88023952,calibration_square,,,,,,,,,,,,,,,,,,,,,,,,,,,,,,,,,,,,,,,,,,,,
,,,,,,,0.323958333,-0.661111111,1,0,0,0,5,5,14,1,0.33,-0.67,21,001,2024-11-28_12h56.58.332,Attention_exp_legacy,2023.1.0,Win32,59.88023952,calibration_square,,,,,,,,,,,,,,,,,,,,,,,,,,,,,,,,,,,,,,,,,,,,
,,,,,,,0.33125,0.005555556,1,0,0,0,6,6,16,1,0.33,0,21,001,2024-11-28_12h56.58.332,Attention_exp_legacy,2023.1.0,Win32,59.88023952,calibration_square,,,,,,,,,,,,,,,,,,,,,,,,,,,,,,,,,,,,,,,,,,,,
,,,,,,,0.336458333,-0.322222222,1,0,0,0,7,7,15,1,0.33,-0.33,21,001,2024-11-28_12h56.58.332,Attention_exp_legacy,2023.1.0,Win32,59.88023952,calibration_square,,,,,,,,,,,,,,,,,,,,,,,,,,,,,,,,,,,,,,,,,,,,
,,,,,,,-0.002083333,-0.005555556,1,0,0,0,8,8,11,1,0,0,21,001,2024-11-28_12h56.58.332,Attention_exp_legacy,2023.1.0,Win32,59.88023952,calibration_square,,,,,,,,,,,,,,,,,,,,,,,,,,,,,,,,,,,,,,,,,,,,
,,,,,,,-0.666666667,-0.666666667,1,0,0,0,9,9,0,1,-0.67,-0.67,21,001,2024-11-28_12h56.58.332,Attention_exp_legacy,2023.1.0,Win32,59.88023952,calibration_square,,,,,,,,,,,,,,,,,,,,,,,,,,,,,,,,,,,,,,,,,,,,
,,,,,,,-0.66875,0.311111111,1,0,0,0,10,10,3,1,-0.67,0.33,21,001,2024-11-28_12h56.58.332,Attention_exp_legacy,2023.1.0,Win32,59.88023952,,,,,,,,,,,,,,,,,,,,,,,,,,,,,,,,,,,,,,,,,,,,,
,,,,,,,-0.326041667,-0.674074074,1,0,0,0,11,11,4,1,-0.33,-0.67,21,001,2024-11-28_12h56.58.332,Attention_exp_legacy,2023.1.0,Win32,59.88023952,calibration_square,,,,,,,,,,,,,,,,,,,,,,,,,,,,,,,,,,,,,,,,,,,,
,,,,,,,0.669791667,0.674074074,1,0,0,0,12,12,19,1,0.67,0.67,21,001,2024-11-28_12h56.58.332,Attention_exp_legacy,2023.1.0,Win32,59.88023952,calibration_square,,,,,,,,,,,,,,,,,,,,,,,,,,,,,,,,,,,,,,,,,,,,
,,,,,,,-0.002083333,0.32962963,1,0,0,0,13,13,12,1,0,0.33,21,001,2024-11-28_12h56.58.332,Attention_exp_legacy,2023.1.0,Win32,59.88023952,calibration_square,,,,,,,,,,,,,,,,,,,,,,,,,,,,,,,,,,,,,,,,,,,,
,,,,,,,0.004166667,-0.333333333,1,0,0,0,14,14,10,1,0,-0.33,21,001,2024-11-28_12h56.58.332,Attention_exp_legacy,2023.1.0,Win32,59.88023952,calibration_square,,,,,,,,,,,,,,,,,,,,,,,,,,,,,,,,,,,,,,,,,,,,
,,,,,,,-0.667708333,0.011111111,1,0,0,0,15,15,2,1,-0.67,0,21,001,2024-11-28_12h56.58.332,Attention_exp_legacy,2023.1.0,Win32,59.88023952,,,,,,,,,,,,,,,,,,,,,,,,,,,,,,,,,,,,,,,,,,,,,
,,,,,,,-0.330208333,-0.007407407,1,0,0,0,16,16,6,1,-0.33,0,21,001,2024-11-28_12h56.58.332,Attention_exp_legacy,2023.1.0,Win32,59.88023952,calibration_square,,,,,,,,,,,,,,,,,,,,,,,,,,,,,,,,,,,,,,,,,,,,
,,,,,,,0.317708333,0.681481481,1,0,0,0,17,17,18,1,0.33,0.67,21,001,2024-11-28_12h56.58.332,Attention_exp_legacy,2023.1.0,Win32,59.88023952,,,,,,,,,,,,,,,,,,,,,,,,,,,,,,,,,,,,,,,,,,,,,
,,,,,,,0.661458333,-0.67037037,1,0,0,0,18,18,20,1,0.67,-0.67,21,001,2024-11-28_12h56.58.332,Attention_exp_legacy,2023.1.0,Win32,59.88023952,calibration_square,,,,,,,,,,,,,,,,,,,,,,,,,,,,,,,,,,,,,,,,,,,,
,,,,,,,-0.332291667,-0.331481481,1,0,0,0,19,19,5,1,-0.33,-0.33,21,001,2024-11-28_12h56.58.332,Attention_exp_legacy,2023.1.0,Win32,59.88023952,calibration_square,,,,,,,,,,,,,,,,,,,,,,,,,,,,,,,,,,,,,,,,,,,,
,,,,,,,-0.328125,0.675925926,1,0,0,0,20,20,8,1,-0.33,0.67,21,001,2024-11-28_12h56.58.332,Attention_exp_legacy,2023.1.0,Win32,59.88023952,calibration_square,,,,,,,,,,,,,,,,,,,,,,,,,,,,,,,,,,,,,,,,,,,,
,,,,,,,,,,,,,,,,,,,21,001,2024-11-28_12h56.58.332,Attention_exp_legacy,2023.1.0,Win32,59.88023952,,"[1920,1080]","[640,480]",[0.019791666666666666],[-0.5296296296296297],[1],[0],[0],[12.829799999982114],"[""StartButton""]",[0.14479166666666668],[0.17962962962962964],[1],[0],[0],[5.421899999976162],"[""Option2_label""]",Option2_label,1,6.4488,"[[0.019791666666666666,-0.5296296296296297],[0.019791666666666666,-0.5296296296296297],[0.019791666666666666,-0.5296296296296297],[0.019791666666666666,-0.5296296296296297],[0.019791666666666666,-0.5296296296296297],[0.019791666666666666,-0.5296296296296297],[0.019791666666666666,-0.5296296296296297],[0.019791666666666666,-0.5296296296296297],[0.019791666666666666,-0.5296296296296297],[0.019791666666666666,-0.5296296296296297],[0.019791666666666666,-0.5296296296296297],[0.019791666666666666,-0.5296296296296297],[0.019791666666666666,-0.5296296296296297],[0.019791666666666666,-0.5296296296296297],[0.019791666666666666,-0.5296296296296297],[0.019791666666666666,-0.5296296296296297],[0.019791666666666666,-0.5296296296296297],[0.019791666666666666,-0.5296296296296297],[0.019791666666666666,-0.5296296296296297],[0.019791666666666666,-0.5296296296296297],[0.019791666666666666,-0.5296296296296297],[0.019791666666666666,-0.5296296296296297],[0.019791666666666666,-0.5296296296296297],[0.019791666666666666,-0.5296296296296297],[0.019791666666666666,-0.5296296296296297],[0.019791666666666666,-0.5296296296296297],[0.019791666666666666,-0.5296296296296297],[0.019791666666666666,-0.5296296296296297],[0.019791666666666666,-0.5296296296296297],[0.019791666666666666,-0.5296296296296297],[0.019791666666666666,-0.5296296296296297],[0.019791666666666666,-0.5296296296296297],[0.019791666666666666,-0.5296296296296297],[0.019791666666666666,-0.5296296296296297],[0.019791666666666666,-0.5296296296296297],[0.019791666666666666,-0.5296296296296297],[0.019791666666666666,-0.5296296296296297],[0.019791666666666666,-0.5296296296296297],[0.019791666666666666,-0.5296296296296297],[0.019791666666666666,-0.5296296296296297],[0.019791666666666666,-0.5296296296296297],[0.019791666666666666,-0.5296296296296297],[0.019791666666666666,-0.5296296296296297],[0.019791666666666666,-0.5296296296296297],[0.019791666666666666,-0.5296296296296297],[0.019791666666666666,-0.5296296296296297],[0.019791666666666666,-0.5296296296296297],[0.019791666666666666,-0.5296296296296297],[0.019791666666666666,-0.5296296296296297],[0.019791666666666666,-0.5296296296296297],[0.019791666666666666,-0.5296296296296297],[0.019791666666666666,-0.5296296296296297],[0.019791666666666666,-0.5296296296296297],[0.019791666666666666,-0.5296296296296297],[0.019791666666666666,-0.5296296296296297],[0.019791666666666666,-0.5296296296296297],[0.019791666666666666,-0.5296296296296297],[0.019791666666666666,-0.5296296296296297],[0.019791666666666666,-0.5296296296296297],[0.019791666666666666,-0.5296296296296297],[0.019791666666666666,-0.5296296296296297],[0.019791666666666666,-0.5296296296296297],[0.019791666666666666,-0.5296296296296297],[0.019791666666666666,-0.5296296296296297],[0.01875,-0.5296296296296297],[0.01875,-0.5296296296296297],[0.01875,-0.5296296296296297],[0.01875,-0.5296296296296297],[0.01875,-0.5296296296296297],[0.01875,-0.5296296296296297],[0.01875,-0.5296296296296297],[0.01875,-0.5296296296296297],[0.01875,-0.5296296296296297],[0.01875,-0.5296296296296297],[0.01875,-0.5296296296296297],[0.01875,-0.5296296296296297],[0.01875,-0.5296296296296297],[0.01875,-0.5296296296296297],[0.01875,-0.5296296296296297],[0.01875,-0.5296296296296297],[0.01875,-0.5296296296296297],[0.01875,-0.5296296296296297],[0.01875,-0.5296296296296297],[0.01875,-0.5296296296296297],[0.01875,-0.5296296296296297],[0.01875,-0.5296296296296297],[0.01875,-0.5296296296296297],[0.01875,-0.5296296296296297],[0.01875,-0.5296296296296297],[0.01875,-0.5296296296296297],[0.01875,-0.5296296296296297],[0.01875,-0.5296296296296297],[0.01875,-0.5296296296296297],[0.01875,-0.5296296296296297],[0.01875,-0.5296296296296297],[0.017708333333333333,-0.5296296296296297],[0.017708333333333333,-0.5296296296296297],[0.017708333333333333,-0.5296296296296297],[0.017708333333333333,-0.5296296296296297],[0.017708333333333333,-0.5296296296296297],[0.017708333333333333,-0.5296296296296297],[0.017708333333333333,-0.5296296296296297],[0.017708333333333333,-0.5296296296296297],[0.017708333333333333,-0.5296296296296297],[0.017708333333333333,-0.5296296296296297],[0.017708333333333333,-0.5296296296296297],[0.017708333333333333,-0.5296296296296297],[0.017708333333333333,-0.5296296296296297],[0.017708333333333333,-0.5296296296296297],[0.017708333333333333,-0.5296296296296297],[0.017708333333333333,-0.5296296296296297],[0.017708333333333333,-0.5296296296296297],[0.017708333333333333,-0.5296296296296297],[0.016666666666666666,-0.5296296296296297],[0.016666666666666666,-0.5296296296296297],[0.016666666666666666,-0.5296296296296297],[0.016666666666666666,-0.5296296296296297],[0.016666666666666666,-0.5296296296296297],[0.016666666666666666,-0.5296296296296297],[0.016666666666666666,-0.5296296296296297],[0.016666666666666666,-0.5296296296296297],[0.016666666666666666,-0.5296296296296297],[0.016666666666666666,-0.5296296296296297],[0.016666666666666666,-0.5296296296296297],[0.016666666666666666,-0.5296296296296297],[0.016666666666666666,-0.5296296296296297],[0.016666666666666666,-0.5296296296296297],[0.016666666666666666,-0.5296296296296297],[0.016666666666666666,-0.5296296296296297],[0.016666666666666666,-0.5296296296296297],[0.016666666666666666,-0.5296296296296297],[0.016666666666666666,-0.5296296296296297],[0.016666666666666666,-0.5296296296296297],[0.016666666666666666,-0.5296296296296297],[0.016666666666666666,-0.5296296296296297],[0.016666666666666666,-0.5296296296296297],[0.016666666666666666,-0.5296296296296297],[0.016666666666666666,-0.5296296296296297],[0.016666666666666666,-0.5296296296296297],[0.016666666666666666,-0.5296296296296297],[0.016666666666666666,-0.5296296296296297],[0.016666666666666666,-0.5296296296296297],[0.016666666666666666,-0.5296296296296297],[0.016666666666666666,-0.5296296296296297],[0.016666666666666666,-0.5296296296296297],[0.016666666666666666,-0.5296296296296297],[0.016666666666666666,-0.5296296296296297],[0.016666666666666666,-0.5296296296296297],[0.016666666666666666,-0.5296296296296297],[0.016666666666666666,-0.5296296296296297],[0.016666666666666666,-0.5296296296296297],[0.016666666666666666,-0.5296296296296297],[0.016666666666666666,-0.5296296296296297],[0.016666666666666666,-0.5296296296296297],[0.016666666666666666,-0.5296296296296297],[0.016666666666666666,-0.5296296296296297],[0.016666666666666666,-0.5296296296296297],[0.016666666666666666,-0.5296296296296297],[0.016666666666666666,-0.5296296296296297],[0.016666666666666666,-0.5296296296296297],[0.016666666666666666,-0.5296296296296297],[0.016666666666666666,-0.5296296296296297],[0.016666666666666666,-0.5296296296296297],[0.016666666666666666,-0.5296296296296297],[0.016666666666666666,-0.5296296296296297],[0.016666666666666666,-0.5296296296296297],[0.016666666666666666,-0.5296296296296297],[0.016666666666666666,-0.5296296296296297],[0.016666666666666666,-0.5296296296296297],[0.016666666666666666,-0.5296296296296297],[0.016666666666666666,-0.5296296296296297],[0.016666666666666666,-0.5296296296296297],[0.016666666666666666,-0.5296296296296297],[0.016666666666666666,-0.5296296296296297],[0.016666666666666666,-0.5296296296296297],[0.016666666666666666,-0.5296296296296297],[0.016666666666666666,-0.5296296296296297],[0.016666666666666666,-0.5296296296296297],[0.016666666666666666,-0.5296296296296297],[0.016666666666666666,-0.5296296296296297],[0.016666666666666666,-0.5296296296296297],[0.016666666666666666,-0.5296296296296297],[0.016666666666666666,-0.5296296296296297],[0.016666666666666666,-0.5296296296296297],[0.016666666666666666,-0.5296296296296297],[0.016666666666666666,-0.5296296296296297],[0.016666666666666666,-0.5296296296296297],[0.016666666666666666,-0.5296296296296297],[0.016666666666666666,-0.5296296296296297],[0.016666666666666666,-0.5296296296296297],[0.016666666666666666,-0.5296296296296297],[0.016666666666666666,-0.5296296296296297],[0.016666666666666666,-0.5296296296296297],[0.015625,-0.5314814814814814],[0.015625,-0.5314814814814814],[0.015625,-0.5314814814814814],[0.015625,-0.5314814814814814],[0.015625,-0.5314814814814814],[0.015625,-0.5314814814814814],[0.015625,-0.5314814814814814],[0.015625,-0.5314814814814814],[0.015625,-0.5314814814814814],[0.015625,-0.5314814814814814],[0.015625,-0.5314814814814814],[0.015625,-0.5314814814814814],[0.015625,-0.5314814814814814],[0.015625,-0.5314814814814814],[0.015625,-0.5314814814814814],[0.015625,-0.5314814814814814],[0.015625,-0.5314814814814814],[0.015625,-0.5314814814814814],[0.015625,-0.5314814814814814],[0.015625,-0.5314814814814814],[0.015625,-0.5314814814814814],[0.015625,-0.5314814814814814],[0.015625,-0.5314814814814814],[0.015625,-0.5314814814814814],[0.015625,-0.5314814814814814],[0.015625,-0.5314814814814814],[0.015625,-0.5314814814814814],[0.015625,-0.5314814814814814],[0.015625,-0.5314814814814814],[0.015625,-0.5314814814814814],[0.015625,-0.5314814814814814],[0.015625,-0.5314814814814814],[0.015625,-0.5314814814814814],[0.015625,-0.5314814814814814],[0.015625,-0.5314814814814814],[0.015625,-0.5314814814814814],[0.015625,-0.5314814814814814],[0.015625,-0.5314814814814814],[0.015625,-0.5314814814814814],[0.015625,-0.5314814814814814],[0.015625,-0.5314814814814814],[0.015625,-0.5314814814814814],[0.015625,-0.5314814814814814],[0.015625,-0.5333333333333333],[0.016666666666666666,-0.5333333333333333],[0.01875,-0.5333333333333333],[0.019791666666666666,-0.5314814814814814],[0.022916666666666665,-0.5314814814814814],[0.025,-0.5296296296296297],[0.026041666666666668,-0.5296296296296297],[0.027083333333333334,-0.5277777777777778],[0.028125,-0.5277777777777778],[0.030208333333333334,-0.5259259259259259],[0.030208333333333334,-0.5259259259259259],[0.030208333333333334,-0.5259259259259259],[0.03125,-0.524074074074074],[0.03229166666666667,-0.524074074074074],[0.03229166666666667,-0.524074074074074],[0.03229166666666667,-0.524074074074074],[0.03229166666666667,-0.524074074074074],[0.03333333333333333,-0.524074074074074],[0.03333333333333333,-0.524074074074074],[0.035416666666666666,-0.5222222222222223],[0.035416666666666666,-0.5222222222222223],[0.036458333333333336,-0.5222222222222223],[0.0375,-0.5203703703703704],[0.03854166666666667,-0.5185185185185185],[0.041666666666666664,-0.5166666666666667],[0.04791666666666667,-0.5074074074074074],[0.051041666666666666,-0.5037037037037037],[0.052083333333333336,-0.5],[0.05520833333333333,-0.4925925925925926],[0.059375,-0.48148148148148145],[0.065625,-0.45740740740740743],[0.071875,-0.4351851851851852],[0.078125,-0.4148148148148148],[0.08229166666666667,-0.39444444444444443],[0.08229166666666667,-0.387037037037037],[0.084375,-0.3814814814814815],[0.084375,-0.3814814814814815],[0.08645833333333333,-0.37592592592592594],[0.0875,-0.3648148148148148],[0.090625,-0.35555555555555557],[0.09166666666666666,-0.3425925925925926],[0.09375,-0.3333333333333333],[0.09895833333333333,-0.3111111111111111],[0.10729166666666666,-0.2777777777777778],[0.11770833333333333,-0.2351851851851852],[0.12395833333333334,-0.1925925925925926],[0.13229166666666667,-0.14074074074074075],[0.13958333333333334,-0.09259259259259259],[0.14791666666666667,-0.04814814814814815],[0.15208333333333332,0],[0.15729166666666666,0.037037037037037035],[0.159375,0.07037037037037037],[0.1625,0.11851851851851852],[0.16458333333333333,0.14814814814814814],[0.16458333333333333,0.17777777777777778],[0.16458333333333333,0.2],[0.16458333333333333,0.2111111111111111],[0.16458333333333333,0.21481481481481482],[0.16458333333333333,0.21851851851851853],[0.16458333333333333,0.21851851851851853],[0.16458333333333333,0.21851851851851853],[0.16458333333333333,0.21851851851851853],[0.16458333333333333,0.22037037037037038],[0.16354166666666667,0.2222222222222222],[0.16354166666666667,0.2222222222222222],[0.16354166666666667,0.2222222222222222],[0.16041666666666668,0.2222222222222222],[0.15416666666666667,0.22037037037037038],[0.15208333333333332,0.21666666666666667],[0.15104166666666666,0.21296296296296297],[0.15104166666666666,0.2111111111111111],[0.15104166666666666,0.2074074074074074],[0.15104166666666666,0.20185185185185187],[0.14791666666666667,0.19444444444444445],[0.14479166666666668,0.18333333333333332],[0.14479166666666668,0.17962962962962964],[0.14479166666666668,0.17962962962962964],[0.14479166666666668,0.17962962962962964],[0.14479166666666668,0.17962962962962964],[0.14479166666666668,0.17962962962962964],[0.14479166666666668,0.17962962962962964],[0.14479166666666668,0.17962962962962964],[0.14479166666666668,0.17962962962962964],[0.14479166666666668,0.17962962962962964],[0.14479166666666668,0.17962962962962964],[0.14479166666666668,0.17962962962962964],[0.14479166666666668,0.17962962962962964],[0.14479166666666668,0.17962962962962964],[0.14479166666666668,0.17962962962962964],[0.14479166666666668,0.17962962962962964],[0.14479166666666668,0.17962962962962964],[0.14479166666666668,0.17962962962962964],[0.14479166666666668,0.17962962962962964],[0.14479166666666668,0.17962962962962964],[0.14479166666666668,0.17962962962962964],[0.14479166666666668,0.17962962962962964],[0.14479166666666668,0.17962962962962964],[0.14479166666666668,0.17962962962962964],[0.14479166666666668,0.17962962962962964],[0.14479166666666668,0.17962962962962964],[0.14479166666666668,0.17962962962962964],[0.14479166666666668,0.17962962962962964],[0.14479166666666668,0.17962962962962964],[0.14479166666666668,0.17962962962962964],[0.14479166666666668,0.17962962962962964],[0.14479166666666668,0.17962962962962964],[0.14479166666666668,0.17962962962962964],[0.14479166666666668,0.17962962962962964],[0.14479166666666668,0.17962962962962964],[0.14479166666666668,0.17962962962962964],[0.14479166666666668,0.17962962962962964],[0.14479166666666668,0.17962962962962964],[0.14479166666666668,0.17962962962962964],[0.14479166666666668,0.17962962962962964],[0.14479166666666668,0.17962962962962964],[0.14479166666666668,0.17962962962962964],[0.14479166666666668,0.17962962962962964],[0.14479166666666668,0.17962962962962964],[0.14479166666666668,0.17962962962962964],[0.14479166666666668,0.17962962962962964],[0.14479166666666668,0.17962962962962964],[0.14479166666666668,0.17962962962962964],[0.14479166666666668,0.17962962962962964],[0.14479166666666668,0.17962962962962964],[0.14479166666666668,0.17777777777777778],[0.14479166666666668,0.17777777777777778],[0.14479166666666668,0.17777777777777778],[0.14479166666666668,0.17777777777777778],[0.14479166666666668,0.17777777777777778],[0.14479166666666668,0.17777777777777778],[0.14479166666666668,0.17777777777777778],[0.14479166666666668,0.17777777777777778],[0.14479166666666668,0.17777777777777778],[0.14479166666666668,0.17777777777777778],[0.14479166666666668,0.17777777777777778],[0.14479166666666668,0.17777777777777778],[0.14479166666666668,0.17777777777777778],[0.14479166666666668,0.17777777777777778],[0.14479166666666668,0.17777777777777778],[0.14479166666666668,0.17777777777777778],[0.14479166666666668,0.17777777777777778],[0.14479166666666668,0.17777777777777778],[0.14479166666666668,0.17777777777777778],[0.14479166666666668,0.17777777777777778],[0.14479166666666668,0.17777777777777778],[0.14479166666666668,0.17777777777777778],[0.14479166666666668,0.17777777777777778],[0.14479166666666668,0.17777777777777778],[0.14479166666666668,0.17777777777777778],[0.14479166666666668,0.17777777777777778],[0.14479166666666668,0.17777777777777778]]","[[-0.014374999999999952,0.4170370370370371],[-0.014374999999999952,0.4170370370370371],[-0.021979166666666692,0.4088888888888888],[-0.005729166666666666,0.37759259259259254],[-0.005729166666666666,0.37759259259259254],[-0.008124999999999953,0.3301851851851851],[0.02802083333333331,0.2716666666666668],[0.058541666666666714,0.22277777777777769],[0.058541666666666714,0.22277777777777769],[0.11114583333333337,0.22296296296296292],[0.12416666666666672,0.22314814814814815],[0.11416666666666657,0.24814814814814815],[0.10416666666666667,0.27314814814814814],[0.08208333333333329,0.3103703703703704],[0.0821875000000001,0.32833333333333325],[0.11104166666666657,0.33259259259259266],[0.13447916666666657,0.32407407407407407],[0.12083333333333333,0.34388888888888897],[0.11770833333333333,0.3787037037037037],[0.0853125000000001,0.37481481481481477],[0.09249999999999996,0.3709259259259258],[0.19343750000000004,0.2975925925925927],[0.26895833333333335,0.2442592592592592],[0.2720833333333334,0.20703703703703696],[0.29364583333333344,0.15999999999999995],[0.29364583333333344,0.15999999999999995],[0.21875,0.13703703703703704],[0.21875,0.13703703703703704],[0.27239583333333334,0.12018518518518514],[0.27458333333333323,0.09018518518518527],[0.253125,0.08222222222222218],[0.2306250000000001,0.072037037037037],[0.23041666666666671,0.07444444444444454],[0.16916666666666677,0.09074074074074075],[0.10989583333333333,0.07833333333333325],[0.10812499999999996,0.06555555555555552],[0.08791666666666677,0.0625925925925925],[0.12020833333333343,0.09055555555555551],[0.04802083333333336,0.14129629629629623],[0.041770833333333354,0.1962962962962963],[0.04135416666666671,0.2131481481481482],[0.05541666666666671,0.20259259259259255],[0.04718749999999995,0.1794444444444444],[0.009062500000000048,0.20185185185185187],[0.029791666666666692,0.23111111111111102],[0.050833333333333286,0.2368518518518518],[0.07364583333333338,0.2485185185185186],[0.078125,0.24092592592592596],[0.08260416666666662,0.23333333333333334],[0.08479166666666677,0.2448148148148149],[0.09427083333333333,0.2574074074074074],[0.10343749999999995,0.24777777777777768],[0.08677083333333328,0.2574074074074074],[0.07843749999999995,0.2748148148148148],[0.07249999999999991,0.23722222222222225],[0.06625000000000002,0.22314814814814815],[0.06593749999999995,0.22981481481481486],[0.08927083333333338,0.21185185185185182],[0.08624999999999995,0.20759259259259263],[0.07833333333333338,0.1868518518518518],[0.07041666666666657,0.16611111111111118],[0.05927083333333331,0.1983333333333334],[0.07395833333333333,0.21129629629629634],[0.07395833333333333,0.21129629629629634],[0.1476041666666667,0.1712962962962963],[0.1476041666666667,0.1712962962962963],[0.10052083333333334,0.2505555555555555],[0.10052083333333334,0.2505555555555555],[0.07645833333333343,0.30333333333333323],[0.07645833333333343,0.30333333333333323],[0.06281249999999995,0.3333333333333333],[0.06281249999999995,0.3333333333333333],[0.06447916666666664,0.3514814814814814],[0.06447916666666664,0.3514814814814814],[0.06822916666666666,0.3798148148148149],[0.06270833333333338,0.3875925925925925],[0.00614583333333331,0.4401851851851853],[-0.06135416666666664,0.48944444444444435],[-0.07416666666666671,0.49240740740740735],[-0.13062499999999996,0.522037037037037],[-0.11427083333333338,0.48870370370370364],[-0.10593750000000005,0.48351851851851857],[-0.1532291666666667,0.4992592592592593],[-0.21583333333333338,0.5268518518518519],[-0.25416666666666665,0.5305555555555556],[-0.26291666666666663,0.5424074074074073],[-0.22062499999999996,0.5094444444444445],[-0.17979166666666668,0.48055555555555557],[-0.19364583333333332,0.49796296296296294],[-0.19916666666666671,0.5005555555555554],[-0.19458333333333327,0.5037037037037037],[-0.215625,0.5518518518518518],[-0.19916666666666671,0.5751851851851852],[-0.1857291666666666,0.5674074074074074],[-0.17229166666666665,0.5596296296296297],[-0.18562500000000004,0.5551851851851851],[-0.16781250000000003,0.5587037037037038],[-0.1273958333333333,0.5174074074074073],[-0.10364583333333334,0.5137037037037037],[-0.096875,0.5425925925925926],[-0.08322916666666665,0.5705555555555556],[-0.04833333333333331,0.5429629629629631],[0.0009374999999999763,0.48555555555555563],[0.01572916666666669,0.487962962962963],[0.000416666666666643,0.507037037037037],[-0.008437500000000023,0.5351851851851852],[0.00947916666666669,0.5277777777777778],[0.00625,0.5611111111111111],[0.019687499999999976,0.5568518518518519],[0.04052083333333331,0.5753703703703704],[0.05447916666666662,0.5948148148148149],[0.0484375,0.5946296296296296],[0.02802083333333331,0.6242592592592593],[0.04208333333333331,0.6153703703703702],[0.08208333333333329,0.5951851851851852],[0.14885416666666676,0.5650000000000001],[0.14104166666666676,0.5659259259259259],[0.11333333333333329,0.5674074074074074],[0.13958333333333334,0.5709259259259258],[0.12854166666666675,0.5316666666666667],[0.12979166666666658,0.4722222222222222],[0.11729166666666657,0.4842592592592593],[0.10479166666666657,0.4962962962962963],[0.09385416666666657,0.5253703703703705],[0.09385416666666657,0.5253703703703705],[0.08739583333333342,0.5120370370370371],[0.10739583333333323,0.4794444444444444],[0.14406249999999995,0.4433333333333333],[0.1586458333333333,0.43129629629629623],[0.11927083333333334,0.41722222222222216],[0.15052083333333333,0.39740740740740743],[0.1694791666666667,0.3977777777777777],[0.2115624999999999,0.3551851851851851],[0.2335416666666667,0.3087037037037038],[0.2569791666666667,0.25500000000000006],[0.2569791666666667,0.25500000000000006],[0.3021874999999999,0.24370370370370376],[0.27218749999999997,0.2855555555555556],[0.2421875,0.3274074074074073],[0.24354166666666663,0.35759259259259263],[0.24510416666666662,0.38074074074074077],[0.2367708333333333,0.368888888888889],[0.22843749999999996,0.35703703703703693],[0.2039583333333333,0.3475925925925927],[0.19958333333333325,0.34203703703703714],[0.2033333333333334,0.3446296296296297],[0.18499999999999991,0.3418518518518519],[0.1896874999999999,0.3148148148148148],[0.16416666666666657,0.2616666666666666],[0.1492708333333333,0.1955555555555556],[0.1546875,0.15537037037037033],[0.13802083333333334,0.15833333333333333],[0.18479166666666677,0.13907407407407413],[0.24770833333333328,0.11740740740740736],[0.22958333333333342,0.1264814814814814],[0.19802083333333323,0.12851851851851848],[0.1609375,0.12629629629629638],[0.1484375,0.1388888888888889],[0.16614583333333333,0.17759259259259255],[0.10229166666666671,0.21592592592592597],[0.013125000000000024,0.2368518518518518],[0.019166666666666644,0.2175925925925926],[-0.06177083333333329,0.24166666666666667],[-0.13718750000000005,0.2716666666666668],[-0.13156249999999994,0.27092592592592585],[-0.10302083333333331,0.22537037037037044],[-0.06895833333333339,0.18407407407407403],[-0.07145833333333336,0.18462962962962973],[-0.07947916666666661,0.19703703703703698],[0.029895833333333382,0.17759259259259255],[0.13916666666666658,0.14944444444444452],[0.16875,0.15555555555555556],[0.21052083333333324,0.15259259259259256],[0.24677083333333344,0.14370370370370375],[0.30739583333333326,0.1175925925925926],[0.35041666666666677,0.13518518518518519],[0.3507291666666667,0.16648148148148145],[0.3619791666666667,0.14148148148148143],[0.4161458333333333,0.08499999999999996],[0.4344791666666666,0.06074074074074066],[0.45770833333333344,0.043703703703703745],[0.4273958333333333,0.04203703703703712],[0.4273958333333333,0.04203703703703712],[0.4084374999999999,0.02833333333333325],[0.4084374999999999,0.02833333333333325],[0.39739583333333334,0.01648148148148144],[0.3803124999999999,0.09388888888888898],[0.3129166666666668,0.26851851851851855],[0.29093749999999996,0.427962962962963],[0.2211458333333333,0.6546296296296297],[0.11395833333333343,0.9009259259259259],[0.049479166666666664,1.1375925925925925],[-0.02322916666666662,1.318148148148148],[-0.06302083333333333,1.482777777777778],[-0.04750000000000002,1.5040740740740741],[-0.04750000000000002,1.5040740740740741],[-0.021875,1.531851851851852],[-0.021875,1.531851851851852],[-0.027291666666666714,1.4909259259259258],[0.02781250000000005,1.344814814814815],[0.02781250000000005,1.344814814814815],[0.06885416666666658,1.2027777777777777],[0.1508333333333333,0.9777777777777777],[0.1508333333333333,0.9777777777777777],[0.2328125,0.7527777777777778],[0.2328125,0.7527777777777778],[0.26875,0.5387037037037037],[0.28760416666666655,0.3696296296296297],[0.3115624999999999,0.20703703703703696],[0.33739583333333345,0.1911111111111112],[0.3375,0.172037037037037],[0.3398958333333333,0.13574074074074066],[0.3398958333333333,0.13574074074074066],[0.28104166666666663,0.12685185185185185],[0.2852083333333333,0.09074074074074075],[0.27406249999999993,0.10777777777777786],[0.2865624999999999,0.12129629629629629],[0.3094791666666666,0.1316666666666667],[0.3567708333333333,0.152962962962963],[0.39000000000000007,0.15777777777777785],[0.3233333333333334,0.22111111111111106],[0.26437499999999997,0.27925925925925915],[0.23552083333333323,0.31666666666666665],[0.3141666666666666,0.28703703703703703],[0.3246875000000001,0.31074074074074065],[0.35739583333333325,0.297037037037037],[0.3341666666666666,0.27074074074074084],[0.3178124999999999,0.26351851851851843],[0.3023958333333333,0.2564814814814815],[0.27791666666666665,0.29370370370370374],[0.2961458333333333,0.26907407407407397],[0.3498958333333334,0.21092592592592588],[0.38395833333333323,0.1874074074074075],[0.34260416666666677,0.2162962962962962],[0.3129166666666668,0.22314814814814815],[0.29406249999999995,0.24388888888888896],[0.31197916666666664,0.29148148148148145],[0.2894791666666668,0.3331481481481481],[0.2669791666666666,0.37481481481481477],[0.2679166666666667,0.3551851851851851],[0.26885416666666656,0.33555555555555566],[0.2247916666666666,0.38555555555555565],[0.18072916666666666,0.43555555555555564],[0.1696875000000001,0.44592592592592584],[0.13833333333333328,0.46944444444444444],[0.09760416666666671,0.45],[0.03218749999999997,0.452962962962963],[-0.013854166666666619,0.47537037037037044],[-0.03166666666666664,0.44425925925925924],[-0.04125000000000002,0.469074074074074],[-0.05354166666666664,0.5044444444444444],[-0.05635416666666669,0.5037037037037037],[-0.05916666666666662,0.5029629629629631],[-0.13718750000000005,0.5703703703703704],[-0.12604166666666666,0.5742592592592592],[-0.12479166666666662,0.592962962962963],[-0.10333333333333337,0.5785185185185184],[-0.08656250000000003,0.553888888888889],[-0.07749999999999997,0.5762962962962964],[-0.0702083333333333,0.5511111111111111],[-0.08083333333333335,0.5364814814814816],[-0.08083333333333335,0.5364814814814816],[-0.06958333333333329,0.5087037037037038],[-0.06958333333333329,0.5087037037037038],[-0.05802083333333338,0.522962962962963],[-0.010416666666666666,0.48629629629629634],[-0.02687499999999995,0.4933333333333333],[-0.0234375,0.528888888888889],[-0.036562500000000026,0.543148148148148],[-0.03791666666666664,0.5368518518518518],[-0.04635416666666667,0.5531481481481483],[-0.04854166666666669,0.5648148148148148],[-0.05770833333333331,0.5816666666666667],[-0.08875000000000005,0.6116666666666666],[-0.06812499999999998,0.5527777777777778],[-0.04614583333333329,0.5296296296296297],[-0.024166666666666715,0.5064814814814815],[-0.058124999999999954,0.5135185185185185],[-0.028125,0.524074074074074],[-0.009895833333333333,0.549074074074074],[-0.005104166666666643,0.5579629629629629],[0.022187499999999954,0.5729629629629629],[0.05541666666666671,0.5416666666666666],[0.07041666666666657,0.5403703703703703],[0.03343750000000002,0.5859259259259259],[0.011249999999999953,0.5988888888888888],[0.017604166666666643,0.5625925925925925],[0.08989583333333329,0.4762962962962964],[0.08729166666666661,0.3937037037037037],[0.1109375,0.31925925925925924],[0.12260416666666671,0.2518518518518518],[0.09874999999999995,0.2081481481481481],[0.08739583333333342,0.18351851851851855],[0.09427083333333333,0.12888888888888894],[0.09697916666666657,0.07259259259259268],[0.11427083333333338,0.03537037037037041],[0.1046875,0.04537037037037037],[0.07364583333333338,0.06092592592592588],[0.1146874999999999,0.06925925925925921],[0.10760416666666663,0.04425925925925922],[0.09229166666666658,0.043703703703703745],[0.07958333333333342,-0.018518518518518517],[0.07958333333333342,-0.018518518518518517],[0.09489583333333323,-0.03185185185185194],[0.09489583333333323,-0.03185185185185194],[0.1,-0.027407407407407325],[0.1068749999999999,-0.028518518518518478],[0.08979166666666671,-0.01962962962962967],[0.1321875000000001,-0.017592592592592594],[0.14052083333333343,-0.03037037037037033],[0.10427083333333324,-0.021851851851851768],[0.07239583333333334,0.03462962962962971],[0.06072916666666662,0.05962962962962971],[0.05656249999999995,0.11555555555555551],[0.05656249999999995,0.11555555555555551],[0.044479166666666715,0.12259259259259268],[0.044479166666666715,0.12259259259259268],[0.025833333333333285,0.14425925925925923],[0.025833333333333285,0.14425925925925923],[0.008645833333333287,0.14740740740740746],[0.008645833333333287,0.14740740740740746],[-0.006458333333333381,0.15537037037037033],[-0.006458333333333381,0.15537037037037033],[-0.03854166666666667,0.13833333333333342],[-0.03854166666666667,0.13833333333333342],[-0.036562500000000026,0.1361111111111111],[-0.036562500000000026,0.1361111111111111],[-0.06541666666666662,0.15851851851851856],[-0.06468750000000002,0.1609259259259259],[-0.025625000000000023,0.10203703703703708],[-0.042499999999999954,0.12259259259259268],[-0.018437500000000048,0.13148148148148148],[-0.011354166666666643,0.14833333333333337],[-0.0021875000000000236,0.19666666666666674],[0.02322916666666662,0.22555555555555548],[0.01260416666666669,0.24000000000000005],[0.001979166666666643,0.2544444444444444],[0.02354166666666669,0.2601851851851852],[0.027187500000000024,0.2681481481481481],[0.029375000000000047,0.32148148148148153],[0.09270833333333334,0.31259259259259253],[0.10416666666666667,0.3162962962962962],[0.11114583333333337,0.3257407407407407],[0.11697916666666662,0.32944444444444443],[0.11447916666666676,0.3198148148148149],[0.11031250000000009,0.36370370370370364],[0.13802083333333334,0.4027777777777778],[0.16145833333333334,0.4140740740740741],[0.2025000000000001,0.405925925925926],[0.18416666666666662,0.39814814814814814],[0.18416666666666662,0.39814814814814814],[0.15052083333333333,0.4038888888888889],[0.1359375,0.40259259259259256],[0.14249999999999996,0.36425925925925934],[0.1490624999999999,0.32592592592592595],[0.1640625,0.30574074074074076],[0.1640625,0.30574074074074076],[0.17260416666666673,0.2803703703703703],[0.17739583333333328,0.2614814814814816],[0.17541666666666675,0.23444444444444448],[0.1734375,0.2074074074074074],[0.21687500000000004,0.1675925925925926],[0.2603125000000001,0.12777777777777777],[0.23552083333333323,0.11833333333333329],[0.23552083333333323,0.11833333333333329],[0.22781250000000006,0.09981481481481477],[0.23166666666666677,0.11777777777777781],[0.23645833333333333,0.1307407407407408],[0.25770833333333343,0.10629629629629625],[0.2808333333333332,0.0668518518518519],[0.27531249999999996,0.05185185185185185],[0.26979166666666665,0.03351851851851856],[0.2413541666666667,0.04351851851851852],[0.17197916666666657,0.10203703703703708],[0.1404166666666666,0.14592592592592585],[0.17697916666666677,0.1581481481481481],[0.20270833333333324,0.15203703703703708],[0.1772916666666667,0.15481481481481485],[0.13541666666666666,0.19499999999999992],[0.06687500000000005,0.22444444444444453],[0.036666666666666715,0.24944444444444452],[0.008124999999999953,0.2831481481481481],[-0.02041666666666669,0.3168518518518519],[0.014999999999999977,0.3072222222222222],[0.06177083333333329,0.28888888888888886],[0.049270833333333285,0.29685185185185176],[0.005208333333333333,0.27259259259259266]]","[[-0.014374999999999952,0.4170370370370371,0.0002999999821184929],[-0.014374999999999952,0.4170370370370371,0.03719999998807566],[-0.021979166666666692,0.4088888888888888,0.04899999999999238],[-0.005729166666666666,0.37759259259259254,0.06559999999403487],[-0.005729166666666666,0.37759259259259254,0.07869999998807486],[-0.008124999999999953,0.3301851851851851,0.0951999999880826],[0.02802083333333331,0.2716666666666668,0.11179999998211088],[0.058541666666666714,0.22277777777777769,0.12859999999403726],[0.058541666666666714,0.22277777777777769,0.14519999998807975],[0.11114583333333337,0.22296296296296292,0.16179999998212224],[0.12416666666666672,0.22314814814814815,0.17859999999403442],[0.11416666666666657,0.24814814814814815,0.19529999998211167],[0.10416666666666667,0.27314814814814814,0.21190000000595433],[0.08208333333333329,0.3103703703703704,0.22849999999999682],[0.0821875000000001,0.32833333333333325,0.2455999999940417],[0.11104166666666657,0.33259259259259266,0.2619000000059657],[0.13447916666666657,0.32407407407407407,0.27859999999404295],[0.12083333333333333,0.34388888888888897,0.2952999999821202],[0.11770833333333333,0.3787037037037037,0.3119999999999976],[0.0853125000000001,0.37481481481481477,0.32850000000000534],[0.09249999999999996,0.3709259259259258,0.3451999999880826],[0.19343750000000004,0.2975925925925927,0.36190000000596],[0.26895833333333335,0.2442592592592592,0.378799999982121],[0.2720833333333334,0.20703703703703696,0.39519999998807975],[0.29364583333333344,0.15999999999999995,0.41499999999999204],[0.29364583333333344,0.15999999999999995,0.43390000000596274],[0.21875,0.13703703703703704,0.4531999999880725],[0.21875,0.13703703703703704,0.4619000000059543],[0.27239583333333334,0.12018518518518514,0.4785999999940316],[0.27458333333333323,0.09018518518518527,0.49519999998807407],[0.253125,0.08222222222222218,0.5119000000059657],[0.2306250000000001,0.072037037037037,0.528599999994043],[0.23041666666666671,0.07444444444444454,0.5454000000059551],[0.16916666666666677,0.09074074074074075,0.5617999999821137],[0.10989583333333333,0.07833333333333325,0.5785999999940401],[0.10812499999999996,0.06555555555555552,0.5951999999880826],[0.08791666666666677,0.0625925925925925,0.61190000000596],[0.12020833333333343,0.09055555555555551,0.6285000000000025],[0.04802083333333336,0.14129629629629623,0.6451999999880798],[0.041770833333333354,0.1962962962962963,0.6617999999821222],[0.04135416666666671,0.2131481481481482,0.6784999999999997],[0.05541666666666671,0.20259259259259255,0.6951999999880769],[0.04718749999999995,0.1794444444444444,0.7119000000059543],[0.009062500000000048,0.20185185185185187,0.7284999999999968],[0.029791666666666692,0.23111111111111102,0.7451999999880741],[0.050833333333333286,0.2368518518518518,0.7619000000059657],[0.07364583333333338,0.2485185185185186,0.778499999999994],[0.078125,0.24092592592592596,0.7952999999821202],[0.08260416666666662,0.23333333333333334,0.8117999999821137],[0.08479166666666677,0.2448148148148149,0.8285999999940401],[0.09427083333333333,0.2574074074074074,0.8451999999880826],[0.10343749999999995,0.24777777777777768,0.8617999999821109],[0.08677083333333328,0.2574074074074074,0.8785999999940373],[0.07843749999999995,0.2748148148148148,0.8952999999821145],[0.07249999999999991,0.23722222222222225,0.9117999999821222],[0.06625000000000002,0.22314814814814815,0.9284999999999997],[0.06593749999999995,0.22981481481481486,0.9451999999880769],[0.08927083333333338,0.21185185185185182,0.9619000000059543],[0.08624999999999995,0.20759259259259263,0.9784999999999968],[0.07833333333333338,0.1868518518518518,0.9951999999880741],[0.07041666666666657,0.16611111111111118,1.0119000000059657],[0.05927083333333331,0.1983333333333334,1.028499999999994],[0.07395833333333333,0.21129629629629634,1.0457999999821226],[0.07395833333333333,0.21129629629629634,1.0619999999999976],[0.1476041666666667,0.1712962962962963,1.084799999982124],[0.1476041666666667,0.1712962962962963,1.0951999999880826],[0.10052083333333334,0.2505555555555555,1.11190000000596],[0.10052083333333334,0.2505555555555555,1.1285000000000025],[0.07645833333333343,0.30333333333333323,1.1452999999821145],[0.07645833333333343,0.30333333333333323,1.1619000000059572],[0.06281249999999995,0.3333333333333333,1.1784999999999997],[0.06281249999999995,0.3333333333333333,1.1952999999821117],[0.06447916666666664,0.3514814814814814,1.2117999999821194],[0.06447916666666664,0.3514814814814814,1.2285999999940316],[0.06822916666666666,0.3798148148148149,1.2456999999880765],[0.06270833333333338,0.3875925925925925,1.2619000000059657],[0.00614583333333331,0.4401851851851853,1.278499999999994],[-0.06135416666666664,0.48944444444444435,1.2951999999880712],[-0.07416666666666671,0.49240740740740735,1.3117999999821137],[-0.13062499999999996,0.522037037037037,1.3285000000000053],[-0.11427083333333338,0.48870370370370364,1.3451999999880826],[-0.10593750000000005,0.48351851851851857,1.3617999999821109],[-0.1532291666666667,0.4992592592592593,1.3785000000000025],[-0.21583333333333338,0.5268518518518519,1.3951999999880798],[-0.25416666666666665,0.5305555555555556,1.4119000000059572],[-0.26291666666666663,0.5424074074074073,1.4284999999999997],[-0.22062499999999996,0.5094444444444445,1.445199999988077],[-0.17979166666666668,0.48055555555555557,1.4617999999821194],[-0.19364583333333332,0.49796296296296294,1.4784999999999968],[-0.19916666666666671,0.5005555555555554,1.495199999988074],[-0.19458333333333327,0.5037037037037037,1.5117999999821166],[-0.215625,0.5518518518518518,1.528499999999994],[-0.19916666666666671,0.5751851851851852,1.5480000000000018],[-0.1857291666666666,0.5674074074074074,1.5619000000059629],[-0.17229166666666665,0.5596296296296297,1.5785000000000053],[-0.18562500000000004,0.5551851851851851,1.5974999999999966],[-0.16781250000000003,0.5587037037037038,1.61190000000596],[-0.1273958333333333,0.5174074074074073,1.6285000000000025],[-0.10364583333333334,0.5137037037037037,1.6451999999880798],[-0.096875,0.5425925925925926,1.6619000000059572],[-0.08322916666666665,0.5705555555555556,1.6785999999940344],[-0.04833333333333331,0.5429629629629631,1.695199999988077],[0.0009374999999999763,0.48555555555555563,1.7119000000059543],[0.01572916666666669,0.487962962962963,1.7284999999999968],[0.000416666666666643,0.507037037037037,1.745199999988074],[-0.008437500000000023,0.5351851851851852,1.7619000000059657],[0.00947916666666669,0.5277777777777778,1.778599999994043],[0.00625,0.5611111111111111,1.7951999999880712],[0.019687499999999976,0.5568518518518519,1.8119000000059629],[0.04052083333333331,0.5753703703703704,1.8285000000000053],[0.05447916666666662,0.5948148148148149,1.8451999999880826],[0.0484375,0.5946296296296296,1.8617999999821109],[0.02802083333333331,0.6242592592592593,1.8785000000000025],[0.04208333333333331,0.6153703703703702,1.8976999999880775],[0.08208333333333329,0.5951851851851852,1.9131999999880804],[0.14885416666666676,0.5650000000000001,1.9284999999999997],[0.14104166666666676,0.5659259259259259,1.945199999988077],[0.11333333333333329,0.5674074074074074,1.9617999999821194],[0.13958333333333334,0.5709259259259258,1.9784999999999968],[0.12854166666666675,0.5316666666666667,1.9950999999940393],[0.12979166666666658,0.4722222222222222,2.0119000000059657],[0.11729166666666657,0.4842592592592593,2.028400000005959],[0.10479166666666657,0.4962962962962963,2.0451999999880712],[0.09385416666666657,0.5253703703703705,2.0619999999999976],[0.09385416666666657,0.5253703703703705,2.078699999988075],[0.08739583333333342,0.5120370370370371,2.0952999999821174],[0.10739583333333323,0.4794444444444444,2.1119999999999948],[0.14406249999999995,0.4433333333333333,2.1285000000000025],[0.1586458333333333,0.43129629629629623,2.1451999999880798],[0.11927083333333334,0.41722222222222216,2.161900000005957],[0.15052083333333333,0.39740740740740743,2.1784999999999997],[0.1694791666666667,0.3977777777777777,2.195199999988077],[0.2115624999999999,0.3551851851851851,2.212199999988073],[0.2335416666666667,0.3087037037037038,2.228499999999997],[0.2569791666666667,0.25500000000000006,2.248400000005958],[0.2569791666666667,0.25500000000000006,2.2617999999821166],[0.3021874999999999,0.24370370370370376,2.278499999999994],[0.27218749999999997,0.2855555555555556,2.29529999998212],[0.2421875,0.3274074074074073,2.311900000005963],[0.24354166666666663,0.35759259259259263,2.3289000000059588],[0.24510416666666662,0.38074074074074077,2.3451999999880826],[0.2367708333333333,0.368888888888889,2.361799999982111],[0.22843749999999996,0.35703703703703693,2.3785000000000025],[0.2039583333333333,0.3475925925925927,2.3951999999880798],[0.19958333333333325,0.34203703703703714,2.411900000005957],[0.2033333333333334,0.3446296296296297,2.4284999999999997],[0.18499999999999991,0.3418518518518519,2.445199999988077],[0.1896874999999999,0.3148148148148148,2.4620000000000033],[0.16416666666666657,0.2616666666666666,2.478499999999997],[0.1492708333333333,0.1955555555555556,2.4950999999940393],[0.1546875,0.15537037037037033,2.5117999999821166],[0.13802083333333334,0.15833333333333333,2.528499999999994],[0.18479166666666677,0.13907407407407413,2.5451999999880712],[0.24770833333333328,0.11740740740740736,2.561900000005963],[0.22958333333333342,0.1264814814814814,2.5785000000000053],[0.19802083333333323,0.12851851851851848,2.5951999999880826],[0.1609375,0.12629629629629638,2.611799999982111],[0.1484375,0.1388888888888889,2.6285000000000025],[0.16614583333333333,0.17759259259259255,2.6451999999880798],[0.10229166666666671,0.21592592592592597,2.6617999999821222],[0.013125000000000024,0.2368518518518518,2.6784999999999997],[0.019166666666666644,0.2175925925925926,2.695199999988077],[-0.06177083333333329,0.24166666666666667,2.7119000000059543],[-0.13718750000000005,0.2716666666666668,2.7285999999940316],[-0.13156249999999994,0.27092592592592585,2.7465999999940323],[-0.10302083333333331,0.22537037037037044,2.7617999999821166],[-0.06895833333333339,0.18407407407407403,2.778499999999994],[-0.07145833333333336,0.18462962962962973,2.7951999999880712],[-0.07947916666666661,0.19703703703703698,2.811900000005963],[0.029895833333333382,0.17759259259259255,2.8285000000000053],[0.13916666666666658,0.14944444444444452,2.8451999999880826],[0.16875,0.15555555555555556,2.86190000000596],[0.21052083333333324,0.15259259259259256,2.8785000000000025],[0.24677083333333344,0.14370370370370375,2.8951999999880798],[0.30739583333333326,0.1175925925925926,2.911900000005957],[0.35041666666666677,0.13518518518518519,2.9285999999940344],[0.3507291666666667,0.16648148148148145,2.945199999988077],[0.3619791666666667,0.14148148148148143,2.9617999999821194],[0.4161458333333333,0.08499999999999996,2.978499999999997],[0.4344791666666666,0.06074074074074066,2.995199999988074],[0.45770833333333344,0.043703703703703745,3.0119000000059657],[0.4273958333333333,0.04203703703703712,3.028599999994043],[0.4273958333333333,0.04203703703703712,3.0451999999880712],[0.4084374999999999,0.02833333333333325,3.061900000005963],[0.4084374999999999,0.02833333333333325,3.07859999999404],[0.39739583333333334,0.01648148148148144,3.0951999999880826],[0.3803124999999999,0.09388888888888898,3.111799999982111],[0.3129166666666668,0.26851851851851855,3.1285999999940373],[0.29093749999999996,0.427962962962963,3.148900000005966],[0.2211458333333333,0.6546296296296297,3.1640000000000015],[0.11395833333333343,0.9009259259259259,3.1784999999999997],[0.049479166666666664,1.1375925925925925,3.195099999994042],[-0.02322916666666662,1.318148148148148,3.2150000000000034],[-0.06302083333333333,1.482777777777778,3.2316999999880807],[-0.04750000000000002,1.5040740740740741,3.2510000000000048],[-0.04750000000000002,1.5040740740740741,3.2619000000059657],[-0.021875,1.531851851851852,3.278499999999994],[-0.021875,1.531851851851852,3.2951999999880712],[-0.027291666666666714,1.4909259259259258,3.311900000005963],[0.02781250000000005,1.344814814814815,3.3349999999999937],[0.02781250000000005,1.344814814814815,3.3451999999880826],[0.06885416666666658,1.2027777777777777,3.36190000000596],[0.1508333333333333,0.9777777777777777,3.383499999999998],[0.1508333333333333,0.9777777777777777,3.395099999994045],[0.2328125,0.7527777777777778,3.4117999999821222],[0.2328125,0.7527777777777778,3.4284999999999997],[0.26875,0.5387037037037037,3.445199999988077],[0.28760416666666655,0.3696296296296297,3.4656999999880753],[0.3115624999999999,0.20703703703703696,3.4801999999880735],[0.33739583333333345,0.1911111111111112,3.495199999988074],[0.3375,0.172037037037037,3.5117999999821166],[0.3398958333333333,0.13574074074074066,3.528499999999994],[0.3398958333333333,0.13574074074074066,3.5451999999880712],[0.28104166666666663,0.12685185185185185,3.5617999999821137],[0.2852083333333333,0.09074074074074075,3.5785000000000053],[0.27406249999999993,0.10777777777777786,3.5951999999880826],[0.2865624999999999,0.12129629629629629,3.61190000000596],[0.3094791666666666,0.1316666666666667,3.6284000000059535],[0.3567708333333333,0.152962962962963,3.6451999999880798],[0.39000000000000007,0.15777777777777785,3.6617999999821222],[0.3233333333333334,0.22111111111111106,3.6785999999940344],[0.26437499999999997,0.27925925925925915,3.695099999994042],[0.23552083333333323,0.31666666666666665,3.7117999999821194],[0.3141666666666666,0.28703703703703703,3.728499999999997],[0.3246875000000001,0.31074074074074065,3.745199999988074],[0.35739583333333325,0.297037037037037,3.7617999999821166],[0.3341666666666666,0.27074074074074084,3.778499999999994],[0.3178124999999999,0.26351851851851843,3.7950999999940365],[0.3023958333333333,0.2564814814814815,3.811900000005963],[0.27791666666666665,0.29370370370370374,3.8285000000000053],[0.2961458333333333,0.26907407407407397,3.845599999994036],[0.3498958333333334,0.21092592592592588,3.86190000000596],[0.38395833333333323,0.1874074074074075,3.8785000000000025],[0.34260416666666677,0.2162962962962962,3.895599999994033],[0.3129166666666668,0.22314814814814815,3.9117999999821222],[0.29406249999999995,0.24388888888888896,3.9284999999999997],[0.31197916666666664,0.29148148148148145,3.948299999982112],[0.2894791666666668,0.3331481481481481,3.9624000000059567],[0.2669791666666666,0.37481481481481477,3.9786999999880805],[0.2679166666666667,0.3551851851851851,3.995299999982123],[0.26885416666666656,0.33555555555555566,4.014699999988082],[0.2247916666666666,0.38555555555555565,4.028599999994043],[0.18072916666666666,0.43555555555555564,4.04640000000596],[0.1696875000000001,0.44592592592592584,4.066299999982121],[0.13833333333333328,0.46944444444444444,4.082900000005964],[0.09760416666666671,0.45,4.098699999988085],[0.03218749999999997,0.452962962962963,4.112099999994044],[-0.013854166666666619,0.47537037037037044,4.1285000000000025],[-0.03166666666666664,0.44425925925925924,4.14819999998808],[-0.04125000000000002,0.469074074074074,4.162000000000006],[-0.05354166666666664,0.5044444444444444,4.1785],[-0.05635416666666669,0.5037037037037037,4.195299999982112],[-0.05916666666666662,0.5029629629629631,4.211799999982119],[-0.13718750000000005,0.5703703703703704,4.2310999999940435],[-0.12604166666666666,0.5742592592592592,4.2456999999880765],[-0.12479166666666662,0.592962962962963,4.2620000000000005],[-0.10333333333333337,0.5785185185185184,4.278499999999994],[-0.08656250000000003,0.553888888888889,4.298199999988071],[-0.07749999999999997,0.5762962962962964,4.314599999994044],[-0.0702083333333333,0.5511111111111111,4.330099999994033],[-0.08083333333333335,0.5364814814814816,4.349299999982122],[-0.08083333333333335,0.5364814814814816,4.372],[-0.06958333333333329,0.5087037037037038,4.387799999982121],[-0.06958333333333329,0.5087037037037038,4.411099999994036],[-0.05802083333333338,0.522962962962963,4.415099999994041],[-0.010416666666666666,0.48629629629629634,4.428599999994034],[-0.02687499999999995,0.4933333333333333,4.445400000005961],[-0.0234375,0.528888888888889,4.464900000005954],[-0.036562500000000026,0.543148148148148,4.480000000000004],[-0.03791666666666664,0.5368518518518518,4.495400000005958],[-0.04635416666666667,0.5531481481481483,4.5157999999821214],[-0.04854166666666669,0.5648148148148148,4.529499999999999],[-0.05770833333333331,0.5816666666666667,4.545699999988074],[-0.08875000000000005,0.6116666666666666,4.561999999999998],[-0.06812499999999998,0.5527777777777778,4.5814000000059565],[-0.04614583333333329,0.5296296296296297,4.595500000000001],[-0.024166666666666715,0.5064814814814815,4.61190000000596],[-0.058124999999999954,0.5135185185185185,4.630400000005963],[-0.028125,0.524074074074074,4.6452999999821145],[-0.009895833333333333,0.549074074074074,4.662099999994041],[-0.005104166666666643,0.5579629629629629,4.678699999988083],[0.022187499999999954,0.5729629629629629,4.697400000005956],[0.05541666666666671,0.5416666666666666,4.711900000005954],[0.07041666666666657,0.5403703703703703,4.7286999999880805],[0.03343750000000002,0.5859259259259259,4.745299999982123],[0.011249999999999953,0.5988888888888888,4.765000000000001],[0.017604166666666643,0.5625925925925925,4.778599999994043],[0.08989583333333329,0.4762962962962964,4.795599999994039],[0.08729166666666661,0.3937037037037037,4.815599999994035],[0.1109375,0.31925925925925924,4.830299999982117],[0.12260416666666671,0.2518518518518518,4.846900000005959],[0.09874999999999995,0.2081481481481481,4.8644999999999925],[0.08739583333333342,0.18351851851851855,4.878699999988072],[0.09427083333333333,0.12888888888888894,4.895400000005964],[0.09697916666666657,0.07259259259259268,4.912000000000006],[0.11427083333333338,0.03537037037037041,4.928400000005965],[0.1046875,0.04537037037037037,4.945099999994042],[0.07364583333333338,0.06092592592592588,4.961799999982119],[0.1146874999999999,0.06925925925925921,4.980599999994041],[0.10760416666666663,0.04425925925925922,4.995299999982123],[0.09229166666666658,0.043703703703703745,5.011799999982117],[0.07958333333333342,-0.018518518518518517,5.028499999999994],[0.07958333333333342,-0.018518518518518517,5.04829999998212],[0.09489583333333323,-0.03185185185185194,5.062199999988081],[0.09489583333333323,-0.03185185185185194,5.078900000005959],[0.1,-0.027407407407407325,5.0954000000059665],[0.1068749999999999,-0.028518518518518478,5.114099999994039],[0.08979166666666671,-0.01962962962962967,5.128599999994037],[0.1321875000000001,-0.017592592592592594,5.1461999999880845],[0.14052083333333343,-0.03037037037037033,5.161900000005957],[0.10427083333333324,-0.021851851851851768,5.182900000005958],[0.07239583333333334,0.03462962962962971,5.19759999999404],[0.06072916666666662,0.05962962962962971,5.213299999982112],[0.05656249999999995,0.11555555555555551,5.234900000005965],[0.05656249999999995,0.11555555555555551,5.245299999982123],[0.044479166666666715,0.12259259259259268,5.2620000000000005],[0.044479166666666715,0.12259259259259268,5.278699999988078],[0.025833333333333285,0.14425925925925923,5.2950999999940365],[0.025833333333333285,0.14425925925925923,5.311799999982114],[0.008645833333333287,0.14740740740740746,5.328500000000005],[0.008645833333333287,0.14740740740740746,5.3454000000059665],[-0.006458333333333381,0.15537037037037033,5.361799999982111],[-0.006458333333333381,0.15537037037037033,5.3785000000000025],[-0.03854166666666667,0.13833333333333342,5.395099999994045],[-0.03854166666666667,0.13833333333333342,5.411799999982122],[-0.036562500000000026,0.1361111111111111,5.428599999994034],[-0.036562500000000026,0.1361111111111111,5.445299999982112],[-0.06541666666666662,0.15851851851851856,5.461799999982119],[-0.06468750000000002,0.1609259259259259,5.478499999999997],[-0.025625000000000023,0.10203703703703708,5.495199999988074],[-0.042499999999999954,0.12259259259259268,5.513400000005959],[-0.018437500000000048,0.13148148148148148,5.528400000005959],[-0.011354166666666643,0.14833333333333337,5.545199999988071],[-0.0021875000000000236,0.19666666666666674,5.561699999988079],[0.02322916666666662,0.22555555555555548,5.578500000000005],[0.01260416666666669,0.24000000000000005,5.595199999988083],[0.001979166666666643,0.2544444444444444,5.611799999982111],[0.02354166666666669,0.2601851851851852,5.6285000000000025],[0.027187500000000024,0.2681481481481481,5.64519999998808],[0.029375000000000047,0.32148148148148153,5.661900000005957],[0.09270833333333334,0.31259259259259253,5.6785],[0.10416666666666667,0.3162962962962962,5.695099999994042],[0.11114583333333337,0.3257407407407407,5.713499999999996],[0.11697916666666662,0.32944444444444443,5.728400000005962],[0.11447916666666676,0.3198148148148149,5.745199999988074],[0.11031250000000009,0.36370370370370364,5.761699999988082],[0.13802083333333334,0.4027777777777778,5.778499999999994],[0.16145833333333334,0.4140740740740741,5.7950999999940365],[0.2025000000000001,0.405925925925926,5.811799999982114],[0.18416666666666662,0.39814814814814814,5.828500000000005],[0.18416666666666662,0.39814814814814814,5.845199999988083],[0.15052083333333333,0.4038888888888889,5.861799999982111],[0.1359375,0.40259259259259256,5.8784000000059535],[0.14249999999999996,0.36425925925925934,5.89519999998808],[0.1490624999999999,0.32592592592592595,5.912599999994043],[0.1640625,0.30574074074074076,5.928400000005965],[0.1640625,0.30574074074074076,5.945199999988077],[0.17260416666666673,0.2803703703703703,5.961900000005954],[0.17739583333333328,0.2614814814814816,5.978900000005964],[0.17541666666666675,0.23444444444444448,5.995199999988074],[0.1734375,0.2074074074074074,6.0157999999821214],[0.21687500000000004,0.1675925925925926,6.028900000005962],[0.2603125000000001,0.12777777777777777,6.0450999999940365],[0.23552083333333323,0.11833333333333329,6.063400000005956],[0.23552083333333323,0.11833333333333329,6.078500000000005],[0.22781250000000006,0.09981481481481477,6.095199999988083],[0.23166666666666677,0.11777777777777781,6.111799999982111],[0.23645833333333333,0.1307407407407408,6.1285000000000025],[0.25770833333333343,0.10629629629629625,6.145099999994045],[0.2808333333333332,0.0668518518518519,6.161799999982122],[0.27531249999999996,0.05185185185185185,6.182000000000002],[0.26979166666666665,0.03351851851851856,6.195099999994042],[0.2413541666666667,0.04351851851851852,6.211799999982119],[0.17197916666666657,0.10203703703703708,6.228400000005962],[0.1404166666666666,0.14592592592592585,6.245299999982123],[0.17697916666666677,0.1581481481481481,6.261799999982117],[0.20270833333333324,0.15203703703703708,6.278400000005959],[0.1772916666666667,0.15481481481481485,6.295199999988071],[0.13541666666666666,0.19499999999999992,6.311799999982114],[0.06687500000000005,0.22444444444444453,6.328699999988075],[0.036666666666666715,0.24944444444444452,6.345099999994034],[0.008124999999999953,0.2831481481481481,6.361799999982111],[-0.02041666666666669,0.3168518518518519,6.381400000005954],[0.014999999999999977,0.3072222222222222,6.395599999994033],[0.06177083333333329,0.28888888888888886,6.411799999982122],[0.049270833333333285,0.29685185185185176,6.4285],[0.005208333333333333,0.27259259259259266,6.448799999982114]]","[0.0002999999821184929,0.03719999998807566,0.04899999999999238,0.06559999999403487,0.07869999998807486,0.0951999999880826,0.11179999998211088,0.12859999999403726,0.14519999998807975,0.16179999998212224,0.17859999999403442,0.19529999998211167,0.21190000000595433,0.22849999999999682,0.2455999999940417,0.2619000000059657,0.27859999999404295,0.2952999999821202,0.3119999999999976,0.32850000000000534,0.3451999999880826,0.36190000000596,0.378799999982121,0.39519999998807975,0.41499999999999204,0.43390000000596274,0.4531999999880725,0.4619000000059543,0.4785999999940316,0.49519999998807407,0.5119000000059657,0.528599999994043,0.5454000000059551,0.5617999999821137,0.5785999999940401,0.5951999999880826,0.61190000000596,0.6285000000000025,0.6451999999880798,0.6617999999821222,0.6784999999999997,0.6951999999880769,0.7119000000059543,0.7284999999999968,0.7451999999880741,0.7619000000059657,0.778499999999994,0.7952999999821202,0.8117999999821137,0.8285999999940401,0.8451999999880826,0.8617999999821109,0.8785999999940373,0.8952999999821145,0.9117999999821222,0.9284999999999997,0.9451999999880769,0.9619000000059543,0.9784999999999968,0.9951999999880741,1.0119000000059657,1.028499999999994,1.0457999999821226,1.0619999999999976,1.084799999982124,1.0951999999880826,1.11190000000596,1.1285000000000025,1.1452999999821145,1.1619000000059572,1.1784999999999997,1.1952999999821117,1.2117999999821194,1.2285999999940316,1.2456999999880765,1.2619000000059657,1.278499999999994,1.2951999999880712,1.3117999999821137,1.3285000000000053,1.3451999999880826,1.3617999999821109,1.3785000000000025,1.3951999999880798,1.4119000000059572,1.4284999999999997,1.445199999988077,1.4617999999821194,1.4784999999999968,1.495199999988074,1.5117999999821166,1.528499999999994,1.5480000000000018,1.5619000000059629,1.5785000000000053,1.5974999999999966,1.61190000000596,1.6285000000000025,1.6451999999880798,1.6619000000059572,1.6785999999940344,1.695199999988077,1.7119000000059543,1.7284999999999968,1.745199999988074,1.7619000000059657,1.778599999994043,1.7951999999880712,1.8119000000059629,1.8285000000000053,1.8451999999880826,1.8617999999821109,1.8785000000000025,1.8976999999880775,1.9131999999880804,1.9284999999999997,1.945199999988077,1.9617999999821194,1.9784999999999968,1.9950999999940393,2.0119000000059657,2.028400000005959,2.0451999999880712,2.0619999999999976,2.078699999988075,2.0952999999821174,2.1119999999999948,2.1285000000000025,2.1451999999880798,2.161900000005957,2.1784999999999997,2.195199999988077,2.212199999988073,2.228499999999997,2.248400000005958,2.2617999999821166,2.278499999999994,2.29529999998212,2.311900000005963,2.3289000000059588,2.3451999999880826,2.361799999982111,2.3785000000000025,2.3951999999880798,2.411900000005957,2.4284999999999997,2.445199999988077,2.4620000000000033,2.478499999999997,2.4950999999940393,2.5117999999821166,2.528499999999994,2.5451999999880712,2.561900000005963,2.5785000000000053,2.5951999999880826,2.611799999982111,2.6285000000000025,2.6451999999880798,2.6617999999821222,2.6784999999999997,2.695199999988077,2.7119000000059543,2.7285999999940316,2.7465999999940323,2.7617999999821166,2.778499999999994,2.7951999999880712,2.811900000005963,2.8285000000000053,2.8451999999880826,2.86190000000596,2.8785000000000025,2.8951999999880798,2.911900000005957,2.9285999999940344,2.945199999988077,2.9617999999821194,2.978499999999997,2.995199999988074,3.0119000000059657,3.028599999994043,3.0451999999880712,3.061900000005963,3.07859999999404,3.0951999999880826,3.111799999982111,3.1285999999940373,3.148900000005966,3.1640000000000015,3.1784999999999997,3.195099999994042,3.2150000000000034,3.2316999999880807,3.2510000000000048,3.2619000000059657,3.278499999999994,3.2951999999880712,3.311900000005963,3.3349999999999937,3.3451999999880826,3.36190000000596,3.383499999999998,3.395099999994045,3.4117999999821222,3.4284999999999997,3.445199999988077,3.4656999999880753,3.4801999999880735,3.495199999988074,3.5117999999821166,3.528499999999994,3.5451999999880712,3.5617999999821137,3.5785000000000053,3.5951999999880826,3.61190000000596,3.6284000000059535,3.6451999999880798,3.6617999999821222,3.6785999999940344,3.695099999994042,3.7117999999821194,3.728499999999997,3.745199999988074,3.7617999999821166,3.778499999999994,3.7950999999940365,3.811900000005963,3.8285000000000053,3.845599999994036,3.86190000000596,3.8785000000000025,3.895599999994033,3.9117999999821222,3.9284999999999997,3.948299999982112,3.9624000000059567,3.9786999999880805,3.995299999982123,4.014699999988082,4.028599999994043,4.04640000000596,4.066299999982121,4.082900000005964,4.098699999988085,4.112099999994044,4.1285000000000025,4.14819999998808,4.162000000000006,4.1785,4.195299999982112,4.211799999982119,4.2310999999940435,4.2456999999880765,4.2620000000000005,4.278499999999994,4.298199999988071,4.314599999994044,4.330099999994033,4.349299999982122,4.372,4.387799999982121,4.411099999994036,4.415099999994041,4.428599999994034,4.445400000005961,4.464900000005954,4.480000000000004,4.495400000005958,4.5157999999821214,4.529499999999999,4.545699999988074,4.561999999999998,4.5814000000059565,4.595500000000001,4.61190000000596,4.630400000005963,4.6452999999821145,4.662099999994041,4.678699999988083,4.697400000005956,4.711900000005954,4.7286999999880805,4.745299999982123,4.765000000000001,4.778599999994043,4.795599999994039,4.815599999994035,4.830299999982117,4.846900000005959,4.8644999999999925,4.878699999988072,4.895400000005964,4.912000000000006,4.928400000005965,4.945099999994042,4.961799999982119,4.980599999994041,4.995299999982123,5.011799999982117,5.028499999999994,5.04829999998212,5.062199999988081,5.078900000005959,5.0954000000059665,5.114099999994039,5.128599999994037,5.1461999999880845,5.161900000005957,5.182900000005958,5.19759999999404,5.213299999982112,5.234900000005965,5.245299999982123,5.2620000000000005,5.278699999988078,5.2950999999940365,5.311799999982114,5.328500000000005,5.3454000000059665,5.361799999982111,5.3785000000000025,5.395099999994045,5.411799999982122,5.428599999994034,5.445299999982112,5.461799999982119,5.478499999999997,5.495199999988074,5.513400000005959,5.528400000005959,5.545199999988071,5.561699999988079,5.578500000000005,5.595199999988083,5.611799999982111,5.6285000000000025,5.64519999998808,5.661900000005957,5.6785,5.695099999994042,5.713499999999996,5.728400000005962,5.745199999988074,5.761699999988082,5.778499999999994,5.7950999999940365,5.811799999982114,5.828500000000005,5.845199999988083,5.861799999982111,5.8784000000059535,5.89519999998808,5.912599999994043,5.928400000005965,5.945199999988077,5.961900000005954,5.978900000005964,5.995199999988074,6.0157999999821214,6.028900000005962,6.0450999999940365,6.063400000005956,6.078500000000005,6.095199999988083,6.111799999982111,6.1285000000000025,6.145099999994045,6.161799999982122,6.182000000000002,6.195099999994042,6.211799999982119,6.228400000005962,6.245299999982123,6.261799999982117,6.278400000005959,6.295199999988071,6.311799999982114,6.328699999988075,6.345099999994034,6.361799999982111,6.381400000005954,6.395599999994033,6.411799999982122,6.4285,6.448799999982114]","[1732769882896,1732769882926,1732769882938,1732769882954,1732769882967,1732769882984,1732769883000,1732769883017,1732769883034,1732769883050,1732769883067,1732769883084,1732769883100,1732769883117,1732769883134,1732769883150,1732769883167,1732769883184,1732769883201,1732769883217,1732769883234,1732769883250,1732769883267,1732769883284,1732769883304,1732769883322,1732769883342,1732769883350,1732769883367,1732769883384,1732769883400,1732769883417,1732769883434,1732769883450,1732769883467,1732769883484,1732769883500,1732769883517,1732769883534,1732769883550,1732769883567,1732769883584,1732769883601,1732769883617,1732769883634,1732769883650,1732769883667,1732769883684,1732769883700,1732769883717,1732769883734,1732769883750,1732769883767,1732769883784,1732769883800,1732769883817,1732769883834,1732769883850,1732769883867,1732769883884,1732769883900,1732769883917,1732769883934,1732769883951,1732769883973,1732769883984,1732769884000,1732769884017,1732769884034,1732769884050,1732769884067,1732769884084,1732769884100,1732769884117,1732769884134,1732769884150,1732769884167,1732769884184,1732769884200,1732769884217,1732769884234,1732769884250,1732769884267,1732769884284,1732769884300,1732769884317,1732769884334,1732769884350,1732769884367,1732769884384,1732769884400,1732769884417,1732769884437,1732769884450,1732769884467,1732769884486,1732769884500,1732769884517,1732769884534,1732769884550,1732769884567,1732769884584,1732769884600,1732769884617,1732769884634,1732769884650,1732769884667,1732769884684,1732769884700,1732769884717,1732769884734,1732769884750,1732769884767,1732769884786,1732769884802,1732769884817,1732769884834,1732769884850,1732769884867,1732769884884,1732769884900,1732769884917,1732769884934,1732769884951,1732769884967,1732769884984,1732769885000,1732769885017,1732769885034,1732769885050,1732769885067,1732769885084,1732769885101,1732769885117,1732769885137,1732769885150,1732769885167,1732769885184,1732769885200,1732769885218,1732769885234,1732769885250,1732769885267,1732769885284,1732769885300,1732769885317,1732769885334,1732769885351,1732769885367,1732769885384,1732769885400,1732769885417,1732769885434,1732769885450,1732769885467,1732769885484,1732769885500,1732769885517,1732769885534,1732769885550,1732769885567,1732769885584,1732769885600,1732769885617,1732769885635,1732769885650,1732769885667,1732769885684,1732769885700,1732769885717,1732769885734,1732769885750,1732769885767,1732769885784,1732769885800,1732769885817,1732769885834,1732769885850,1732769885867,1732769885884,1732769885900,1732769885917,1732769885934,1732769885950,1732769885967,1732769885984,1732769886000,1732769886017,1732769886038,1732769886053,1732769886067,1732769886084,1732769886104,1732769886120,1732769886140,1732769886150,1732769886167,1732769886184,1732769886200,1732769886224,1732769886234,1732769886250,1732769886272,1732769886284,1732769886300,1732769886317,1732769886334,1732769886354,1732769886369,1732769886384,1732769886400,1732769886417,1732769886434,1732769886450,1732769886467,1732769886484,1732769886500,1732769886517,1732769886534,1732769886550,1732769886567,1732769886584,1732769886600,1732769886617,1732769886634,1732769886650,1732769886667,1732769886684,1732769886700,1732769886717,1732769886734,1732769886750,1732769886767,1732769886784,1732769886800,1732769886817,1732769886837,1732769886851,1732769886867,1732769886884,1732769886903,1732769886917,1732769886935,1732769886955,1732769886972,1732769886987,1732769887001,1732769887017,1732769887037,1732769887051,1732769887067,1732769887084,1732769887100,1732769887120,1732769887134,1732769887151,1732769887167,1732769887187,1732769887203,1732769887219,1732769887238,1732769887261,1732769887276,1732769887300,1732769887304,1732769887317,1732769887334,1732769887353,1732769887369,1732769887384,1732769887404,1732769887418,1732769887434,1732769887451,1732769887470,1732769887484,1732769887501,1732769887519,1732769887534,1732769887551,1732769887567,1732769887586,1732769887601,1732769887617,1732769887634,1732769887653,1732769887667,1732769887684,1732769887704,1732769887719,1732769887736,1732769887753,1732769887767,1732769887784,1732769887801,1732769887817,1732769887834,1732769887850,1732769887869,1732769887884,1732769887900,1732769887917,1732769887937,1732769887951,1732769887967,1732769887984,1732769888003,1732769888017,1732769888035,1732769888051,1732769888071,1732769888086,1732769888102,1732769888123,1732769888134,1732769888151,1732769888167,1732769888184,1732769888200,1732769888217,1732769888234,1732769888250,1732769888267,1732769888284,1732769888300,1732769888317,1732769888334,1732769888350,1732769888367,1732769888384,1732769888402,1732769888417,1732769888434,1732769888450,1732769888467,1732769888484,1732769888500,1732769888517,1732769888534,1732769888550,1732769888567,1732769888584,1732769888602,1732769888617,1732769888634,1732769888650,1732769888667,1732769888684,1732769888700,1732769888717,1732769888734,1732769888750,1732769888767,1732769888784,1732769888801,1732769888817,1732769888834,1732769888850,1732769888868,1732769888884,1732769888904,1732769888917,1732769888934,1732769888952,1732769888967,1732769888984,1732769889000,1732769889017,1732769889034,1732769889050,1732769889071,1732769889084,1732769889100,1732769889117,1732769889134,1732769889150,1732769889167,1732769889184,1732769889200,1732769889217,1732769889234,1732769889250,1732769889270,1732769889284,1732769889300,1732769889317,1732769889337]","[[946.2,765.2],[946.2,765.2],[938.9,760.8],[954.5,743.9],[954.5,743.9],[952.2,718.3],[986.9,686.7],[1016.2,660.3],[1016.2,660.3],[1066.7,660.4],[1079.2,660.5],[1069.6,674],[1060,687.5],[1038.8,707.6],[1038.9,717.3],[1066.6,719.6],[1089.1,715],[1076,725.7],[1073,744.5],[1041.9,742.4],[1048.8,740.3],[1145.7,700.7],[1218.2,671.9],[1221.2,651.8],[1241.9,626.4],[1241.9,626.4],[1170,614],[1170,614],[1221.5,604.9],[1223.6,588.7],[1203,584.4],[1181.4,578.9],[1181.2,580.2],[1122.4,589],[1065.5,582.3],[1063.8,575.4],[1044.4,573.8],[1075.4,588.9],[1006.1,616.3],[1000.1,646],[999.7,655.1],[1013.2,649.4],[1005.3,636.9],[968.7,649],[988.6,664.8],[1008.8,667.9],[1030.7,674.2],[1035,670.1],[1039.3,666],[1041.4,672.2],[1050.5,679],[1059.3,673.8],[1043.3,679],[1035.3,688.4],[1029.6,668.1],[1023.6,660.5],[1023.3,664.1],[1045.7,654.4],[1042.8,652.1],[1035.2,640.9],[1027.6,629.7],[1016.9,647.1],[1031,654.1],[1031,654.1],[1101.7,632.5],[1101.7,632.5],[1056.5,675.3],[1056.5,675.3],[1033.4,703.8],[1033.4,703.8],[1020.3,720],[1020.3,720],[1021.9,729.8],[1021.9,729.8],[1025.5,745.1],[1020.2,749.3],[965.9,777.7],[901.1,804.3],[888.8,805.9],[834.6,821.9],[850.3,803.9],[858.3,801.1],[812.9,809.6],[752.8,824.5],[716,826.5],[707.6,832.9],[748.2,815.1],[787.4,799.5],[774.1,808.9],[768.8,810.3],[773.2,812],[753,838],[768.8,850.6],[781.7,846.4],[794.6,842.2],[781.8,839.8],[798.9,841.7],[837.7,819.4],[860.5,817.4],[867,833],[880.1,848.1],[913.6,833.2],[960.9,802.2],[975.1,803.5],[960.4,813.8],[951.9,829],[969.1,825],[966,843],[978.9,840.7],[998.9,850.7],[1012.3,861.2],[1006.5,861.1],[986.9,877.1],[1000.4,872.3],[1038.8,861.4],[1102.9,845.1],[1095.4,845.6],[1068.8,846.4],[1094,848.3],[1083.4,827.1],[1084.6,795],[1072.6,801.5],[1060.6,808],[1050.1,823.7],[1050.1,823.7],[1043.9,816.5],[1063.1,798.9],[1098.3,779.4],[1112.3,772.9],[1074.5,765.3],[1104.5,754.6],[1122.7,754.8],[1163.1,731.8],[1184.2,706.7],[1206.7,677.7],[1206.7,677.7],[1250.1,671.6],[1221.3,694.2],[1192.5,716.8],[1193.8,733.1],[1195.3,745.6],[1187.3,739.2],[1179.3,732.8],[1155.8,727.7],[1151.6,724.7],[1155.2,726.1],[1137.6,724.6],[1142.1,710],[1117.6,681.3],[1103.3,645.6],[1108.5,623.9],[1092.5,625.5],[1137.4,615.1],[1197.8,603.4],[1180.4,608.3],[1150.1,609.4],[1114.5,608.2],[1102.5,615],[1119.5,635.9],[1058.2,656.6],[972.6,667.9],[978.4,657.5],[900.7,670.5],[828.3,686.7],[833.7,686.3],[861.1,661.7],[893.8,639.4],[891.4,639.7],[883.7,646.4],[988.7,635.9],[1093.6,620.7],[1122,624],[1162.1,622.4],[1196.9,617.6],[1255.1,603.5],[1296.4,613],[1296.7,629.9],[1307.5,616.4],[1359.5,585.9],[1377.1,572.8],[1399.4,563.6],[1370.3,562.7],[1370.3,562.7],[1352.1,555.3],[1352.1,555.3],[1341.5,548.9],[1325.1,590.7],[1260.4,685],[1239.3,771.1],[1172.3,893.5],[1069.4,1026.5],[1007.5,1154.3],[937.7,1251.8],[899.5,1340.7],[914.4,1352.2],[914.4,1352.2],[939,1367.2],[939,1367.2],[933.8,1345.1],[986.7,1266.2],[986.7,1266.2],[1026.1,1189.5],[1104.8,1068],[1104.8,1068],[1183.5,946.5],[1183.5,946.5],[1218,830.9],[1236.1,739.6],[1259.1,651.8],[1283.9,643.2],[1284,632.9],[1286.3,613.3],[1286.3,613.3],[1229.8,608.5],[1233.8,589],[1223.1,598.2],[1235.1,605.5],[1257.1,611.1],[1302.5,622.6],[1334.4,625.2],[1270.4,659.4],[1213.8,690.8],[1186.1,711],[1261.6,695],[1271.7,707.8],[1303.1,700.4],[1280.8,686.2],[1265.1,682.3],[1250.3,678.5],[1226.8,698.6],[1244.3,685.3],[1295.9,653.9],[1328.6,641.2],[1288.9,656.8],[1260.4,660.5],[1242.3,671.7],[1259.5,697.4],[1237.9,719.9],[1216.3,742.4],[1217.2,731.8],[1218.1,721.2],[1175.8,748.2],[1133.5,775.2],[1122.9,780.8],[1092.8,793.5],[1053.7,783],[990.9,784.6],[946.7,796.7],[929.6,779.9],[920.4,793.3],[908.6,812.4],[905.9,812],[903.2,811.6],[828.3,848],[839,850.1],[840.2,860.2],[860.8,852.4],[876.9,839.1],[885.6,851.2],[892.6,837.6],[882.4,829.7],[882.4,829.7],[893.2,814.7],[893.2,814.7],[904.3,822.4],[950,802.6],[934.2,806.4],[937.5,825.6],[924.9,833.3],[923.6,829.9],[915.5,838.7],[913.4,845],[904.6,854.1],[874.8,870.3],[894.6,838.5],[915.7,826],[936.8,813.5],[904.2,817.3],[933,823],[950.5,836.5],[955.1,841.3],[981.3,849.4],[1013.2,832.5],[1027.6,831.8],[992.1,856.4],[970.8,863.4],[976.9,843.8],[1046.3,797.2],[1043.8,752.6],[1066.5,712.4],[1077.7,676],[1054.8,652.4],[1043.9,639.1],[1050.5,609.6],[1053.1,579.2],[1069.7,559.1],[1060.5,564.5],[1030.7,572.9],[1070.1,577.4],[1063.3,563.9],[1048.6,563.6],[1036.4,530],[1036.4,530],[1051.1,522.8],[1051.1,522.8],[1056,525.2],[1062.6,524.6],[1046.2,529.4],[1086.9,530.5],[1094.9,523.6],[1060.1,528.2],[1029.5,558.7],[1018.3,572.2],[1014.3,602.4],[1014.3,602.4],[1002.7,606.2],[1002.7,606.2],[984.8,617.9],[984.8,617.9],[968.3,619.6],[968.3,619.6],[953.8,623.9],[953.8,623.9],[923,614.7],[923,614.7],[924.9,613.5],[924.9,613.5],[897.2,625.6],[897.9,626.9],[935.4,595.1],[919.2,606.2],[942.3,611],[949.1,620.1],[957.9,646.2],[982.3,661.8],[972.1,669.6],[961.9,677.4],[982.6,680.5],[986.1,684.8],[988.2,713.6],[1049,708.8],[1060,710.8],[1066.7,715.9],[1072.3,717.9],[1069.9,712.7],[1065.9,736.4],[1092.5,757.5],[1115,763.6],[1154.4,759.2],[1136.8,755],[1136.8,755],[1104.5,758.1],[1090.5,757.4],[1096.8,736.7],[1103.1,716],[1117.5,705.1],[1117.5,705.1],[1125.7,691.4],[1130.3,681.2],[1128.4,666.6],[1126.5,652],[1168.2,630.5],[1209.9,609],[1186.1,603.9],[1186.1,603.9],[1178.7,593.9],[1182.4,603.6],[1187,610.6],[1207.4,597.4],[1229.6,576.1],[1224.3,568],[1219,558.1],[1191.7,563.5],[1125.1,595.1],[1094.8,618.8],[1129.9,625.4],[1154.6,622.1],[1130.2,623.6],[1090,645.3],[1024.2,661.2],[995.2,674.7],[967.8,692.9],[940.4,711.1],[974.4,705.9],[1019.3,696],[1007.3,700.3],[965,687.2]]","[0,0.151169218]","[0.151169218,0.151169218]","[-0.151169218,0]","[-0.151169218,-0.151169218]","[0,0]","[0.151169218,0]","[0,-0.151169218]","[0.151169218,-0.151169218]",0,0,0,0,1,2,Smartphone,7,1,11,9
