inst1_resp.keys,inst1_resp.rt,calibrationMouse.x,calibrationMouse.y,calibrationMouse.leftButton,calibrationMouse.midButton,calibrationMouse.rightButton,calibrationClick.x,calibrationClick.y,calibrationClick.leftButton,calibrationClick.midButton,calibrationClick.rightButton,calibrationClick.clicked_name,trialsc.thisRepN,trialsc.thisTrialN,trialsc.thisN,trialsc.thisIndex,trialsc.ran,calibration_x,calibration_y,participant,session,date,expName,psychopyVersion,OS,frameRate,ScreenRes_pixels,Camera_pixels,mouse_2.x,mouse_2.y,mouse_2.leftButton,mouse_2.midButton,mouse_2.rightButton,mouse_2.time,mouse_2.clicked_name,mouse.x,mouse.y,mouse.leftButton,mouse.midButton,mouse.rightButton,mouse.time,mouse.clicked_name,Choice,Trial,TrialDuration,MOUSE_GAZE,ET_GAZE,ET_GAZE_x_T,time,unixTime,ET_GAZE_NF,Loc_Option1_label,Loc_Option2_label,Loc_Cost_label,Loc_Qual_label,Loc_Option1_cost,Loc_Option2_cost,Loc_Option1_quality,Loc_Option2_quality,trials.thisRepN,trials.thisTrialN,trials.thisN,trials.thisIndex,trials.ran,Block,Device,cost1,qual1,cost2,qual2
space,2.2848,0.258333333,-0.327777778,1,0,0,0,0.664814815,1,0,0,calibration_square,0,0,0,13,1,0,0.67,19,001,2024-12-02_18h56.51.953,Attention_exp_legacy,2023.1.0,Win32,60.24096386,,,,,,,,,,,,,,,,,,,,,,,,,,,,,,,,,,,,,,,,,,,,
,,,,,,,0.673958333,0.661111111,1,0,0,calibration_square,0,1,1,19,1,0.67,0.67,19,001,2024-12-02_18h56.51.953,Attention_exp_legacy,2023.1.0,Win32,60.24096386,,,,,,,,,,,,,,,,,,,,,,,,,,,,,,,,,,,,,,,,,,,,
,,,,,,,-0.677083333,-0.677777778,1,0,0,calibration_square,0,2,2,0,1,-0.67,-0.67,19,001,2024-12-02_18h56.51.953,Attention_exp_legacy,2023.1.0,Win32,60.24096386,,,,,,,,,,,,,,,,,,,,,,,,,,,,,,,,,,,,,,,,,,,,
,,,,,,,0.655208333,-0.683333333,1,0,0,,0,3,3,20,1,0.67,-0.67,19,001,2024-12-02_18h56.51.953,Attention_exp_legacy,2023.1.0,Win32,60.24096386,,,,,,,,,,,,,,,,,,,,,,,,,,,,,,,,,,,,,,,,,,,,
,,,,,,,-0.79375,-0.372222222,1,0,0,,0,4,4,1,1,-0.67,-0.33,19,001,2024-12-02_18h56.51.953,Attention_exp_legacy,2023.1.0,Win32,60.24096386,,,,,,,,,,,,,,,,,,,,,,,,,,,,,,,,,,,,,,,,,,,,
,,,,,,,0.360416667,-0.383333333,1,0,0,,0,5,5,15,1,0.33,-0.33,19,001,2024-12-02_18h56.51.953,Attention_exp_legacy,2023.1.0,Win32,60.24096386,,,,,,,,,,,,,,,,,,,,,,,,,,,,,,,,,,,,,,,,,,,,
,,,,,,,0.017708333,-0.374074074,1,0,0,,0,6,6,10,1,0,-0.33,19,001,2024-12-02_18h56.51.953,Attention_exp_legacy,2023.1.0,Win32,60.24096386,,,,,,,,,,,,,,,,,,,,,,,,,,,,,,,,,,,,,,,,,,,,
,,,,,,,0.009375,-0.1,1,0,0,,0,7,7,11,1,0,0,19,001,2024-12-02_18h56.51.953,Attention_exp_legacy,2023.1.0,Win32,60.24096386,,,,,,,,,,,,,,,,,,,,,,,,,,,,,,,,,,,,,,,,,,,,
,,,,,,,-0.705208333,0.264814815,1,0,0,,0,8,8,3,1,-0.67,0.33,19,001,2024-12-02_18h56.51.953,Attention_exp_legacy,2023.1.0,Win32,60.24096386,,,,,,,,,,,,,,,,,,,,,,,,,,,,,,,,,,,,,,,,,,,,
,,,,,,,-0.635416667,-0.046296296,1,0,0,,0,9,9,2,1,-0.67,0,19,001,2024-12-02_18h56.51.953,Attention_exp_legacy,2023.1.0,Win32,60.24096386,,,,,,,,,,,,,,,,,,,,,,,,,,,,,,,,,,,,,,,,,,,,
,,,,,,,0.434375,0.185185185,1,0,0,,0,10,10,17,1,0.33,0.33,19,001,2024-12-02_18h56.51.953,Attention_exp_legacy,2023.1.0,Win32,60.24096386,,,,,,,,,,,,,,,,,,,,,,,,,,,,,,,,,,,,,,,,,,,,
,,,,,,,0.36875,-0.146296296,1,0,0,,0,11,11,16,1,0.33,0,19,001,2024-12-02_18h56.51.953,Attention_exp_legacy,2023.1.0,Win32,60.24096386,,,,,,,,,,,,,,,,,,,,,,,,,,,,,,,,,,,,,,,,,,,,
,,,,,,,0.039583333,-0.677777778,1,0,0,,0,12,12,9,1,0,-0.67,19,001,2024-12-02_18h56.51.953,Attention_exp_legacy,2023.1.0,Win32,60.24096386,,,,,,,,,,,,,,,,,,,,,,,,,,,,,,,,,,,,,,,,,,,,
,,,,,,,0.367708333,0.725925926,1,0,0,,0,13,13,18,1,0.33,0.67,19,001,2024-12-02_18h56.51.953,Attention_exp_legacy,2023.1.0,Win32,60.24096386,,,,,,,,,,,,,,,,,,,,,,,,,,,,,,,,,,,,,,,,,,,,
,,,,,,,-0.348958333,-0.664814815,1,0,0,,0,14,14,4,1,-0.33,-0.67,19,001,2024-12-02_18h56.51.953,Attention_exp_legacy,2023.1.0,Win32,60.24096386,,,,,,,,,,,,,,,,,,,,,,,,,,,,,,,,,,,,,,,,,,,,
,,,,,,,-0.330208333,0.575925926,1,0,0,,0,15,15,8,1,-0.33,0.67,19,001,2024-12-02_18h56.51.953,Attention_exp_legacy,2023.1.0,Win32,60.24096386,,,,,,,,,,,,,,,,,,,,,,,,,,,,,,,,,,,,,,,,,,,,
,,,,,,,-0.370833333,-0.327777778,1,0,0,,0,16,16,5,1,-0.33,-0.33,19,001,2024-12-02_18h56.51.953,Attention_exp_legacy,2023.1.0,Win32,60.24096386,,,,,,,,,,,,,,,,,,,,,,,,,,,,,,,,,,,,,,,,,,,,
,,,,,,,-0.026041667,0.301851852,1,0,0,,0,17,17,12,1,0,0.33,19,001,2024-12-02_18h56.51.953,Attention_exp_legacy,2023.1.0,Win32,60.24096386,,,,,,,,,,,,,,,,,,,,,,,,,,,,,,,,,,,,,,,,,,,,
,,,,,,,-0.314583333,-0.074074074,1,0,0,,0,18,18,6,1,-0.33,0,19,001,2024-12-02_18h56.51.953,Attention_exp_legacy,2023.1.0,Win32,60.24096386,,,,,,,,,,,,,,,,,,,,,,,,,,,,,,,,,,,,,,,,,,,,
,,,,,,,0.344791667,-0.672222222,1,0,0,,0,19,19,14,1,0.33,-0.67,19,001,2024-12-02_18h56.51.953,Attention_exp_legacy,2023.1.0,Win32,60.24096386,,,,,,,,,,,,,,,,,,,,,,,,,,,,,,,,,,,,,,,,,,,,
,,,,,,,-0.364583333,0.338888889,1,0,0,,0,20,20,7,1,-0.33,0.33,19,001,2024-12-02_18h56.51.953,Attention_exp_legacy,2023.1.0,Win32,60.24096386,,,,,,,,,,,,,,,,,,,,,,,,,,,,,,,,,,,,,,,,,,,,
,,,,,,,,,,,,,,,,,,,,19,001,2024-12-02_18h56.51.953,Attention_exp_legacy,2023.1.0,Win32,60.24096386,"[1920,1080]","[640,480]",[-0.041666666666666664],[-0.5222222222222223],[1],[0],[0],[3.2798000000007477],"[""StartButton""]",[-0.01875],[0.14074074074074075],[1],[0],[0],[4.108000000000004],"[""Option1_label""]",Option1_label,1,5.1288,"[[-0.041666666666666664,-0.5222222222222223],[-0.041666666666666664,-0.5222222222222223],[-0.041666666666666664,-0.5222222222222223],[-0.041666666666666664,-0.5222222222222223],[-0.041666666666666664,-0.5222222222222223],[-0.041666666666666664,-0.5222222222222223],[-0.041666666666666664,-0.5222222222222223],[-0.041666666666666664,-0.5222222222222223],[-0.041666666666666664,-0.5222222222222223],[-0.041666666666666664,-0.5222222222222223],[-0.041666666666666664,-0.5222222222222223],[-0.041666666666666664,-0.5222222222222223],[-0.041666666666666664,-0.5222222222222223],[-0.041666666666666664,-0.5222222222222223],[-0.041666666666666664,-0.5222222222222223],[-0.041666666666666664,-0.5222222222222223],[-0.041666666666666664,-0.5222222222222223],[-0.041666666666666664,-0.5222222222222223],[-0.041666666666666664,-0.5222222222222223],[-0.041666666666666664,-0.5222222222222223],[-0.041666666666666664,-0.5222222222222223],[-0.041666666666666664,-0.5222222222222223],[-0.041666666666666664,-0.5222222222222223],[-0.041666666666666664,-0.5222222222222223],[-0.041666666666666664,-0.5222222222222223],[-0.041666666666666664,-0.5222222222222223],[-0.041666666666666664,-0.5222222222222223],[-0.041666666666666664,-0.5222222222222223],[-0.041666666666666664,-0.5222222222222223],[-0.041666666666666664,-0.5222222222222223],[-0.041666666666666664,-0.5222222222222223],[-0.041666666666666664,-0.5222222222222223],[-0.041666666666666664,-0.5222222222222223],[-0.041666666666666664,-0.5222222222222223],[-0.041666666666666664,-0.5222222222222223],[-0.041666666666666664,-0.5222222222222223],[-0.041666666666666664,-0.5222222222222223],[-0.041666666666666664,-0.5222222222222223],[-0.041666666666666664,-0.5222222222222223],[-0.041666666666666664,-0.5222222222222223],[-0.041666666666666664,-0.5222222222222223],[-0.041666666666666664,-0.5222222222222223],[-0.041666666666666664,-0.5222222222222223],[-0.041666666666666664,-0.5222222222222223],[-0.041666666666666664,-0.5222222222222223],[-0.041666666666666664,-0.5222222222222223],[-0.041666666666666664,-0.5222222222222223],[-0.041666666666666664,-0.5222222222222223],[-0.041666666666666664,-0.5222222222222223],[-0.041666666666666664,-0.5222222222222223],[-0.041666666666666664,-0.524074074074074],[-0.046875,-0.5259259259259259],[-0.052083333333333336,-0.5277777777777778],[-0.058333333333333334,-0.5277777777777778],[-0.059375,-0.5277777777777778],[-0.06041666666666667,-0.5277777777777778],[-0.0625,-0.5259259259259259],[-0.06354166666666666,-0.5185185185185185],[-0.06666666666666667,-0.5074074074074074],[-0.06770833333333333,-0.4925925925925926],[-0.071875,-0.4703703703703704],[-0.078125,-0.42777777777777776],[-0.08020833333333334,-0.412962962962963],[-0.08229166666666667,-0.3851851851851852],[-0.08333333333333333,-0.35],[-0.08645833333333333,-0.31851851851851853],[-0.08645833333333333,-0.3055555555555556],[-0.0875,-0.29444444444444445],[-0.08958333333333333,-0.2814814814814815],[-0.090625,-0.2722222222222222],[-0.090625,-0.2611111111111111],[-0.090625,-0.2518518518518518],[-0.090625,-0.2388888888888889],[-0.090625,-0.22777777777777777],[-0.08958333333333333,-0.21666666666666667],[-0.08541666666666667,-0.20185185185185187],[-0.08020833333333334,-0.18888888888888888],[-0.075,-0.17407407407407408],[-0.06041666666666667,-0.14629629629629629],[-0.05,-0.12222222222222222],[-0.041666666666666664,-0.09259259259259259],[-0.03125,-0.06296296296296296],[-0.025,-0.044444444444444446],[-0.017708333333333333,-0.025925925925925925],[-0.014583333333333334,-0.016666666666666666],[-0.0125,-0.012962962962962963],[-0.0125,-0.007407407407407408],[-0.0125,-0.007407407407407408],[-0.0125,-0.007407407407407408],[-0.0125,-0.007407407407407408],[-0.0125,-0.007407407407407408],[-0.0125,-0.007407407407407408],[-0.0125,-0.007407407407407408],[-0.0125,-0.007407407407407408],[-0.0125,-0.007407407407407408],[-0.0125,-0.007407407407407408],[-0.0125,-0.007407407407407408],[-0.0125,-0.007407407407407408],[-0.0125,-0.007407407407407408],[-0.0125,-0.007407407407407408],[-0.0125,-0.007407407407407408],[-0.0125,-0.007407407407407408],[-0.0125,-0.007407407407407408],[-0.0125,-0.007407407407407408],[-0.0125,-0.007407407407407408],[-0.0125,-0.007407407407407408],[-0.0125,-0.007407407407407408],[-0.0125,-0.007407407407407408],[-0.0125,-0.007407407407407408],[-0.0125,-0.007407407407407408],[-0.0125,-0.007407407407407408],[-0.0125,-0.007407407407407408],[-0.0125,-0.007407407407407408],[-0.0125,-0.007407407407407408],[-0.0125,-0.007407407407407408],[-0.0125,-0.007407407407407408],[-0.0125,-0.007407407407407408],[-0.0125,-0.007407407407407408],[-0.0125,-0.007407407407407408],[-0.0125,-0.007407407407407408],[-0.0125,-0.007407407407407408],[-0.0125,-0.007407407407407408],[-0.0125,-0.007407407407407408],[-0.0125,-0.007407407407407408],[-0.0125,-0.007407407407407408],[-0.0125,-0.007407407407407408],[-0.0125,-0.007407407407407408],[-0.0125,-0.007407407407407408],[-0.0125,-0.007407407407407408],[-0.0125,-0.007407407407407408],[-0.0125,-0.007407407407407408],[-0.0125,-0.007407407407407408],[-0.0125,-0.007407407407407408],[-0.0125,-0.007407407407407408],[-0.0125,-0.007407407407407408],[-0.0125,-0.007407407407407408],[-0.0125,-0.007407407407407408],[-0.0125,-0.007407407407407408],[-0.0125,-0.007407407407407408],[-0.0125,-0.007407407407407408],[-0.0125,-0.007407407407407408],[-0.0125,-0.007407407407407408],[-0.0125,-0.007407407407407408],[-0.0125,-0.007407407407407408],[-0.0125,-0.007407407407407408],[-0.0125,-0.007407407407407408],[-0.0125,-0.007407407407407408],[-0.0125,-0.007407407407407408],[-0.0125,-0.007407407407407408],[-0.0125,-0.007407407407407408],[-0.0125,-0.007407407407407408],[-0.013541666666666667,-0.007407407407407408],[-0.013541666666666667,-0.007407407407407408],[-0.014583333333333334,-0.007407407407407408],[-0.015625,-0.007407407407407408],[-0.015625,-0.007407407407407408],[-0.016666666666666666,-0.007407407407407408],[-0.017708333333333333,-0.007407407407407408],[-0.01875,-0.009259259259259259],[-0.01875,-0.009259259259259259],[-0.01875,-0.009259259259259259],[-0.01875,-0.009259259259259259],[-0.01875,-0.009259259259259259],[-0.01875,-0.009259259259259259],[-0.01875,-0.009259259259259259],[-0.01875,-0.009259259259259259],[-0.01875,-0.009259259259259259],[-0.01875,-0.009259259259259259],[-0.01875,-0.009259259259259259],[-0.01875,-0.009259259259259259],[-0.01875,-0.009259259259259259],[-0.01875,-0.009259259259259259],[-0.01875,-0.009259259259259259],[-0.01875,-0.009259259259259259],[-0.01875,-0.009259259259259259],[-0.01875,-0.009259259259259259],[-0.01875,-0.009259259259259259],[-0.01875,-0.009259259259259259],[-0.01875,-0.009259259259259259],[-0.01875,-0.009259259259259259],[-0.01875,-0.009259259259259259],[-0.01875,-0.009259259259259259],[-0.01875,-0.009259259259259259],[-0.01875,-0.009259259259259259],[-0.01875,-0.009259259259259259],[-0.01875,-0.009259259259259259],[-0.01875,-0.009259259259259259],[-0.01875,-0.009259259259259259],[-0.01875,-0.009259259259259259],[-0.01875,-0.009259259259259259],[-0.01875,-0.009259259259259259],[-0.01875,-0.009259259259259259],[-0.01875,-0.009259259259259259],[-0.01875,0],[-0.01875,0.012962962962962963],[-0.01875,0.025925925925925925],[-0.01875,0.037037037037037035],[-0.020833333333333332,0.05555555555555555],[-0.022916666666666665,0.06481481481481481],[-0.025,0.07592592592592592],[-0.026041666666666668,0.08333333333333333],[-0.028125,0.09074074074074075],[-0.029166666666666667,0.09814814814814815],[-0.029166666666666667,0.1037037037037037],[-0.029166666666666667,0.11296296296296296],[-0.029166666666666667,0.11666666666666667],[-0.029166666666666667,0.12222222222222222],[-0.029166666666666667,0.1259259259259259],[-0.028125,0.1259259259259259],[-0.027083333333333334,0.12777777777777777],[-0.026041666666666668,0.12962962962962962],[-0.023958333333333335,0.13333333333333333],[-0.021875,0.13518518518518519],[-0.021875,0.13703703703703704],[-0.019791666666666666,0.1388888888888889],[-0.01875,0.1388888888888889],[-0.01875,0.1388888888888889],[-0.01875,0.1388888888888889],[-0.01875,0.14074074074074075],[-0.01875,0.14074074074074075],[-0.01875,0.14074074074074075],[-0.01875,0.14074074074074075],[-0.01875,0.14074074074074075],[-0.01875,0.14074074074074075],[-0.01875,0.14074074074074075],[-0.01875,0.14074074074074075],[-0.01875,0.14074074074074075],[-0.01875,0.14074074074074075],[-0.01875,0.14074074074074075],[-0.01875,0.14074074074074075],[-0.01875,0.14074074074074075],[-0.01875,0.14074074074074075],[-0.01875,0.14074074074074075],[-0.01875,0.14074074074074075],[-0.01875,0.14074074074074075],[-0.01875,0.14074074074074075],[-0.01875,0.14074074074074075],[-0.01875,0.14074074074074075],[-0.01875,0.14074074074074075],[-0.01875,0.14074074074074075],[-0.01875,0.14074074074074075],[-0.01875,0.14074074074074075],[-0.01875,0.14074074074074075],[-0.01875,0.14074074074074075],[-0.01875,0.14074074074074075],[-0.01875,0.14074074074074075],[-0.01875,0.14074074074074075],[-0.01875,0.14074074074074075],[-0.01875,0.14074074074074075],[-0.01875,0.14074074074074075],[-0.01875,0.14074074074074075],[-0.01875,0.14074074074074075],[-0.01875,0.14074074074074075],[-0.01875,0.14074074074074075],[-0.01875,0.14074074074074075],[-0.01875,0.14074074074074075],[-0.01875,0.14074074074074075],[-0.01875,0.14074074074074075],[-0.01875,0.14074074074074075],[-0.01875,0.14074074074074075],[-0.01875,0.14074074074074075],[-0.01875,0.14074074074074075],[-0.01875,0.14074074074074075],[-0.01875,0.14074074074074075],[-0.01875,0.14074074074074075],[-0.01875,0.14074074074074075],[-0.01875,0.14074074074074075],[-0.01875,0.14074074074074075],[-0.01875,0.14074074074074075],[-0.01875,0.14074074074074075],[-0.01875,0.14074074074074075],[-0.01875,0.14074074074074075],[-0.01875,0.14074074074074075],[-0.01875,0.14074074074074075],[-0.01875,0.14074074074074075],[-0.01875,0.14074074074074075],[-0.01875,0.14074074074074075],[-0.01875,0.14074074074074075],[-0.01875,0.14074074074074075],[-0.01875,0.14074074074074075],[-0.01875,0.1388888888888889],[-0.01875,0.1388888888888889],[-0.01875,0.1388888888888889],[-0.01875,0.1388888888888889],[-0.01875,0.1388888888888889],[-0.01875,0.1388888888888889],[-0.01875,0.1388888888888889],[-0.01875,0.1388888888888889],[-0.01875,0.1388888888888889],[-0.01875,0.1388888888888889],[-0.01875,0.1388888888888889],[-0.01875,0.1388888888888889],[-0.01875,0.1388888888888889],[-0.01875,0.1388888888888889],[-0.019791666666666666,0.13518518518518519],[-0.019791666666666666,0.13518518518518519],[-0.019791666666666666,0.13518518518518519],[-0.019791666666666666,0.13518518518518519],[-0.019791666666666666,0.13518518518518519],[-0.019791666666666666,0.13518518518518519],[-0.019791666666666666,0.13518518518518519],[-0.019791666666666666,0.13518518518518519],[-0.019791666666666666,0.13518518518518519],[-0.019791666666666666,0.13518518518518519],[-0.019791666666666666,0.13518518518518519],[-0.019791666666666666,0.13518518518518519],[-0.019791666666666666,0.13518518518518519],[-0.019791666666666666,0.13518518518518519]]","[[0.31968750000000007,-0.18611111111111112],[0.31968750000000007,-0.18611111111111112],[0.32781250000000006,-0.1948148148148148],[0.32781250000000006,-0.1948148148148148],[0.328125,-0.2022222222222222],[0.328125,-0.2022222222222222],[0.3321875000000001,-0.19666666666666666],[0.3321875000000001,-0.19666666666666666],[0.32354166666666656,-0.18111111111111114],[0.32354166666666656,-0.18111111111111114],[0.3195833333333333,-0.192037037037037],[0.3195833333333333,-0.192037037037037],[0.3198958333333332,-0.17037037037037037],[0.3198958333333332,-0.17037037037037037],[0.30416666666666664,-0.1624074074074074],[0.30416666666666664,-0.1624074074074074],[0.2834374999999999,-0.1366666666666667],[0.2834374999999999,-0.1366666666666667],[0.3111458333333334,-0.1014814814814815],[0.3111458333333334,-0.1014814814814815],[0.3108333333333334,-0.026481481481481398],[0.3163541666666667,0.0477777777777777],[0.3420833333333334,0.05648148148148148],[0.346875,0.07574074074074069],[0.3715625000000001,0.10111111111111115],[0.38604166666666656,0.13333333333333333],[0.3798958333333334,0.1337037037037038],[0.37562499999999993,0.15407407407407417],[0.3797916666666666,0.1646296296296296],[0.3720833333333334,0.1638888888888889],[0.3789583333333333,0.14203703703703713],[0.37999999999999995,0.12092592592592584],[0.3889583333333334,0.12222222222222222],[0.37916666666666665,0.15185185185185185],[0.35791666666666655,0.1124074074074075],[0.3400000000000001,0.11870370370370374],[0.3154166666666666,0.11259259259259251],[0.3154166666666666,0.11259259259259251],[0.3251041666666666,0.09944444444444453],[0.32312500000000005,0.08296296296296288],[0.3315624999999999,0.07777777777777778],[0.3352083333333333,0.07037037037037037],[0.31760416666666674,0.03481481481481473],[0.2921875,0.023333333333333376],[0.28875000000000006,0.004444444444444402],[0.28958333333333336,0.03851851851851843],[0.27239583333333334,0.04296296296296305],[0.2782291666666666,0.05907407407407403],[0.27229166666666677,0.1175925925925926],[0.27458333333333323,0.1714814814814815],[0.24812500000000004,0.16166666666666657],[0.20041666666666677,0.1985185185185186],[0.19968750000000005,0.22814814814814824],[0.19895833333333332,0.2577777777777779],[0.18218750000000009,0.3103703703703704],[0.18218750000000009,0.3103703703703704],[0.16541666666666663,0.362962962962963],[0.1540625000000001,0.3411111111111112],[0.15968749999999995,0.3744444444444445],[0.14104166666666676,0.38129629629629624],[0.1109375,0.34074074074074073],[0.08666666666666671,0.38203703703703695],[0.09937500000000009,0.3701851851851851],[0.08468749999999996,0.3844444444444445],[0.06489583333333329,0.43074074074074076],[0.04781249999999997,0.4050000000000001],[0.04781249999999997,0.4050000000000001],[0.0375,0.34629629629629627],[0.0375,0.34629629629629627],[0.04135416666666671,0.36999999999999994],[0.024374999999999977,0.37888888888888894],[-0.001145833333333357,0.34740740740740744],[-0.0003124999999999526,0.39407407407407397],[0.01270833333333338,0.40407407407407414],[0.011874999999999976,0.3527777777777778],[-0.003958333333333286,0.3431481481481481],[-0.013333333333333286,0.2916666666666667],[0.004791666666666691,0.3287037037037037],[0.0013541666666666192,0.3803703703703703],[-0.006979166666666714,0.40796296296296286],[-0.011458333333333333,0.39518518518518514],[-0.007291666666666667,0.4272222222222223],[-0.018020833333333285,0.42851851851851847],[-0.029375000000000047,0.4162962962962962],[-0.042604166666666644,0.47185185185185174],[-0.028958333333333287,0.46537037037037027],[-0.030416666666666713,0.4607407407407407],[-0.049270833333333285,0.39574074074074084],[-0.05281250000000005,0.3375925925925925],[-0.05635416666666669,0.2794444444444444],[-0.06489583333333329,0.25833333333333336],[-0.07354166666666669,0.23277777777777786],[-0.08843749999999997,0.1962962962962963],[-0.10270833333333336,0.17333333333333337],[-0.08041666666666672,0.16722222222222213],[-0.06833333333333336,0.19074074074074074],[-0.07260416666666672,0.20833333333333334],[-0.07260416666666672,0.20833333333333334],[-0.07687499999999996,0.22592592592592592],[-0.0672916666666667,0.2535185185185185],[-0.041458333333333285,0.24962962962962953],[-0.010625000000000048,0.20870370370370378],[0.00625,0.16777777777777783],[0.016666666666666666,0.14574074074074084],[0.03979166666666671,0.11574074074074074],[0.03322916666666664,0.05611111111111103],[0.03125,0.014629629629629588],[0.06072916666666662,0.026851851851851852],[0.09020833333333324,0.039074074074074115],[0.08322916666666676,0.0911111111111112],[0.07291666666666667,0.11851851851851852],[0.04552083333333338,0.1838888888888888],[0.04739583333333333,0.2716666666666668],[0.05666666666666664,0.30462962962962964],[0.04104166666666664,0.3646296296296296],[0.01854166666666662,0.43740740740740747],[-0.005520833333333286,0.5001851851851852],[-0.03093750000000005,0.5231481481481481],[-0.03999999999999997,0.5153703703703703],[-0.026979166666666644,0.4692592592592592],[-0.049270833333333285,0.4714814814814815],[-0.05447916666666662,0.4361111111111111],[-0.06114583333333338,0.3768518518518518],[-0.06114583333333338,0.3768518518518518],[-0.06385416666666661,0.3509259259259259],[-0.049374999999999974,0.30277777777777776],[-0.035104166666666714,0.25870370370370377],[-0.02385416666666664,0.2064814814814815],[-0.013125000000000024,0.15351851851851847],[-0.013125000000000024,0.15351851851851847],[-0.027499999999999976,0.15166666666666662],[-0.027499999999999976,0.15166666666666662],[-0.04656250000000005,0.16611111111111118],[-0.04656250000000005,0.16611111111111118],[-0.021145833333333287,0.13907407407407413],[-0.021145833333333287,0.13907407407407413],[-0.0014583333333333095,0.14222222222222214],[-0.0002083333333333807,0.11074074074074065],[-0.0002083333333333807,0.11074074074074065],[0.02166666666666662,0.09888888888888885],[0.0421875,0.11333333333333341],[0.0655208333333333,0.12018518518518514],[0.08708333333333323,0.09055555555555551],[0.09479166666666666,0.0705555555555556],[0.11708333333333343,0.04518518518518514],[0.14854166666666657,0.002407407407407323],[0.15364583333333334,0.04148148148148144],[0.16447916666666676,0.05],[0.19833333333333342,0.0551851851851851],[0.21291666666666675,0.054259259259259174],[0.20843749999999991,0.008888888888888804],[0.20083333333333328,-0.011296296296296339],[0.1759375000000001,0.011296296296296339],[0.18895833333333342,0.04462962962962967],[0.1961458333333333,0.06296296296296296],[0.20604166666666662,0.04259259259259259],[0.22020833333333342,-0.010370370370370412],[0.22020833333333342,-0.010370370370370412],[0.2608333333333334,-0.013888888888888888],[0.23833333333333329,-0.023148148148148147],[0.23947916666666677,-0.007037037037036953],[0.2560416666666666,0.03037037037037033],[0.26541666666666663,0.04314814814814806],[0.2794791666666666,0.05944444444444449],[0.27229166666666677,0.05981481481481473],[0.2768749999999999,0.02166666666666675],[0.26291666666666674,0.04314814814814806],[0.2334374999999999,0.06296296296296296],[0.18854166666666666,0.0492592592592593],[0.19427083333333334,0.07222222222222222],[0.17979166666666657,0.041666666666666664],[0.16458333333333333,0.02907407407407416],[0.15177083333333338,-0.001851851851851852],[0.15333333333333338,-0.04259259259259259],[0.159375,-0.03851851851851843],[0.1352083333333333,-0.01055555555555564],[0.12239583333333333,-0.002407407407407323],[0.14177083333333323,-0.012777777777777735],[0.1584374999999999,-0.022592592592592678],[0.17177083333333343,-0.05388888888888893],[0.18166666666666675,-0.05703703703703706],[0.20906250000000004,-0.06703703703703702],[0.24385416666666657,-0.029259259259259176],[0.2786458333333333,0.00851851851851856],[0.3051041666666668,0.00851851851851856],[0.35,0.023148148148148147],[0.39520833333333344,0.04148148148148144],[0.42374999999999996,0.08000000000000008],[0.4235416666666666,0.06703703703703712],[0.42072916666666677,0.08407407407407404],[0.4314583333333334,0.11722222222222214],[0.4254166666666668,0.13925925925925933],[0.42218749999999994,0.14444444444444443],[0.42218749999999994,0.14444444444444443],[0.3712500000000001,0.13055555555555556],[0.3133333333333333,0.08259259259259263],[0.2682291666666667,0.02092592592592584],[0.2185416666666666,-0.011296296296296339],[0.15833333333333333,-0.04685185185185177],[0.11854166666666661,-0.04740740740740745],[0.09604166666666672,-0.04740740740740745],[0.060000000000000026,-0.06351851851851854],[0.03145833333333338,-0.06648148148148143],[0.001145833333333357,-0.10833333333333334],[0.0012500000000000473,-0.10999999999999996],[0.009895833333333333,-0.0883333333333333],[0.013125000000000024,-0.03296296296296288],[0.012083333333333357,-0.04129629629629621],[0.01739583333333338,-0.021296296296296296],[0.022708333333333285,-0.0012962962962963806],[-0.01875,0.009629629629629714],[-0.06020833333333329,0.020555555555555598],[-0.07927083333333336,-0.04259259259259259],[-0.09020833333333336,-0.04796296296296292],[-0.08364583333333328,-0.06777777777777783],[-0.07708333333333334,-0.08759259259259261],[-0.04854166666666669,-0.10092592592592593],[-0.04854166666666669,-0.10092592592592593],[-0.01885416666666669,-0.05333333333333336],[-0.013229166666666714,-0.034444444444444486],[-0.030624999999999975,-0.038703703703703664],[-0.03322916666666664,-0.09388888888888887],[0.011041666666666691,-0.06796296296296295],[0.0009374999999999763,-0.0003703703703704546],[-0.017708333333333333,0.03185185185185194],[-0.03218749999999997,0.08000000000000008],[-0.06114583333333338,0.07537037037037045],[-0.09510416666666661,0.049629629629629544],[-0.12166666666666662,-0.006481481481481481],[-0.11062500000000004,-0.023148148148148147],[-0.08562500000000005,-0.017407407407407365],[-0.051874999999999956,0.03314814814814811],[-0.04520833333333331,-0.006296296296296254],[-0.021041666666666715,-0.02907407407407416],[-0.008958333333333356,-0.040740740740740744],[-0.0012500000000000473,-0.075],[0.016666666666666666,-0.06518518518518517],[0.02177083333333331,-0.06425925925925924],[0.029270833333333357,-0.0492592592592593],[0.027395833333333286,-0.07000000000000002],[0.019479166666666714,-0.11370370370370367],[0.019479166666666714,-0.11370370370370367],[0.013229166666666714,-0.12333333333333338],[-0.01114583333333338,-0.10999999999999996],[-0.016562499999999977,-0.10092592592592593],[-0.01260416666666669,-0.09611111111111106],[0.004375000000000047,-0.06092592592592588],[0.025625000000000023,-0.01703703703703712],[0.035312499999999976,0.03037037037037033],[0.035312499999999976,0.03037037037037033],[0.04864583333333338,0.06351851851851843],[0.03156249999999995,0.043703703703703745],[0.03156249999999995,0.043703703703703745],[0.04135416666666671,0.12629629629629638],[0.0578125,0.13574074074074066],[0.0578125,0.13574074074074066],[0.06760416666666676,0.13759259259259252],[0.06760416666666676,0.13759259259259252],[0.06312500000000003,0.12092592592592584],[0.06312500000000003,0.12092592592592584],[0.04385416666666669,0.11481481481481481],[0.04385416666666669,0.11481481481481481],[0.013645833333333357,0.07166666666666675],[-0.008124999999999953,0.029814814814814856],[-0.02802083333333331,-0.04666666666666675],[-0.02802083333333331,-0.04666666666666675],[-0.05395833333333329,-0.12296296296296293],[-0.04708333333333338,-0.10499999999999998],[-0.049479166666666664,-0.18703703703703703],[-0.05427083333333336,-0.21537037037037038],[-0.041979166666666616,-0.24092592592592596],[-0.027395833333333286,-0.24111111111111108],[0.001979166666666643,-0.2518518518518518],[0.010312499999999976,-0.2692592592592592],[0.010208333333333286,-0.287962962962963],[0.02322916666666662,-0.27907407407407403],[0.036145833333333384,-0.27018518518518514],[0.030416666666666713,-0.2770370370370371],[0.03687499999999998,-0.2566666666666667],[0.043333333333333356,-0.23629629629629634],[0.043333333333333356,-0.23629629629629634],[0.024062500000000025,-0.259074074074074],[0.005104166666666643,-0.2418518518518519],[-0.013854166666666619,-0.22462962962962965],[-0.012187500000000047,-0.2322222222222222],[-0.010520833333333358,-0.23981481481481481],[-0.01604166666666664,-0.19500000000000003],[-0.021458333333333357,-0.15018518518518523],[-0.035416666666666666,-0.17222222222222222],[-0.053125,-0.1705555555555556],[-0.06781250000000003,-0.19018518518518515],[-0.06885416666666669,-0.17592592592592593],[-0.06104166666666669,-0.18944444444444447],[-0.05322916666666669,-0.202962962962963],[-0.05322916666666669,-0.202962962962963],[-0.0546875,-0.18666666666666668],[-0.0546875,-0.18666666666666668],[-0.03895833333333331,-0.17814814814814814],[-0.03104166666666662,-0.21500000000000005],[-0.06145833333333333,-0.2324074074074074],[-0.043124999999999976,-0.2168518518518519],[-0.04802083333333336,-0.22685185185185186],[-0.04479166666666667,-0.2494444444444444],[-0.041562499999999974,-0.272037037037037],[-0.014791666666666713,-0.28481481481481485],[-0.0013541666666666192,-0.32092592592592595],[0.008229166666666643,-0.3622222222222223],[0.0006250000000000236,-0.3957407407407407]]","[[0.31968750000000007,-0.18611111111111112,0.000199999999253464],[0.31968750000000007,-0.18611111111111112,0.03189999999850812],[0.32781250000000006,-0.1948148148148148,0.04539999999850863],[0.32781250000000006,-0.1948148148148148,0.06219999999925108],[0.328125,-0.2022222222222222,0.07879999999701681],[0.328125,-0.2022222222222222,0.09549999999999415],[0.3321875000000001,-0.19666666666666666,0.11219999999925534],[0.3321875000000001,-0.19666666666666666,0.12879999999701397],[0.32354166666666656,-0.18111111111111114,0.14559999999776352],[0.32354166666666656,-0.18111111111111114,0.16209999999776414],[0.3195833333333333,-0.192037037037037,0.17879999999701823],[0.3195833333333333,-0.192037037037037,0.1953999999985072],[0.3198958333333332,-0.17037037037037037,0.2120999999977613],[0.3198958333333332,-0.17037037037037037,0.2287999999970154],[0.30416666666666664,-0.1624074074074074,0.24549999999999983],[0.30416666666666664,-0.1624074074074074,0.26209999999776556],[0.2834374999999999,-0.1366666666666667,0.27879999999701965],[0.2834374999999999,-0.1366666666666667,0.29569999999925045],[0.3111458333333334,-0.1014814814814815,0.3122999999970162],[0.3111458333333334,-0.1014814814814815,0.3287999999970168],[0.3108333333333334,-0.026481481481481398,0.3453999999985058],[0.3163541666666667,0.0477777777777777,0.3620999999977599],[0.3420833333333334,0.05648148148148148,0.37879999999701397],[0.346875,0.07574074074074069,0.3954999999999984],[0.3715625000000001,0.10111111111111115,0.41209999999776414],[0.38604166666666656,0.13333333333333333,0.42879999999701823],[0.3798958333333334,0.1337037037037038,0.4453999999985072],[0.37562499999999993,0.15407407407407417,0.46569999999925216],[0.3797916666666666,0.1646296296296296,0.4808999999985062],[0.3720833333333334,0.1638888888888889,0.49549999999999983],[0.3789583333333333,0.14203703703703713,0.5121999999992539],[0.37999999999999995,0.12092592592592584,0.5300999999977591],[0.3889583333333334,0.12222222222222222,0.5453999999985086],[0.37916666666666665,0.15185185185185185,0.5619999999999976],[0.35791666666666655,0.1124074074074075,0.5786999999992517],[0.3400000000000001,0.11870370370370374,0.5953999999985058],[0.3154166666666666,0.11259259259259251,0.6191999999992532],[0.3154166666666666,0.11259259259259251,0.628799999997014],[0.3251041666666666,0.09944444444444453,0.6454999999999984],[0.32312500000000005,0.08296296296296288,0.6621999999992525],[0.3315624999999999,0.07777777777777778,0.6788999999985066],[0.3352083333333333,0.07037037037037037,0.6954999999999956],[0.31760416666666674,0.03481481481481473,0.7120999999977613],[0.2921875,0.023333333333333376,0.7309999999999945],[0.28875000000000006,0.004444444444444402,0.7453999999985044],[0.28958333333333336,0.03851851851851843,0.7621999999992539],[0.27239583333333334,0.04296296296296305,0.7787999999970197],[0.2782291666666666,0.05907407407407403,0.7972999999970156],[0.27229166666666677,0.1175925925925926,0.8121999999992511],[0.27458333333333323,0.1714814814814815,0.8322999999970193],[0.24812500000000004,0.16166666666666657,0.847999999999999],[0.20041666666666677,0.1985185185185186,0.8622999999970204],[0.19968750000000005,0.22814814814814824,0.8789999999999978],[0.19895833333333332,0.2577777777777779,0.9014999999999986],[0.18218750000000009,0.3103703703703704,0.9166999999992527],[0.18218750000000009,0.3103703703703704,0.9288999999985066],[0.16541666666666663,0.362962962962963,0.9455999999977607],[0.1540625000000001,0.3411111111111112,0.9652999999970149],[0.15968749999999995,0.3744444444444445,0.9812999999970202],[0.14104166666666676,0.38129629629629624,0.9955999999977649],[0.1109375,0.34074074074074073,1.0150999999977657],[0.08666666666666671,0.38203703703703695,1.0323999999985105],[0.09937500000000009,0.3701851851851851,1.0471999999992505],[0.08468749999999996,0.3844444444444445,1.0622999999970162],[0.06489583333333329,0.43074074074074076,1.0812999999970145],[0.04781249999999997,0.4050000000000001,1.0963999999985106],[0.04781249999999997,0.4050000000000001,1.1123999999985088],[0.0375,0.34629629629629627,1.132099999997763],[0.0375,0.34629629629629627,1.1475000000000009],[0.04135416666666671,0.36999999999999994,1.1626999999992549],[0.024374999999999977,0.37888888888888894,1.1820999999977602],[-0.001145833333333357,0.34740740740740744,1.1955999999977607],[-0.0003124999999999526,0.39407407407407397,1.2122999999970148],[0.01270833333333338,0.40407407407407414,1.2304999999999993],[0.011874999999999976,0.3527777777777778,1.2473999999985068],[-0.003958333333333286,0.3431481481481481,1.262299999997019],[-0.013333333333333286,0.2916666666666667,1.278899999998508],[0.004791666666666691,0.3287037037037037,1.297799999997018],[0.0013541666666666192,0.3803703703703703,1.3122999999970162],[-0.006979166666666714,0.40796296296296286,1.3288999999985052],[-0.011458333333333333,0.39518518518518514,1.3473999999985082],[-0.007291666666666667,0.4272222222222223,1.3621999999992553],[-0.018020833333333285,0.42851851851851847,1.3789999999999978],[-0.029375000000000047,0.4162962962962962,1.3954999999999984],[-0.042604166666666644,0.47185185185185174,1.4150999999977643],[-0.028958333333333287,0.46537037037037027,1.428999999999995],[-0.030416666666666713,0.4607407407407407,1.4455999999977607],[-0.049270833333333285,0.39574074074074084,1.4620999999977613],[-0.05281250000000005,0.3375925925925925,1.4788999999985109],[-0.05635416666666669,0.2794444444444444,1.4953999999985044],[-0.06489583333333329,0.25833333333333336,1.512199999999254],[-0.07354166666666669,0.23277777777777786,1.5287999999970197],[-0.08843749999999997,0.1962962962962963,1.5453999999985086],[-0.10270833333333336,0.17333333333333337,1.5619999999999976],[-0.08041666666666672,0.16722222222222213,1.5786999999992517],[-0.06833333333333336,0.19074074074074074,1.5953999999985058],[-0.07260416666666672,0.20833333333333334,1.6120999999977599],[-0.07260416666666672,0.20833333333333334,1.6288999999985094],[-0.07687499999999996,0.22592592592592592,1.64539999999851],[-0.0672916666666667,0.2535185185185185,1.6620999999977641],[-0.041458333333333285,0.24962962962962953,1.6786999999992531],[-0.010625000000000048,0.20870370370370378,1.6953999999985072],[0.00625,0.16777777777777783,1.7120999999977613],[0.016666666666666666,0.14574074074074084,1.7287999999970154],[0.03979166666666671,0.11574074074074074,1.7453999999985044],[0.03322916666666664,0.05611111111111103,1.7620000000000005],[0.03125,0.014629629629629588,1.7786999999992545],[0.06072916666666662,0.026851851851851852,1.7953999999985086],[0.09020833333333324,0.039074074074074115,1.8119999999999976],[0.08322916666666676,0.0911111111111112,1.8290000000000006],[0.07291666666666667,0.11851851851851852,1.8454999999999941],[0.04552083333333338,0.1838888888888888,1.8620999999977599],[0.04739583333333333,0.2716666666666668,1.878799999997014],[0.05666666666666664,0.30462962962962964,1.89539999999851],[0.04104166666666664,0.3646296296296296,1.9120999999977641],[0.01854166666666662,0.43740740740740747,1.9287999999970182],[-0.005520833333333286,0.5001851851851852,1.9453999999985072],[-0.03093750000000005,0.5231481481481481,1.9620999999977613],[-0.03999999999999997,0.5153703703703703,1.9787999999970154],[-0.026979166666666644,0.4692592592592592,1.9953999999985044],[-0.049270833333333285,0.4714814814814815,2.012199999999254],[-0.05447916666666662,0.4361111111111111,2.031499999999994],[-0.06114583333333338,0.3768518518518518,2.0453999999985086],[-0.06114583333333338,0.3768518518518518,2.062199999999251],[-0.06385416666666661,0.3509259259259259,2.078799999997017],[-0.049374999999999974,0.30277777777777776,2.095399999998506],[-0.035104166666666714,0.25870370370370377,2.11209999999776],[-0.02385416666666664,0.2064814814814815,2.128799999997014],[-0.013125000000000024,0.15351851851851847,2.1500999999977637],[-0.013125000000000024,0.15351851851851847,2.1621999999992525],[-0.027499999999999976,0.15166666666666662,2.1788999999985066],[-0.027499999999999976,0.15166666666666662,2.195399999998507],[-0.04656250000000005,0.16611111111111118,2.2120999999977613],[-0.04656250000000005,0.16611111111111118,2.2287999999970154],[-0.021145833333333287,0.13907407407407413,2.2455],[-0.021145833333333287,0.13907407407407413,2.2620999999977656],[-0.0014583333333333095,0.14222222222222214,2.2786999999992545],[-0.0002083333333333807,0.11074074074074065,2.2981999999992553],[-0.0002083333333333807,0.11074074074074065,2.312199999999251],[0.02166666666666662,0.09888888888888885,2.328799999997017],[0.0421875,0.11333333333333341,2.3484999999999943],[0.0655208333333333,0.12018518518518514,2.36209999999776],[0.08708333333333323,0.09055555555555551,2.378699999999249],[0.09479166666666666,0.0705555555555556,2.3952999999970146],[0.11708333333333343,0.04518518518518514,2.412099999997764],[0.14854166666666657,0.002407407407407323,2.430199999999253],[0.15364583333333334,0.04148148148148144,2.4454999999999956],[0.16447916666666676,0.05,2.4620999999977613],[0.19833333333333342,0.0551851851851851,2.4787999999970154],[0.21291666666666675,0.054259259259259174,2.4955],[0.20843749999999991,0.008888888888888804,2.5120999999977656],[0.20083333333333328,-0.011296296296296339,2.5319999999999965],[0.1759375000000001,0.011296296296296339,2.5453999999985086],[0.18895833333333342,0.04462962962962967,2.562199999999251],[0.1961458333333333,0.06296296296296296,2.578899999998505],[0.20604166666666662,0.04259259259259259,2.595399999998506],[0.22020833333333342,-0.010370370370370412,2.615799999997016],[0.22020833333333342,-0.010370370370370412,2.628999999999998],[0.2608333333333334,-0.013888888888888888,2.6455999999977635],[0.23833333333333329,-0.023148148148148147,2.662099999997764],[0.23947916666666677,-0.007037037037036953,2.6787999999970182],[0.2560416666666666,0.03037037037037033,2.6954999999999956],[0.26541666666666663,0.04314814814814806,2.7120999999977613],[0.2794791666666666,0.05944444444444449,2.730899999998506],[0.27229166666666677,0.05981481481481473,2.7453999999985044],[0.2768749999999999,0.02166666666666675,2.7620999999977656],[0.26291666666666674,0.04314814814814806,2.7787999999970197],[0.2334374999999999,0.06296296296296296,2.7953999999985086],[0.18854166666666666,0.0492592592592593,2.8120999999977627],[0.19427083333333334,0.07222222222222222,2.831099999997761],[0.17979166666666657,0.041666666666666664,2.845399999998506],[0.16458333333333333,0.02907407407407416,2.8619999999999948],[0.15177083333333338,-0.001851851851851852,2.878699999999249],[0.15333333333333338,-0.04259259259259259,2.89539999999851],[0.159375,-0.03851851851851843,2.916799999997018],[0.1352083333333333,-0.01055555555555564,2.9317999999970183],[0.12239583333333333,-0.002407407407407323,2.945399999998507],[0.14177083333333323,-0.012777777777777735,2.9620999999977613],[0.1584374999999999,-0.022592592592592678,2.9787999999970154],[0.17177083333333343,-0.05388888888888893,2.9953999999985044],[0.18166666666666675,-0.05703703703703706,3.0120999999977656],[0.20906250000000004,-0.06703703703703702,3.029999999999994],[0.24385416666666657,-0.029259259259259176,3.0453999999985086],[0.2786458333333333,0.00851851851851856,3.0620999999977627],[0.3051041666666668,0.00851851851851856,3.0786999999992517],[0.35,0.023148148148148147,3.095399999998506],[0.39520833333333344,0.04148148148148144,3.11209999999776],[0.42374999999999996,0.08000000000000008,3.1288999999985094],[0.4235416666666666,0.06703703703703712,3.14539999999851],[0.42072916666666677,0.08407407407407404,3.162099999997764],[0.4314583333333334,0.11722222222222214,3.1787999999970182],[0.4254166666666668,0.13925925925925933,3.1954999999999956],[0.42218749999999994,0.14444444444444443,3.2120999999977613],[0.42218749999999994,0.14444444444444443,3.2312999999970202],[0.3712500000000001,0.13055555555555556,3.2455],[0.3133333333333333,0.08259259259259263,3.262199999999254],[0.2682291666666667,0.02092592592592584,3.2823999999985105],[0.2185416666666666,-0.011296296296296339,3.297799999997018],[0.15833333333333333,-0.04685185185185177,3.3123999999985045],[0.11854166666666661,-0.04740740740740745,3.3337999999970194],[0.09604166666666672,-0.04740740740740745,3.3488999999985083],[0.060000000000000026,-0.06351851851851854,3.363999999999997],[0.03145833333333338,-0.06648148148148143,3.3788999999985094],[0.001145833333333357,-0.10833333333333334,3.3976999999992543],[0.0012500000000000473,-0.10999999999999996,3.412399999998506],[0.009895833333333333,-0.0883333333333333,3.4303999999985066],[0.013125000000000024,-0.03296296296296288,3.4487999999970143],[0.012083333333333357,-0.04129629629629621,3.463000000000001],[0.01739583333333338,-0.021296296296296296,3.4787999999970154],[0.022708333333333285,-0.0012962962962963806,3.4975999999977603],[-0.01875,0.009629629629629714,3.5123999999985074],[-0.06020833333333329,0.020555555555555598,3.5312999999970174],[-0.07927083333333336,-0.04259259259259259,3.548899999998504],[-0.09020833333333336,-0.04796296296296292,3.5633999999985093],[-0.08364583333333328,-0.06777777777777783,3.578799999997017],[-0.07708333333333334,-0.08759259259259261,3.598699999999255],[-0.04854166666666669,-0.10092592592592593,3.61209999999776],[-0.04854166666666669,-0.10092592592592593,3.6288999999985094],[-0.01885416666666669,-0.05333333333333336,3.645699999999252],[-0.013229166666666714,-0.034444444444444486,3.662099999997764],[-0.030624999999999975,-0.038703703703703664,3.678699999999253],[-0.03322916666666664,-0.09388888888888887,3.697299999997014],[0.011041666666666691,-0.06796296296296295,3.7120999999977613],[0.0009374999999999763,-0.0003703703703704546,3.7287999999970154],[-0.017708333333333333,0.03185185185185194,3.745299999997016],[-0.03218749999999997,0.08000000000000008,3.7620999999977656],[-0.06114583333333338,0.07537037037037045,3.7786999999992545],[-0.09510416666666661,0.049629629629629544,3.7953999999985086],[-0.12166666666666662,-0.006481481481481481,3.8120999999977627],[-0.11062500000000004,-0.023148148148148147,3.8314999999999984],[-0.08562500000000005,-0.017407407407407365,3.84729999999702],[-0.051874999999999956,0.03314814814814811,3.8625999999977623],[-0.04520833333333331,-0.006296296296296254,3.878699999999249],[-0.021041666666666715,-0.02907407407407416,3.897299999997017],[-0.008958333333333356,-0.040740740740740744,3.912099999997764],[-0.0012500000000000473,-0.075,3.9306999999992556],[0.016666666666666666,-0.06518518518518517,3.945299999997019],[0.02177083333333331,-0.06425925925925924,3.961999999999996],[0.029270833333333357,-0.0492592592592593,3.9787999999970154],[0.027395833333333286,-0.07000000000000002,3.997099999997765],[0.019479166666666714,-0.11370370370370367,4.012099999997766],[0.019479166666666714,-0.11370370370370367,4.0286999999992545],[0.013229166666666714,-0.12333333333333338,4.04529999999702],[-0.01114583333333338,-0.10999999999999996,4.062099999997763],[-0.016562499999999977,-0.10092592592592593,4.078699999999252],[-0.01260416666666669,-0.09611111111111106,4.095399999998506],[0.004375000000000047,-0.06092592592592588,4.114599999997765],[0.025625000000000023,-0.01703703703703712,4.131099999997765],[0.035312499999999976,0.03037037037037033,4.146199999999254],[0.035312499999999976,0.03037037037037033,4.1621999999992525],[0.04864583333333338,0.06351851851851843,4.178699999999253],[0.03156249999999995,0.043703703703703745,4.2010000000000005],[0.03156249999999995,0.043703703703703745,4.212099999997761],[0.04135416666666671,0.12629629629629638,4.228799999997015],[0.0578125,0.13574074074074066,4.25],[0.0578125,0.13574074074074066,4.2620000000000005],[0.06760416666666676,0.13759259259259252,4.27879999999702],[0.06760416666666676,0.13759259259259252,4.295399999998509],[0.06312500000000003,0.12092592592592584,4.312099999997763],[0.06312500000000003,0.12092592592592584,4.328799999997017],[0.04385416666666669,0.11481481481481481,4.345399999998506],[0.04385416666666669,0.11481481481481481,4.362399999998509],[0.013645833333333357,0.07166666666666675,4.378799999997014],[-0.008124999999999953,0.029814814814814856,4.397399999998505],[-0.02802083333333331,-0.04666666666666675,4.411999999999999],[-0.02802083333333331,-0.04666666666666675,4.428799999997018],[-0.05395833333333329,-0.12296296296296293,4.445399999998507],[-0.04708333333333338,-0.10499999999999998,4.461999999999996],[-0.049479166666666664,-0.18703703703703703,4.478799999997015],[-0.05427083333333336,-0.21537037037037038,4.495399999998504],[-0.041979166666666616,-0.24092592592592596,4.512199999999254],[-0.027395833333333286,-0.24111111111111108,4.528999999999996],[0.001979166666666643,-0.2518518518518518,4.54529999999702],[0.010312499999999976,-0.2692592592592592,4.562099999997763],[0.010208333333333286,-0.287962962962963,4.578799999997017],[0.02322916666666662,-0.27907407407407403,4.595399999998506],[0.036145833333333384,-0.27018518518518514,4.61209999999776],[0.030416666666666713,-0.2770370370370371,4.629299999997016],[0.03687499999999998,-0.2566666666666667,4.645299999997015],[0.043333333333333356,-0.23629629629629634,4.664799999997015],[0.043333333333333356,-0.23629629629629634,4.681399999998504],[0.024062500000000025,-0.259074074074074,4.695399999998507],[0.005104166666666643,-0.2418518518518519,4.712099999997761],[-0.013854166666666619,-0.22462962962962965,4.7302999999970154],[-0.012187500000000047,-0.2322222222222222,4.745399999998504],[-0.010520833333333358,-0.23981481481481481,4.7620000000000005],[-0.01604166666666664,-0.19500000000000003,4.7786999999992545],[-0.021458333333333357,-0.15018518518518523,4.795399999998509],[-0.035416666666666666,-0.17222222222222222,4.812099999997763],[-0.053125,-0.1705555555555556,4.832099999997759],[-0.06781250000000003,-0.19018518518518515,4.845499999999994],[-0.06885416666666669,-0.17592592592592593,4.86209999999776],[-0.06104166666666669,-0.18944444444444447,4.878699999999249],[-0.05322916666666669,-0.202962962962963,4.8955999999977635],[-0.05322916666666669,-0.202962962962963,4.936999999999998],[-0.0546875,-0.18666666666666668,4.943199999999251],[-0.0546875,-0.18666666666666668,4.949899999998507],[-0.03895833333333331,-0.17814814814814814,4.961999999999996],[-0.03104166666666662,-0.21500000000000005,4.97869999999925],[-0.06145833333333333,-0.2324074074074074,4.995299999997016],[-0.043124999999999976,-0.2168518518518519,5.0120000000000005],[-0.04802083333333336,-0.22685185185185186,5.0286999999992545],[-0.04479166666666667,-0.2494444444444444,5.045399999998509],[-0.041562499999999974,-0.272037037037037,5.061999999999998],[-0.014791666666666713,-0.28481481481481485,5.078699999999252],[-0.0013541666666666192,-0.32092592592592595,5.098599999997759],[0.008229166666666643,-0.3622222222222223,5.11209999999776],[0.0006250000000000236,-0.3957407407407407,5.128799999997014]]","[0.000199999999253464,0.03189999999850812,0.04539999999850863,0.06219999999925108,0.07879999999701681,0.09549999999999415,0.11219999999925534,0.12879999999701397,0.14559999999776352,0.16209999999776414,0.17879999999701823,0.1953999999985072,0.2120999999977613,0.2287999999970154,0.24549999999999983,0.26209999999776556,0.27879999999701965,0.29569999999925045,0.3122999999970162,0.3287999999970168,0.3453999999985058,0.3620999999977599,0.37879999999701397,0.3954999999999984,0.41209999999776414,0.42879999999701823,0.4453999999985072,0.46569999999925216,0.4808999999985062,0.49549999999999983,0.5121999999992539,0.5300999999977591,0.5453999999985086,0.5619999999999976,0.5786999999992517,0.5953999999985058,0.6191999999992532,0.628799999997014,0.6454999999999984,0.6621999999992525,0.6788999999985066,0.6954999999999956,0.7120999999977613,0.7309999999999945,0.7453999999985044,0.7621999999992539,0.7787999999970197,0.7972999999970156,0.8121999999992511,0.8322999999970193,0.847999999999999,0.8622999999970204,0.8789999999999978,0.9014999999999986,0.9166999999992527,0.9288999999985066,0.9455999999977607,0.9652999999970149,0.9812999999970202,0.9955999999977649,1.0150999999977657,1.0323999999985105,1.0471999999992505,1.0622999999970162,1.0812999999970145,1.0963999999985106,1.1123999999985088,1.132099999997763,1.1475000000000009,1.1626999999992549,1.1820999999977602,1.1955999999977607,1.2122999999970148,1.2304999999999993,1.2473999999985068,1.262299999997019,1.278899999998508,1.297799999997018,1.3122999999970162,1.3288999999985052,1.3473999999985082,1.3621999999992553,1.3789999999999978,1.3954999999999984,1.4150999999977643,1.428999999999995,1.4455999999977607,1.4620999999977613,1.4788999999985109,1.4953999999985044,1.512199999999254,1.5287999999970197,1.5453999999985086,1.5619999999999976,1.5786999999992517,1.5953999999985058,1.6120999999977599,1.6288999999985094,1.64539999999851,1.6620999999977641,1.6786999999992531,1.6953999999985072,1.7120999999977613,1.7287999999970154,1.7453999999985044,1.7620000000000005,1.7786999999992545,1.7953999999985086,1.8119999999999976,1.8290000000000006,1.8454999999999941,1.8620999999977599,1.878799999997014,1.89539999999851,1.9120999999977641,1.9287999999970182,1.9453999999985072,1.9620999999977613,1.9787999999970154,1.9953999999985044,2.012199999999254,2.031499999999994,2.0453999999985086,2.062199999999251,2.078799999997017,2.095399999998506,2.11209999999776,2.128799999997014,2.1500999999977637,2.1621999999992525,2.1788999999985066,2.195399999998507,2.2120999999977613,2.2287999999970154,2.2455,2.2620999999977656,2.2786999999992545,2.2981999999992553,2.312199999999251,2.328799999997017,2.3484999999999943,2.36209999999776,2.378699999999249,2.3952999999970146,2.412099999997764,2.430199999999253,2.4454999999999956,2.4620999999977613,2.4787999999970154,2.4955,2.5120999999977656,2.5319999999999965,2.5453999999985086,2.562199999999251,2.578899999998505,2.595399999998506,2.615799999997016,2.628999999999998,2.6455999999977635,2.662099999997764,2.6787999999970182,2.6954999999999956,2.7120999999977613,2.730899999998506,2.7453999999985044,2.7620999999977656,2.7787999999970197,2.7953999999985086,2.8120999999977627,2.831099999997761,2.845399999998506,2.8619999999999948,2.878699999999249,2.89539999999851,2.916799999997018,2.9317999999970183,2.945399999998507,2.9620999999977613,2.9787999999970154,2.9953999999985044,3.0120999999977656,3.029999999999994,3.0453999999985086,3.0620999999977627,3.0786999999992517,3.095399999998506,3.11209999999776,3.1288999999985094,3.14539999999851,3.162099999997764,3.1787999999970182,3.1954999999999956,3.2120999999977613,3.2312999999970202,3.2455,3.262199999999254,3.2823999999985105,3.297799999997018,3.3123999999985045,3.3337999999970194,3.3488999999985083,3.363999999999997,3.3788999999985094,3.3976999999992543,3.412399999998506,3.4303999999985066,3.4487999999970143,3.463000000000001,3.4787999999970154,3.4975999999977603,3.5123999999985074,3.5312999999970174,3.548899999998504,3.5633999999985093,3.578799999997017,3.598699999999255,3.61209999999776,3.6288999999985094,3.645699999999252,3.662099999997764,3.678699999999253,3.697299999997014,3.7120999999977613,3.7287999999970154,3.745299999997016,3.7620999999977656,3.7786999999992545,3.7953999999985086,3.8120999999977627,3.8314999999999984,3.84729999999702,3.8625999999977623,3.878699999999249,3.897299999997017,3.912099999997764,3.9306999999992556,3.945299999997019,3.961999999999996,3.9787999999970154,3.997099999997765,4.012099999997766,4.0286999999992545,4.04529999999702,4.062099999997763,4.078699999999252,4.095399999998506,4.114599999997765,4.131099999997765,4.146199999999254,4.1621999999992525,4.178699999999253,4.2010000000000005,4.212099999997761,4.228799999997015,4.25,4.2620000000000005,4.27879999999702,4.295399999998509,4.312099999997763,4.328799999997017,4.345399999998506,4.362399999998509,4.378799999997014,4.397399999998505,4.411999999999999,4.428799999997018,4.445399999998507,4.461999999999996,4.478799999997015,4.495399999998504,4.512199999999254,4.528999999999996,4.54529999999702,4.562099999997763,4.578799999997017,4.595399999998506,4.61209999999776,4.629299999997016,4.645299999997015,4.664799999997015,4.681399999998504,4.695399999998507,4.712099999997761,4.7302999999970154,4.745399999998504,4.7620000000000005,4.7786999999992545,4.795399999998509,4.812099999997763,4.832099999997759,4.845499999999994,4.86209999999776,4.878699999999249,4.8955999999977635,4.936999999999998,4.943199999999251,4.949899999998507,4.961999999999996,4.97869999999925,4.995299999997016,5.0120000000000005,5.0286999999992545,5.045399999998509,5.061999999999998,5.078699999999252,5.098599999997759,5.11209999999776,5.128799999997014]","[1733137053346,1733137053371,1733137053384,1733137053401,1733137053418,1733137053434,1733137053451,1733137053468,1733137053484,1733137053501,1733137053518,1733137053534,1733137053551,1733137053568,1733137053584,1733137053601,1733137053618,1733137053635,1733137053651,1733137053668,1733137053684,1733137053701,1733137053718,1733137053734,1733137053751,1733137053768,1733137053784,1733137053805,1733137053820,1733137053834,1733137053851,1733137053869,1733137053884,1733137053901,1733137053918,1733137053934,1733137053958,1733137053968,1733137053984,1733137054001,1733137054018,1733137054034,1733137054051,1733137054070,1733137054084,1733137054101,1733137054118,1733137054136,1733137054151,1733137054171,1733137054187,1733137054201,1733137054218,1733137054240,1733137054256,1733137054268,1733137054284,1733137054304,1733137054320,1733137054334,1733137054354,1733137054371,1733137054386,1733137054401,1733137054420,1733137054435,1733137054451,1733137054471,1733137054486,1733137054502,1733137054521,1733137054534,1733137054551,1733137054569,1733137054586,1733137054601,1733137054618,1733137054637,1733137054651,1733137054668,1733137054686,1733137054701,1733137054718,1733137054734,1733137054754,1733137054768,1733137054784,1733137054801,1733137054818,1733137054834,1733137054851,1733137054868,1733137054884,1733137054901,1733137054918,1733137054934,1733137054951,1733137054968,1733137054984,1733137055001,1733137055018,1733137055034,1733137055051,1733137055068,1733137055084,1733137055101,1733137055118,1733137055134,1733137055151,1733137055168,1733137055184,1733137055201,1733137055218,1733137055234,1733137055251,1733137055268,1733137055284,1733137055301,1733137055318,1733137055334,1733137055351,1733137055370,1733137055384,1733137055401,1733137055418,1733137055434,1733137055451,1733137055468,1733137055489,1733137055501,1733137055518,1733137055535,1733137055551,1733137055568,1733137055585,1733137055601,1733137055618,1733137055637,1733137055651,1733137055668,1733137055688,1733137055701,1733137055718,1733137055735,1733137055751,1733137055769,1733137055785,1733137055801,1733137055818,1733137055835,1733137055851,1733137055871,1733137055884,1733137055901,1733137055918,1733137055935,1733137055955,1733137055968,1733137055985,1733137056001,1733137056018,1733137056035,1733137056051,1733137056070,1733137056084,1733137056101,1733137056118,1733137056135,1733137056151,1733137056170,1733137056185,1733137056201,1733137056218,1733137056235,1733137056256,1733137056271,1733137056285,1733137056301,1733137056318,1733137056334,1733137056351,1733137056369,1733137056385,1733137056401,1733137056418,1733137056435,1733137056451,1733137056468,1733137056485,1733137056501,1733137056518,1733137056535,1733137056551,1733137056570,1733137056585,1733137056601,1733137056621,1733137056637,1733137056652,1733137056673,1733137056688,1733137056703,1733137056718,1733137056737,1733137056751,1733137056770,1733137056788,1733137056802,1733137056818,1733137056837,1733137056852,1733137056870,1733137056888,1733137056903,1733137056918,1733137056938,1733137056951,1733137056968,1733137056985,1733137057001,1733137057018,1733137057036,1733137057051,1733137057068,1733137057085,1733137057101,1733137057118,1733137057135,1733137057151,1733137057171,1733137057186,1733137057202,1733137057218,1733137057236,1733137057251,1733137057270,1733137057284,1733137057301,1733137057318,1733137057336,1733137057351,1733137057368,1733137057384,1733137057401,1733137057418,1733137057435,1733137057454,1733137057470,1733137057485,1733137057501,1733137057518,1733137057540,1733137057551,1733137057568,1733137057589,1733137057601,1733137057618,1733137057634,1733137057651,1733137057668,1733137057684,1733137057701,1733137057718,1733137057737,1733137057751,1733137057768,1733137057784,1733137057801,1733137057818,1733137057834,1733137057851,1733137057868,1733137057885,1733137057901,1733137057918,1733137057934,1733137057951,1733137057968,1733137057984,1733137058004,1733137058021,1733137058034,1733137058051,1733137058069,1733137058084,1733137058101,1733137058118,1733137058135,1733137058151,1733137058171,1733137058185,1733137058201,1733137058218,1733137058235,1733137058276,1733137058282,1733137058289,1733137058301,1733137058318,1733137058334,1733137058351,1733137058368,1733137058384,1733137058401,1733137058418,1733137058438,1733137058451,1733137058468]","[[1266.9,439.5],[1266.9,439.5],[1274.7,434.8],[1274.7,434.8],[1275,430.8],[1275,430.8],[1278.9,433.8],[1278.9,433.8],[1270.6,442.2],[1270.6,442.2],[1266.8,436.3],[1266.8,436.3],[1267.1,448],[1267.1,448],[1252,452.3],[1252,452.3],[1232.1,466.2],[1232.1,466.2],[1258.7,485.2],[1258.7,485.2],[1258.4,525.7],[1263.7,565.8],[1288.4,570.5],[1293,580.9],[1316.7,594.6],[1330.6,612],[1324.7,612.2],[1320.6,623.2],[1324.6,628.9],[1317.2,628.5],[1323.8,616.7],[1324.8,605.3],[1333.4,606],[1324,622],[1303.6,600.7],[1286.4,604.1],[1262.8,600.8],[1262.8,600.8],[1272.1,593.7],[1270.2,584.8],[1278.3,582],[1281.8,578],[1264.9,558.8],[1240.5,552.6],[1237.2,542.4],[1238,560.8],[1221.5,563.2],[1227.1,571.9],[1221.4,603.5],[1223.6,632.6],[1198.2,627.3],[1152.4,647.2],[1151.7,663.2],[1151,679.2],[1134.9,707.6],[1134.9,707.6],[1118.8,736],[1107.9,724.2],[1113.3,742.2],[1095.4,745.9],[1066.5,724],[1043.2,746.3],[1055.4,739.9],[1041.3,747.6],[1022.3,772.6],[1005.9,758.7],[1005.9,758.7],[996,727],[996,727],[999.7,739.8],[983.4,744.6],[958.9,727.6],[959.7,752.8],[972.2,758.2],[971.4,730.5],[956.2,725.3],[947.2,697.5],[964.6,717.5],[961.3,745.4],[953.3,760.3],[949,753.4],[953,770.7],[942.7,771.4],[931.8,764.8],[919.1,794.8],[932.2,791.3],[930.8,788.8],[912.7,753.7],[909.3,722.3],[905.9,690.9],[897.7,679.5],[889.4,665.7],[875.1,646],[861.4,633.6],[882.8,630.3],[894.4,643],[890.3,652.5],[890.3,652.5],[886.2,662],[895.4,676.9],[920.2,674.8],[949.8,652.7],[966,630.6],[976,618.7],[998.2,602.5],[991.9,570.3],[990,547.9],[1018.3,554.5],[1046.6,561.1],[1039.9,589.2],[1030,604],[1003.7,639.3],[1005.5,686.7],[1014.4,704.5],[999.4,736.9],[977.8,776.2],[954.7,810.1],[930.3,822.5],[921.6,818.3],[934.1,793.4],[912.7,794.6],[907.7,775.5],[901.3,743.5],[901.3,743.5],[898.7,729.5],[912.6,703.5],[926.3,679.7],[937.1,651.5],[947.4,622.9],[947.4,622.9],[933.6,621.9],[933.6,621.9],[915.3,629.7],[915.3,629.7],[939.7,615.1],[939.7,615.1],[958.6,616.8],[959.8,599.8],[959.8,599.8],[980.8,593.4],[1000.5,601.2],[1022.9,604.9],[1043.6,588.9],[1051,578.1],[1072.4,564.4],[1102.6,541.3],[1107.5,562.4],[1117.9,567],[1150.4,569.8],[1164.4,569.3],[1160.1,544.8],[1152.8,533.9],[1128.9,546.1],[1141.4,564.1],[1148.3,574],[1157.8,563],[1171.4,534.4],[1171.4,534.4],[1210.4,532.5],[1188.8,527.5],[1189.9,536.2],[1205.8,556.4],[1214.8,563.3],[1228.3,572.1],[1221.4,572.3],[1225.8,551.7],[1212.4,563.3],[1184.1,574],[1141,566.6],[1146.5,579],[1132.6,562.5],[1118,555.7],[1105.7,539],[1107.2,517],[1113,519.2],[1089.8,534.3],[1077.5,538.7],[1096.1,533.1],[1112.1,527.8],[1124.9,510.9],[1134.4,509.2],[1160.7,503.8],[1194.1,524.2],[1227.5,544.6],[1252.9,544.6],[1296,552.5],[1339.4,562.4],[1366.8,583.2],[1366.6,576.2],[1363.9,585.4],[1374.2,603.3],[1368.4,615.2],[1365.3,618],[1365.3,618],[1316.4,610.5],[1260.8,584.6],[1217.5,551.3],[1169.8,533.9],[1112,514.7],[1073.8,514.4],[1052.2,514.4],[1017.6,505.7],[990.2,504.1],[961.1,481.5],[961.2,480.6],[969.5,492.3],[972.6,522.2],[971.6,517.7],[976.7,528.5],[981.8,539.3],[942,545.2],[902.2,551.1],[883.9,517],[873.4,514.1],[879.7,503.4],[886,492.7],[913.4,485.5],[913.4,485.5],[941.9,511.2],[947.3,521.4],[930.6,519.1],[928.1,489.3],[970.6,503.3],[960.9,539.8],[943,557.2],[929.1,583.2],[901.3,580.7],[868.7,566.8],[843.2,536.5],[853.8,527.5],[877.8,530.6],[910.2,557.9],[916.6,536.6],[939.8,524.3],[951.4,518],[958.8,499.5],[976,504.8],[980.9,505.3],[988.1,513.4],[986.3,502.2],[978.7,478.6],[978.7,478.6],[972.7,473.4],[949.3,480.6],[944.1,485.5],[947.9,488.1],[964.2,507.1],[984.6,530.8],[993.9,556.4],[993.9,556.4],[1006.7,574.3],[990.3,563.6],[990.3,563.6],[999.7,608.2],[1015.5,613.3],[1015.5,613.3],[1024.9,614.3],[1024.9,614.3],[1020.6,605.3],[1020.6,605.3],[1002.1,602],[1002.1,602],[973.1,578.7],[952.2,556.1],[933.1,514.8],[933.1,514.8],[908.2,473.6],[914.8,483.3],[912.5,439],[907.9,423.7],[919.7,409.9],[933.7,409.8],[961.9,404],[969.9,394.6],[969.8,384.5],[982.3,389.3],[994.7,394.1],[989.2,390.4],[995.4,401.4],[1001.6,412.4],[1001.6,412.4],[983.1,400.1],[964.9,409.4],[946.7,418.7],[948.3,414.6],[949.9,410.5],[944.6,434.7],[939.4,458.9],[926,447],[909,447.9],[894.9,437.3],[893.9,445],[901.4,437.7],[908.9,430.4],[908.9,430.4],[907.5,439.2],[907.5,439.2],[922.6,443.8],[930.2,423.9],[901,414.5],[918.6,422.9],[913.9,417.5],[917,405.3],[920.1,393.1],[945.8,386.2],[958.7,366.7],[967.9,344.4],[960.6,326.3]]","[0,0.151169218]","[0.151169218,0.151169218]","[-0.151169218,0]","[-0.151169218,-0.151169218]","[0,0]","[0.151169218,0]","[0,-0.151169218]","[0.151169218,-0.151169218]",0,0,0,0,1,1,Smartphone,7,7,15,9
