inst1_resp.keys,inst1_resp.rt,calibrationMouse.x,calibrationMouse.y,calibrationMouse.leftButton,calibrationMouse.midButton,calibrationMouse.rightButton,calibrationClick.x,calibrationClick.y,calibrationClick.leftButton,calibrationClick.midButton,calibrationClick.rightButton,calibrationClick.clicked_name,trialsc.thisRepN,trialsc.thisTrialN,trialsc.thisN,trialsc.thisIndex,trialsc.ran,calibration_x,calibration_y,participant,session,date,expName,psychopyVersion,OS,frameRate,ScreenRes_pixels,Camera_pixels,mouse_2.x,mouse_2.y,mouse_2.leftButton,mouse_2.midButton,mouse_2.rightButton,mouse_2.time,mouse_2.clicked_name,mouse.x,mouse.y,mouse.leftButton,mouse.midButton,mouse.rightButton,mouse.time,mouse.clicked_name,Choice,Trial,TrialDuration,MOUSE_GAZE,ET_GAZE,ET_GAZE_x_T,time,unixTime,ET_GAZE_NF,Loc_Option1_label,Loc_Option2_label,Loc_Cost_label,Loc_Qual_label,Loc_Option1_cost,Loc_Option2_cost,Loc_Option1_quality,Loc_Option2_quality,trials.thisRepN,trials.thisTrialN,trials.thisN,trials.thisIndex,trials.ran,Block,Device,cost1,qual1,cost2,qual2
space,8.9554,-0.253125,-0.242592593,1,0,0,-0.005208333,-0.32037037,1,0,0,calibration_square,0,0,0,10,1,0,-0.33,28,001,2024-12-03_13h37.06.505,Attention_exp_legacy,2023.1.0,Win32,59.88023952,,,,,,,,,,,,,,,,,,,,,,,,,,,,,,,,,,,,,,,,,,,,
,,,,,,,0.342708333,-0.331481481,1,0,0,,0,1,1,15,1,0.33,-0.33,28,001,2024-12-03_13h37.06.505,Attention_exp_legacy,2023.1.0,Win32,59.88023952,,,,,,,,,,,,,,,,,,,,,,,,,,,,,,,,,,,,,,,,,,,,
,,,,,,,-0.670833333,0,1,0,0,calibration_square,0,2,2,2,1,-0.67,0,28,001,2024-12-03_13h37.06.505,Attention_exp_legacy,2023.1.0,Win32,59.88023952,,,,,,,,,,,,,,,,,,,,,,,,,,,,,,,,,,,,,,,,,,,,
,,,,,,,-0.001041667,-0.001851852,1,0,0,calibration_square,0,3,3,11,1,0,0,28,001,2024-12-03_13h37.06.505,Attention_exp_legacy,2023.1.0,Win32,59.88023952,,,,,,,,,,,,,,,,,,,,,,,,,,,,,,,,,,,,,,,,,,,,
,,,,,,,-0.347916667,-0.307407407,1,0,0,,0,4,4,5,1,-0.33,-0.33,28,001,2024-12-03_13h37.06.505,Attention_exp_legacy,2023.1.0,Win32,59.88023952,,,,,,,,,,,,,,,,,,,,,,,,,,,,,,,,,,,,,,,,,,,,
,,,,,,,0.329166667,0.344444444,1,0,0,,0,5,5,17,1,0.33,0.33,28,001,2024-12-03_13h37.06.505,Attention_exp_legacy,2023.1.0,Win32,59.88023952,,,,,,,,,,,,,,,,,,,,,,,,,,,,,,,,,,,,,,,,,,,,
,,,,,,,-0.661458333,0.338888889,1,0,0,calibration_square,0,6,6,3,1,-0.67,0.33,28,001,2024-12-03_13h37.06.505,Attention_exp_legacy,2023.1.0,Win32,59.88023952,,,,,,,,,,,,,,,,,,,,,,,,,,,,,,,,,,,,,,,,,,,,
,,,,,,,0.339583333,0.681481481,1,0,0,,0,7,7,18,1,0.33,0.67,28,001,2024-12-03_13h37.06.505,Attention_exp_legacy,2023.1.0,Win32,59.88023952,,,,,,,,,,,,,,,,,,,,,,,,,,,,,,,,,,,,,,,,,,,,
,,,,,,,0.332291667,-0.009259259,1,0,0,calibration_square,0,8,8,16,1,0.33,0,28,001,2024-12-03_13h37.06.505,Attention_exp_legacy,2023.1.0,Win32,59.88023952,,,,,,,,,,,,,,,,,,,,,,,,,,,,,,,,,,,,,,,,,,,,
,,,,,,,-0.310416667,0.681481481,1,0,0,,0,9,9,8,1,-0.33,0.67,28,001,2024-12-03_13h37.06.505,Attention_exp_legacy,2023.1.0,Win32,59.88023952,,,,,,,,,,,,,,,,,,,,,,,,,,,,,,,,,,,,,,,,,,,,
,,,,,,,-0.671875,-0.666666667,1,0,0,calibration_square,0,10,10,0,1,-0.67,-0.67,28,001,2024-12-03_13h37.06.505,Attention_exp_legacy,2023.1.0,Win32,59.88023952,,,,,,,,,,,,,,,,,,,,,,,,,,,,,,,,,,,,,,,,,,,,
,,,,,,,-0.682291667,-0.340740741,1,0,0,,0,11,11,1,1,-0.67,-0.33,28,001,2024-12-03_13h37.06.505,Attention_exp_legacy,2023.1.0,Win32,59.88023952,,,,,,,,,,,,,,,,,,,,,,,,,,,,,,,,,,,,,,,,,,,,
,,,,,,,-0.330208333,-0.685185185,1,0,0,,0,12,12,4,1,-0.33,-0.67,28,001,2024-12-03_13h37.06.505,Attention_exp_legacy,2023.1.0,Win32,59.88023952,,,,,,,,,,,,,,,,,,,,,,,,,,,,,,,,,,,,,,,,,,,,
,,,,,,,0.316666667,-0.677777778,1,0,0,,0,13,13,14,1,0.33,-0.67,28,001,2024-12-03_13h37.06.505,Attention_exp_legacy,2023.1.0,Win32,59.88023952,,,,,,,,,,,,,,,,,,,,,,,,,,,,,,,,,,,,,,,,,,,,
,,,,,,,-0.340625,0.318518519,1,0,0,,0,14,14,7,1,-0.33,0.33,28,001,2024-12-03_13h37.06.505,Attention_exp_legacy,2023.1.0,Win32,59.88023952,,,,,,,,,,,,,,,,,,,,,,,,,,,,,,,,,,,,,,,,,,,,
,,,,,,,-0.004166667,0.348148148,1,0,0,,0,15,15,12,1,0,0.33,28,001,2024-12-03_13h37.06.505,Attention_exp_legacy,2023.1.0,Win32,59.88023952,,,,,,,,,,,,,,,,,,,,,,,,,,,,,,,,,,,,,,,,,,,,
,,,,,,,-0.311458333,0.001851852,1,0,0,,0,16,16,6,1,-0.33,0,28,001,2024-12-03_13h37.06.505,Attention_exp_legacy,2023.1.0,Win32,59.88023952,,,,,,,,,,,,,,,,,,,,,,,,,,,,,,,,,,,,,,,,,,,,
,,,,,,,0.00625,-0.675925926,1,0,0,calibration_square,0,17,17,9,1,0,-0.67,28,001,2024-12-03_13h37.06.505,Attention_exp_legacy,2023.1.0,Win32,59.88023952,,,,,,,,,,,,,,,,,,,,,,,,,,,,,,,,,,,,,,,,,,,,
,,,,,,,0.008333333,0.635185185,1,0,0,,0,18,18,13,1,0,0.67,28,001,2024-12-03_13h37.06.505,Attention_exp_legacy,2023.1.0,Win32,59.88023952,,,,,,,,,,,,,,,,,,,,,,,,,,,,,,,,,,,,,,,,,,,,
,,,,,,,0.6875,-0.65,1,0,0,,0,19,19,20,1,0.67,-0.67,28,001,2024-12-03_13h37.06.505,Attention_exp_legacy,2023.1.0,Win32,59.88023952,,,,,,,,,,,,,,,,,,,,,,,,,,,,,,,,,,,,,,,,,,,,
,,,,,,,0.679166667,0.653703704,1,0,0,,0,20,20,19,1,0.67,0.67,28,001,2024-12-03_13h37.06.505,Attention_exp_legacy,2023.1.0,Win32,59.88023952,,,,,,,,,,,,,,,,,,,,,,,,,,,,,,,,,,,,,,,,,,,,
,,,,,,,,,,,,,,,,,,,,28,001,2024-12-03_13h37.06.505,Attention_exp_legacy,2023.1.0,Win32,59.88023952,"[1920,1080]","[640,480]",[0.059375],[-0.5092592592592593],[1],[0],[0],[8.403299999997024],"[""StartButton""]","[0.029166666666666667,0.028125,0.015625]","[0.3388888888888889,0.34074074074074073,-0.11851851851851852]","[1,1,1]","[0,0,0]","[0,0,0]","[6.2797000000029755,6.876300000011923,7.275499999999994]","[""Option1_label"",""Option1_label""]",Option1_label,1,7.3023,"[[0.3614583333333333,-0.1685185185185185],[0.3614583333333333,-0.1685185185185185],[0.3614583333333333,-0.1685185185185185],[0.3614583333333333,-0.1685185185185185],[0.3614583333333333,-0.1685185185185185],[0.3614583333333333,-0.1685185185185185],[0.3614583333333333,-0.1685185185185185],[0.3614583333333333,-0.1685185185185185],[0.3614583333333333,-0.1685185185185185],[0.3614583333333333,-0.1685185185185185],[0.3614583333333333,-0.1685185185185185],[0.3614583333333333,-0.1685185185185185],[0.3614583333333333,-0.1685185185185185],[0.3614583333333333,-0.1685185185185185],[0.3614583333333333,-0.1685185185185185],[0.3614583333333333,-0.1685185185185185],[0.3614583333333333,-0.1685185185185185],[0.3614583333333333,-0.1685185185185185],[0.3614583333333333,-0.1685185185185185],[0.3614583333333333,-0.1685185185185185],[0.3614583333333333,-0.1685185185185185],[0.3614583333333333,-0.1685185185185185],[0.3614583333333333,-0.1685185185185185],[0.3614583333333333,-0.1685185185185185],[0.3614583333333333,-0.1685185185185185],[0.3614583333333333,-0.1685185185185185],[0.3614583333333333,-0.1685185185185185],[0.3614583333333333,-0.1685185185185185],[0.3614583333333333,-0.1685185185185185],[0.36041666666666666,-0.1685185185185185],[0.359375,-0.17037037037037037],[0.359375,-0.17222222222222222],[0.35833333333333334,-0.17592592592592593],[0.35625,-0.17962962962962964],[0.35520833333333335,-0.18333333333333332],[0.353125,-0.18518518518518517],[0.35208333333333336,-0.18703703703703703],[0.3489583333333333,-0.18888888888888888],[0.34479166666666666,-0.1925925925925926],[0.3385416666666667,-0.19444444444444445],[0.3333333333333333,-0.19814814814814816],[0.325,-0.19814814814814816],[0.3145833333333333,-0.19814814814814816],[0.303125,-0.19814814814814816],[0.28958333333333336,-0.19814814814814816],[0.265625,-0.19444444444444445],[0.24375,-0.17962962962962964],[0.221875,-0.17037037037037037],[0.20416666666666666,-0.1648148148148148],[0.184375,-0.1574074074074074],[0.165625,-0.1537037037037037],[0.14583333333333334,-0.14814814814814814],[0.13020833333333334,-0.14444444444444443],[0.115625,-0.14074074074074075],[0.10416666666666667,-0.1388888888888889],[0.09479166666666666,-0.1388888888888889],[0.08541666666666667,-0.1388888888888889],[0.07708333333333334,-0.1388888888888889],[0.06666666666666667,-0.1388888888888889],[0.06145833333333333,-0.1388888888888889],[0.05416666666666667,-0.1388888888888889],[0.046875,-0.1388888888888889],[0.041666666666666664,-0.1388888888888889],[0.034375,-0.1388888888888889],[0.027083333333333334,-0.1388888888888889],[0.022916666666666665,-0.1388888888888889],[0.01875,-0.1388888888888889],[0.014583333333333334,-0.1388888888888889],[0.011458333333333333,-0.1388888888888889],[0.00625,-0.1388888888888889],[0.004166666666666667,-0.1388888888888889],[0.0010416666666666667,-0.13703703703703704],[0,-0.13703703703703704],[-0.003125,-0.13518518518518519],[-0.004166666666666667,-0.13518518518518519],[-0.00625,-0.13333333333333333],[-0.008333333333333333,-0.13148148148148148],[-0.010416666666666666,-0.13148148148148148],[-0.0125,-0.13148148148148148],[-0.014583333333333334,-0.13148148148148148],[-0.014583333333333334,-0.13148148148148148],[-0.016666666666666666,-0.13148148148148148],[-0.017708333333333333,-0.13148148148148148],[-0.019791666666666666,-0.13148148148148148],[-0.019791666666666666,-0.13148148148148148],[-0.019791666666666666,-0.13148148148148148],[-0.020833333333333332,-0.13148148148148148],[-0.020833333333333332,-0.13148148148148148],[-0.020833333333333332,-0.13148148148148148],[-0.020833333333333332,-0.13148148148148148],[-0.020833333333333332,-0.13148148148148148],[-0.020833333333333332,-0.13148148148148148],[-0.020833333333333332,-0.13148148148148148],[-0.020833333333333332,-0.13148148148148148],[-0.020833333333333332,-0.13148148148148148],[-0.020833333333333332,-0.13148148148148148],[-0.020833333333333332,-0.13148148148148148],[-0.020833333333333332,-0.13148148148148148],[-0.020833333333333332,-0.13148148148148148],[-0.020833333333333332,-0.13148148148148148],[-0.020833333333333332,-0.13148148148148148],[-0.020833333333333332,-0.13148148148148148],[-0.020833333333333332,-0.13148148148148148],[-0.020833333333333332,-0.13148148148148148],[-0.020833333333333332,-0.13148148148148148],[-0.020833333333333332,-0.13148148148148148],[-0.020833333333333332,-0.13148148148148148],[-0.020833333333333332,-0.13148148148148148],[-0.020833333333333332,-0.13148148148148148],[-0.020833333333333332,-0.13148148148148148],[-0.020833333333333332,-0.13148148148148148],[-0.020833333333333332,-0.13148148148148148],[-0.020833333333333332,-0.13148148148148148],[-0.020833333333333332,-0.13148148148148148],[-0.020833333333333332,-0.13148148148148148],[-0.020833333333333332,-0.13148148148148148],[-0.020833333333333332,-0.13148148148148148],[-0.020833333333333332,-0.13148148148148148],[-0.020833333333333332,-0.13148148148148148],[-0.020833333333333332,-0.13148148148148148],[-0.020833333333333332,-0.13148148148148148],[-0.020833333333333332,-0.13148148148148148],[-0.020833333333333332,-0.13148148148148148],[-0.020833333333333332,-0.13148148148148148],[-0.020833333333333332,-0.13148148148148148],[-0.020833333333333332,-0.13148148148148148],[-0.020833333333333332,-0.13148148148148148],[-0.020833333333333332,-0.13148148148148148],[-0.020833333333333332,-0.13148148148148148],[-0.020833333333333332,-0.13148148148148148],[-0.020833333333333332,-0.13148148148148148],[-0.020833333333333332,-0.13148148148148148],[-0.020833333333333332,-0.13148148148148148],[-0.020833333333333332,-0.13148148148148148],[-0.020833333333333332,-0.13148148148148148],[-0.020833333333333332,-0.13148148148148148],[-0.020833333333333332,-0.13148148148148148],[-0.020833333333333332,-0.13148148148148148],[-0.020833333333333332,-0.13148148148148148],[-0.020833333333333332,-0.13148148148148148],[-0.020833333333333332,-0.13148148148148148],[-0.020833333333333332,-0.13148148148148148],[-0.020833333333333332,-0.13148148148148148],[-0.020833333333333332,-0.13148148148148148],[-0.020833333333333332,-0.13148148148148148],[-0.020833333333333332,-0.13148148148148148],[-0.020833333333333332,-0.13148148148148148],[-0.020833333333333332,-0.13148148148148148],[-0.020833333333333332,-0.13148148148148148],[-0.020833333333333332,-0.13148148148148148],[-0.020833333333333332,-0.13148148148148148],[-0.020833333333333332,-0.13148148148148148],[-0.020833333333333332,-0.13148148148148148],[-0.020833333333333332,-0.13148148148148148],[-0.020833333333333332,-0.13148148148148148],[-0.020833333333333332,-0.13148148148148148],[-0.020833333333333332,-0.13148148148148148],[-0.020833333333333332,-0.13148148148148148],[-0.020833333333333332,-0.13148148148148148],[-0.020833333333333332,-0.13148148148148148],[-0.020833333333333332,-0.13148148148148148],[-0.020833333333333332,-0.13148148148148148],[-0.020833333333333332,-0.13148148148148148],[-0.020833333333333332,-0.13148148148148148],[-0.020833333333333332,-0.13148148148148148],[-0.020833333333333332,-0.13148148148148148],[-0.020833333333333332,-0.13148148148148148],[-0.020833333333333332,-0.13148148148148148],[-0.020833333333333332,-0.13148148148148148],[-0.020833333333333332,-0.13148148148148148],[-0.020833333333333332,-0.13148148148148148],[-0.020833333333333332,-0.13148148148148148],[-0.020833333333333332,-0.13148148148148148],[-0.020833333333333332,-0.13148148148148148],[-0.020833333333333332,-0.13148148148148148],[-0.020833333333333332,-0.13148148148148148],[-0.020833333333333332,-0.13148148148148148],[-0.020833333333333332,-0.13148148148148148],[-0.020833333333333332,-0.13148148148148148],[-0.020833333333333332,-0.13148148148148148],[-0.020833333333333332,-0.13148148148148148],[-0.020833333333333332,-0.13148148148148148],[-0.020833333333333332,-0.13148148148148148],[-0.020833333333333332,-0.13148148148148148],[-0.020833333333333332,-0.13148148148148148],[-0.020833333333333332,-0.13148148148148148],[-0.020833333333333332,-0.12962962962962962],[-0.019791666666666666,-0.12407407407407407],[-0.017708333333333333,-0.1111111111111111],[-0.009375,-0.07222222222222222],[-0.005208333333333333,-0.02962962962962963],[-0.0020833333333333333,0.012962962962962963],[0,0.053703703703703705],[0.0010416666666666667,0.08333333333333333],[0.0020833333333333333,0.1111111111111111],[0.003125,0.13703703703703704],[0.005208333333333333,0.1685185185185185],[0.005208333333333333,0.1962962962962963],[0.005208333333333333,0.21851851851851853],[0.005208333333333333,0.23333333333333334],[0.005208333333333333,0.24074074074074073],[0.005208333333333333,0.2537037037037037],[0.005208333333333333,0.2574074074074074],[0.005208333333333333,0.25925925925925924],[0.005208333333333333,0.2611111111111111],[0.005208333333333333,0.2611111111111111],[0.005208333333333333,0.2611111111111111],[0.005208333333333333,0.2611111111111111],[0.005208333333333333,0.2611111111111111],[0.005208333333333333,0.2611111111111111],[0.005208333333333333,0.2611111111111111],[0.005208333333333333,0.26296296296296295],[0.005208333333333333,0.26296296296296295],[0.005208333333333333,0.26296296296296295],[0.005208333333333333,0.26296296296296295],[0.005208333333333333,0.26296296296296295],[0.005208333333333333,0.26296296296296295],[0.005208333333333333,0.26296296296296295],[0.005208333333333333,0.26296296296296295],[0.005208333333333333,0.26296296296296295],[0.005208333333333333,0.26296296296296295],[0.005208333333333333,0.26296296296296295],[0.005208333333333333,0.25925925925925924],[0.005208333333333333,0.2574074074074074],[0.005208333333333333,0.2574074074074074],[0.005208333333333333,0.2574074074074074],[0.005208333333333333,0.2574074074074074],[0.005208333333333333,0.2574074074074074],[0.005208333333333333,0.2574074074074074],[0.005208333333333333,0.2574074074074074],[0.005208333333333333,0.2574074074074074],[0.005208333333333333,0.2574074074074074],[0.005208333333333333,0.2574074074074074],[0.005208333333333333,0.2574074074074074],[0.005208333333333333,0.2574074074074074],[0.005208333333333333,0.2574074074074074],[0.005208333333333333,0.2574074074074074],[0.005208333333333333,0.2574074074074074],[0.005208333333333333,0.2574074074074074],[0.005208333333333333,0.2574074074074074],[0.005208333333333333,0.2574074074074074],[0.005208333333333333,0.2574074074074074],[0.005208333333333333,0.2574074074074074],[0.005208333333333333,0.2574074074074074],[0.005208333333333333,0.2574074074074074],[0.005208333333333333,0.2574074074074074],[0.005208333333333333,0.2574074074074074],[0.005208333333333333,0.2574074074074074],[0.005208333333333333,0.2574074074074074],[0.005208333333333333,0.2574074074074074],[0.005208333333333333,0.2574074074074074],[0.005208333333333333,0.2574074074074074],[0.005208333333333333,0.2574074074074074],[0.005208333333333333,0.2574074074074074],[0.005208333333333333,0.2574074074074074],[0.005208333333333333,0.2574074074074074],[0.005208333333333333,0.2574074074074074],[0.005208333333333333,0.2574074074074074],[0.005208333333333333,0.2574074074074074],[0.005208333333333333,0.2574074074074074],[0.005208333333333333,0.2574074074074074],[0.005208333333333333,0.2574074074074074],[0.005208333333333333,0.2574074074074074],[0.005208333333333333,0.2574074074074074],[0.005208333333333333,0.2574074074074074],[0.005208333333333333,0.2574074074074074],[0.005208333333333333,0.2574074074074074],[0.005208333333333333,0.2574074074074074],[0.005208333333333333,0.2574074074074074],[0.005208333333333333,0.2574074074074074],[0.005208333333333333,0.2574074074074074],[0.005208333333333333,0.2574074074074074],[0.005208333333333333,0.2574074074074074],[0.005208333333333333,0.2574074074074074],[0.005208333333333333,0.2574074074074074],[0.005208333333333333,0.2574074074074074],[0.005208333333333333,0.2574074074074074],[0.005208333333333333,0.2574074074074074],[0.005208333333333333,0.2574074074074074],[0.005208333333333333,0.26481481481481484],[0.00625,0.27037037037037037],[0.007291666666666667,0.2796296296296296],[0.010416666666666666,0.29444444444444445],[0.016666666666666666,0.31666666666666665],[0.023958333333333335,0.3388888888888889],[0.030208333333333334,0.3537037037037037],[0.03854166666666667,0.3648148148148148],[0.04791666666666667,0.37777777777777777],[0.06041666666666667,0.3888888888888889],[0.07083333333333333,0.39814814814814814],[0.08125,0.4074074074074074],[0.08854166666666667,0.40925925925925927],[0.09895833333333333,0.4166666666666667],[0.11145833333333334,0.4222222222222222],[0.12083333333333333,0.42407407407407405],[0.13020833333333334,0.42407407407407405],[0.14583333333333334,0.42407407407407405],[0.159375,0.42407407407407405],[0.175,0.42407407407407405],[0.18645833333333334,0.4222222222222222],[0.20208333333333334,0.4148148148148148],[0.21875,0.40555555555555556],[0.228125,0.40370370370370373],[0.23645833333333333,0.40185185185185185],[0.24375,0.4],[0.246875,0.4],[0.24895833333333334,0.4],[0.25,0.4],[0.25,0.4],[0.25,0.4],[0.25,0.39814814814814814],[0.24895833333333334,0.3962962962962963],[0.24270833333333333,0.3888888888888889],[0.2375,0.3814814814814815],[0.22916666666666666,0.37407407407407406],[0.22395833333333334,0.37222222222222223],[0.21770833333333334,0.3648148148148148],[0.21145833333333333,0.3611111111111111],[0.209375,0.3592592592592593],[0.20625,0.3574074074074074],[0.20208333333333334,0.35555555555555557],[0.19895833333333332,0.35555555555555557],[0.196875,0.3537037037037037],[0.19375,0.35185185185185186],[0.19166666666666668,0.35185185185185186],[0.18854166666666666,0.35185185185185186],[0.18541666666666667,0.35185185185185186],[0.18125,0.35185185185185186],[0.17604166666666668,0.34814814814814815],[0.16875,0.34629629629629627],[0.16354166666666667,0.34629629629629627],[0.15625,0.34444444444444444],[0.14791666666666667,0.34074074074074073],[0.13645833333333332,0.3388888888888889],[0.13020833333333334,0.337037037037037],[0.12291666666666666,0.337037037037037],[0.11354166666666667,0.3314814814814815],[0.10625,0.3296296296296296],[0.09895833333333333,0.3296296296296296],[0.09166666666666666,0.32592592592592595],[0.08541666666666667,0.32592592592592595],[0.08125,0.32407407407407407],[0.07708333333333334,0.32407407407407407],[0.071875,0.32222222222222224],[0.06979166666666667,0.32222222222222224],[0.06770833333333333,0.32222222222222224],[0.06458333333333334,0.32222222222222224],[0.0625,0.32222222222222224],[0.06041666666666667,0.32222222222222224],[0.058333333333333334,0.32222222222222224],[0.057291666666666664,0.32222222222222224],[0.05520833333333333,0.32222222222222224],[0.051041666666666666,0.32222222222222224],[0.04791666666666667,0.32407407407407407],[0.04479166666666667,0.32592592592592595],[0.042708333333333334,0.3277777777777778],[0.040625,0.3314814814814815],[0.0375,0.3333333333333333],[0.034375,0.3351851851851852],[0.03333333333333333,0.3351851851851852],[0.03333333333333333,0.337037037037037],[0.03229166666666667,0.337037037037037],[0.030208333333333334,0.3388888888888889],[0.030208333333333334,0.3388888888888889],[0.030208333333333334,0.3388888888888889],[0.030208333333333334,0.3388888888888889],[0.029166666666666667,0.3388888888888889],[0.029166666666666667,0.3388888888888889],[0.029166666666666667,0.3388888888888889],[0.029166666666666667,0.3388888888888889],[0.029166666666666667,0.3388888888888889],[0.029166666666666667,0.3388888888888889],[0.029166666666666667,0.3388888888888889],[0.029166666666666667,0.3388888888888889],[0.029166666666666667,0.3388888888888889],[0.029166666666666667,0.3388888888888889],[0.029166666666666667,0.3388888888888889],[0.029166666666666667,0.3388888888888889],[0.029166666666666667,0.3388888888888889],[0.029166666666666667,0.3388888888888889],[0.029166666666666667,0.3388888888888889],[0.029166666666666667,0.3388888888888889],[0.029166666666666667,0.3388888888888889],[0.029166666666666667,0.3388888888888889],[0.029166666666666667,0.3388888888888889],[0.029166666666666667,0.3388888888888889],[0.029166666666666667,0.3388888888888889],[0.028125,0.34074074074074073],[0.028125,0.34074074074074073],[0.028125,0.34074074074074073],[0.028125,0.34074074074074073],[0.028125,0.34074074074074073],[0.028125,0.34074074074074073],[0.028125,0.34074074074074073],[0.028125,0.34074074074074073],[0.028125,0.34074074074074073],[0.028125,0.34074074074074073],[0.028125,0.34074074074074073],[0.028125,0.34074074074074073],[0.028125,0.34074074074074073],[0.028125,0.34074074074074073],[0.028125,0.34074074074074073],[0.028125,0.34074074074074073],[0.028125,0.34074074074074073],[0.028125,0.34074074074074073],[0.028125,0.34074074074074073],[0.028125,0.34074074074074073],[0.028125,0.34074074074074073],[0.028125,0.34074074074074073],[0.028125,0.34074074074074073],[0.028125,0.34074074074074073],[0.028125,0.34074074074074073],[0.028125,0.34074074074074073],[0.028125,0.34074074074074073],[0.028125,0.34074074074074073],[0.028125,0.34074074074074073],[0.028125,0.34074074074074073],[0.028125,0.34074074074074073],[0.028125,0.34074074074074073],[0.028125,0.34074074074074073],[0.028125,0.34074074074074073],[0.028125,0.34074074074074073],[0.028125,0.31666666666666665],[0.028125,0.2722222222222222],[0.028125,0.2222222222222222],[0.028125,0.1685185185185185],[0.028125,0.11851851851851852],[0.027083333333333334,0.044444444444444446],[0.025,0],[0.019791666666666666,-0.03888888888888889],[0.01875,-0.06666666666666667],[0.016666666666666666,-0.08518518518518518],[0.016666666666666666,-0.10185185185185185],[0.015625,-0.11481481481481481],[0.015625,-0.11851851851851852],[0.015625,-0.11851851851851852],[0.015625,-0.11851851851851852]]","[[0.24718749999999995,0.11500000000000005],[0.24718749999999995,0.11500000000000005],[0.24552083333333338,0.12833333333333324],[0.24552083333333338,0.12833333333333324],[0.2535416666666668,0.12666666666666662],[0.2535416666666668,0.12666666666666662],[0.27583333333333326,0.13518518518518519],[0.27583333333333326,0.13518518518518519],[0.2953125,0.12240740740740745],[0.2953125,0.12240740740740745],[0.29874999999999996,0.10351851851851848],[0.29874999999999996,0.10351851851851848],[0.35906250000000006,0.08722222222222227],[0.35906250000000006,0.08722222222222227],[0.44031250000000005,0.04944444444444453],[0.44031250000000005,0.04944444444444453],[0.4517708333333334,0.06592592592592597],[0.4622916666666666,0.06092592592592588],[0.48406250000000006,0.055740740740740785],[0.5133333333333333,0.05277777777777778],[0.5133333333333333,0.05277777777777778],[0.54875,0.06185185185185181],[0.5308333333333333,0.04314814814814806],[0.5453125,0.049074074074074076],[0.5760416666666667,0.05740740740740741],[0.6158333333333333,0.04537037037037037],[0.6466666666666666,0.023333333333333376],[0.6636458333333333,-0.011666666666666582],[0.7129166666666668,-0.05722222222222218],[0.72375,-0.0868518518518518],[0.6909375,-0.08222222222222218],[0.6757291666666667,-0.06740740740740736],[0.676875,-0.03592592592592588],[0.6228125000000001,-0.023333333333333376],[0.6087500000000001,-0.01648148148148144],[0.6087500000000001,-0.01648148148148144],[0.5713541666666667,0.015555555555555513],[0.5419791666666666,0.03851851851851843],[0.459375,0.07537037037037045],[0.3767708333333334,0.11222222222222226],[0.31979166666666664,0.15500000000000008],[0.32781250000000006,0.1625925925925925],[0.3165625000000001,0.1646296296296296],[0.3165625000000001,0.1646296296296296],[0.30020833333333335,0.16203703703703703],[0.30020833333333335,0.16203703703703703],[0.29354166666666665,0.15759259259259265],[0.29354166666666665,0.15759259259259265],[0.2764583333333334,0.1737037037037036],[0.25510416666666674,0.18185185185185193],[0.19979166666666662,0.18648148148148155],[0.2029166666666666,0.1838888888888888],[0.2271874999999999,0.19574074074074083],[0.2708333333333333,0.20092592592592592],[0.22218749999999995,0.2051851851851851],[0.1857291666666666,0.19444444444444445],[0.16260416666666658,0.18629629629629635],[0.16677083333333323,0.19092592592592597],[0.14135416666666673,0.18074074074074079],[0.14135416666666673,0.18074074074074079],[0.11437499999999995,0.17388888888888884],[0.11437499999999995,0.17388888888888884],[0.15479166666666658,0.19129629629629621],[0.16989583333333325,0.20537037037037034],[0.13562500000000005,0.19166666666666668],[0.07416666666666671,0.1933333333333333],[0.10322916666666657,0.20425925925925917],[0.10197916666666676,0.2051851851851851],[0.12052083333333338,0.21296296296296297],[0.12052083333333338,0.21296296296296297],[0.13406250000000006,0.23703703703703705],[0.09895833333333333,0.22777777777777777],[0.0696875000000001,0.22314814814814815],[-0.014479166666666644,0.17388888888888884],[-0.07572916666666671,0.12462962962962955],[-0.06781250000000003,0.11351851851851844],[-0.06020833333333329,0.08777777777777773],[-0.05687500000000002,0.07666666666666662],[-0.05364583333333333,0.07481481481481478],[-0.07302083333333335,0.05],[-0.10239583333333328,0.004444444444444402],[-0.11260416666666669,-0.01629629629629621],[-0.09125000000000003,-0.012592592592592508],[-0.05645833333333338,0.024074074074074074],[-0.04822916666666662,0.04888888888888885],[-0.08093750000000005,0.04888888888888885],[-0.09697916666666669,0.07444444444444454],[-0.13854166666666667,0.052962962962963],[-0.1610416666666667,0.05129629629629638],[-0.19302083333333328,0.055000000000000084],[-0.24281250000000001,0.04796296296296292],[-0.23687499999999997,0.04685185185185177],[-0.23687499999999997,0.04685185185185177],[-0.2625,0.021296296296296296],[-0.29177083333333337,0.0007407407407406986],[-0.3078125,-0.021851851851851768],[-0.32385416666666667,-0.044444444444444446],[-0.36124999999999996,-0.08555555555555554],[-0.3857291666666666,-0.10240740740740743],[-0.37916666666666665,-0.09685185185185187],[-0.3532291666666667,-0.09185185185185189],[-0.34781249999999997,-0.09518518518518514],[-0.3686458333333333,-0.09592592592592594],[-0.37229166666666663,-0.08907407407407411],[-0.35968749999999994,-0.09111111111111109],[-0.3584375,-0.10240740740740743],[-0.3571875,-0.11370370370370367],[-0.35125000000000006,-0.13203703703703706],[-0.3307291666666667,-0.12314814814814815],[-0.3422916666666667,-0.14574074074074073],[-0.37052083333333335,-0.15055555555555558],[-0.36739583333333337,-0.13574074074074077],[-0.35489583333333335,-0.1264814814814815],[-0.35958333333333337,-0.12481481481481477],[-0.3651041666666667,-0.12259259259259257],[-0.39958333333333335,-0.09462962962962967],[-0.4340625000000001,-0.06666666666666667],[-0.4739583333333333,-0.04351851851851852],[-0.5284375,-0.04759259259259268],[-0.5773958333333333,-0.04259259259259259],[-0.6238541666666666,-0.04870370370370362],[-0.6647916666666667,-0.06796296296296295],[-0.6930208333333333,-0.06611111111111109],[-0.7394791666666667,-0.06277777777777774],[-0.7977083333333332,-0.05592592592592591],[-0.7928125,-0.05925925925925926],[-0.7928125,-0.05925925925925926],[-0.7884375,-0.062407407407407384],[-0.7752083333333334,-0.05555555555555555],[-0.7752083333333334,-0.05555555555555555],[-0.7809375000000001,-0.052962962962963],[-0.7809375000000001,-0.052962962962963],[-0.7933333333333333,-0.060370370370370414],[-0.7933333333333333,-0.060370370370370414],[-0.7833333333333333,-0.04759259259259268],[-0.7833333333333333,-0.04759259259259268],[-0.7115625,-0.0012962962962963806],[-0.6833333333333333,0.0003703703703704546],[-0.6414583333333332,0],[-0.6192708333333333,0.0022222222222223064],[-0.5594791666666666,-0.007037037037036953],[-0.49864583333333334,0.005555555555555556],[-0.4703125,0.014259259259259343],[-0.403125,0.008888888888888804],[-0.33479166666666665,0.004444444444444402],[-0.2889583333333333,-0.00592592592592601],[-0.30343749999999997,-0.03722222222222227],[-0.2955208333333334,-0.047037037037036995],[-0.2830208333333334,-0.056296296296296254],[-0.24479166666666666,-0.055185185185185205],[-0.25364583333333335,-0.034999999999999955],[-0.26458333333333334,-0.049629629629629544],[-0.24645833333333336,-0.06555555555555552],[-0.25875,-0.05907407407407403],[-0.2669791666666666,-0.04277777777777782],[-0.26802083333333326,-0.03611111111111111],[-0.26593749999999994,-0.04814814814814815],[-0.2647916666666667,-0.05259259259259255],[-0.26062500000000005,-0.052037037037037076],[-0.2625,-0.06462962962962959],[-0.290625,-0.07462962962962966],[-0.3171875,-0.07185185185185188],[-0.34125,-0.05],[-0.35479166666666667,-0.03222222222222218],[-0.32354166666666667,-0.0448148148148149],[-0.3117708333333333,-0.08388888888888892],[-0.29739583333333336,-0.0933333333333333],[-0.27718750000000003,-0.10444444444444441],[-0.26,-0.1205555555555556],[-0.24895833333333334,-0.15],[-0.20447916666666663,-0.18499999999999997],[-0.15656249999999997,-0.22092592592592594],[-0.11114583333333337,-0.2759259259259259],[-0.08020833333333334,-0.33111111111111113],[-0.11072916666666661,-0.35962962962962963],[-0.084375,-0.35833333333333334],[-0.07927083333333336,-0.3831481481481481],[-0.06708333333333331,-0.39944444444444444],[-0.04906250000000002,-0.41870370370370374],[-0.024895833333333308,-0.42462962962962963],[-0.02520833333333338,-0.427962962962963],[-0.028958333333333287,-0.43037037037037035],[-0.013645833333333357,-0.44296296296296295],[0.0068750000000000235,-0.452962962962963],[0.01906249999999995,-0.47388888888888886],[-0.0032291666666666905,-0.49296296296296294],[0.0034374999999999527,-0.4848148148148148],[-0.017916666666666713,-0.43259259259259264],[-0.04510416666666662,-0.3774074074074074],[-0.06458333333333334,-0.3164814814814814],[-0.06677083333333336,-0.2551851851851852],[-0.036145833333333384,-0.2462962962962963],[-0.024583333333333356,-0.22722222222222221],[-0.03833333333333329,-0.16500000000000004],[-0.03114583333333331,-0.09796296296296292],[0.0032291666666666905,-0.09000000000000004],[0.024166666666666715,-0.0940740740740741],[0.0546875,-0.09259259259259259],[0.05333333333333338,-0.11444444444444446],[0.06656249999999998,-0.15537037037037033],[0.07979166666666657,-0.1962962962962963],[0.04489583333333336,-0.17166666666666663],[0.010000000000000024,-0.147037037037037],[0.009687499999999953,-0.16796296296296295],[0.020937500000000022,-0.19685185185185186],[-0.005520833333333286,-0.17018518518518513],[-0.027395833333333286,-0.1624074074074074],[-0.04375,-0.2111111111111111],[-0.03427083333333331,-0.20981481481481484],[-0.04708333333333338,-0.19518518518518516],[-0.06749999999999995,-0.19129629629629633],[-0.07260416666666672,-0.20055555555555557],[-0.07447916666666667,-0.21092592592592588],[-0.07312500000000005,-0.19574074074074072],[-0.09510416666666661,-0.17444444444444443],[-0.11156250000000002,-0.17740740740740743],[-0.1326041666666666,-0.16148148148148145],[-0.14677083333333332,-0.15629629629629627],[-0.15489583333333337,-0.17777777777777778],[-0.19166666666666668,-0.20129629629629628],[-0.22083333333333333,-0.2140740740740741],[-0.26375000000000004,-0.21092592592592588],[-0.3098958333333333,-0.20666666666666672],[-0.3251041666666667,-0.24351851851851852],[-0.3285416666666666,-0.2785185185185185],[-0.2791666666666667,-0.31611111111111106],[-0.2297916666666667,-0.3537037037037037],[-0.20895833333333336,-0.3603703703703704],[-0.20041666666666663,-0.36814814814814817],[-0.1632291666666667,-0.3738888888888888],[-0.10770833333333331,-0.37759259259259254],[-0.03843749999999998,-0.3972222222222222],[0.021875,-0.4027777777777778],[0.04802083333333336,-0.39277777777777784],[0.07593750000000009,-0.3787037037037037],[0.053125,-0.3394444444444445],[0.06135416666666664,-0.31351851851851853],[0.07718749999999991,-0.3309259259259259],[0.1053124999999999,-0.3472222222222222],[0.13166666666666677,-0.36074074074074075],[0.1396874999999999,-0.3762962962962963],[0.17291666666666666,-0.37962962962962965],[0.17291666666666666,-0.37962962962962965],[0.22177083333333342,-0.395],[0.22177083333333342,-0.395],[0.22312500000000005,-0.41888888888888887],[0.22312500000000005,-0.41888888888888887],[0.23166666666666677,-0.43388888888888894],[0.23166666666666677,-0.43388888888888894],[0.2556250000000001,-0.42666666666666664],[0.24927083333333327,-0.4064814814814815],[0.24927083333333327,-0.4064814814814815],[0.2263541666666666,-0.36944444444444446],[0.2263541666666666,-0.36944444444444446],[0.15072916666666672,-0.3],[0.09135416666666671,-0.24592592592592594],[0.09135416666666671,-0.24592592592592594],[0.07989583333333337,-0.227962962962963],[0.024374999999999977,-0.2183333333333333],[-0.017708333333333333,-0.22462962962962965],[-0.024791666666666618,-0.20166666666666663],[-0.04083333333333338,-0.19166666666666668],[-0.027708333333333356,-0.22962962962962963],[-0.03291666666666669,-0.2542592592592593],[-0.017083333333333308,-0.28277777777777774],[0.059062500000000046,-0.34685185185185186],[0.10822916666666677,-0.3853703703703704],[0.11760416666666676,-0.37222222222222223],[0.1658333333333334,-0.3940740740740741],[0.18791666666666676,-0.4014814814814815],[0.23010416666666675,-0.4196296296296297],[0.26677083333333323,-0.4383333333333333],[0.24656250000000005,-0.39092592592592595],[0.2439583333333334,-0.35648148148148145],[0.24572916666666675,-0.3212962962962963],[0.24406249999999996,-0.28574074074074074],[0.2548958333333334,-0.2631481481481482],[0.25979166666666675,-0.28777777777777774],[0.24468750000000009,-0.28129629629629627],[0.24479166666666666,-0.2588888888888889],[0.20260416666666667,-0.25555555555555554],[0.19093749999999995,-0.22777777777777777],[0.17843749999999994,-0.23555555555555555],[0.16666666666666666,-0.267037037037037],[0.1421875,-0.2942592592592592],[0.11354166666666667,-0.32037037037037036],[0.11354166666666667,-0.32037037037037036],[0.1046875,-0.3453703703703704],[0.08812499999999991,-0.3394444444444445],[0.07156250000000004,-0.33351851851851855],[0.042812500000000024,-0.3387037037037037],[0.04656250000000005,-0.3272222222222222],[0.018020833333333285,-0.3448148148148148],[0.0026041666666666665,-0.3672222222222222],[-0.0018749999999999527,-0.37518518518518523],[-0.0018749999999999527,-0.37518518518518523],[0.011562500000000024,-0.377962962962963],[0.042708333333333334,-0.3705555555555556],[0.04906250000000002,-0.3531481481481481],[0.024062500000000025,-0.3148148148148148],[-0.0009374999999999763,-0.2764814814814815],[-0.01572916666666669,-0.26888888888888884],[-0.009791666666666643,-0.26296296296296295],[-0.010625000000000048,-0.25629629629629624],[-0.0006250000000000236,-0.25999999999999995],[0.0203125,-0.26740740740740737],[0.02041666666666669,-0.2518518518518518],[0.02041666666666669,-0.2518518518518518],[0.010520833333333358,-0.2490740740740741],[0.005729166666666666,-0.28111111111111114],[0.024479166666666666,-0.3292592592592593],[0.04854166666666669,-0.3442592592592592],[0.06354166666666666,-0.36666666666666664],[0.0821875000000001,-0.40018518518518525],[0.1252083333333334,-0.40055555555555555],[0.14510416666666662,-0.40111111111111114],[0.1506249999999999,-0.3990740740740741],[0.17697916666666677,-0.42000000000000004],[0.22020833333333342,-0.4477777777777778],[0.2594791666666666,-0.45092592592592595],[0.30499999999999994,-0.4324074074074074],[0.32062499999999994,-0.45037037037037037],[0.3381249999999999,-0.43555555555555553],[0.28718750000000004,-0.38481481481481483],[0.2259375000000001,-0.36277777777777775],[0.18177083333333333,-0.35907407407407405],[0.12937500000000005,-0.34500000000000003],[0.08135416666666657,-0.3244444444444444],[0.03208333333333328,-0.28944444444444445],[-0.029270833333333357,-0.24888888888888885],[-0.0875,-0.2235185185185185],[-0.08645833333333333,-0.21370370370370367],[-0.08645833333333333,-0.21370370370370367],[-0.09802083333333336,-0.207962962962963],[-0.09802083333333336,-0.207962962962963],[-0.065625,-0.2198148148148148],[-0.06739583333333338,-0.21870370370370373],[-0.07395833333333333,-0.18870370370370365],[-0.06885416666666669,-0.18907407407407412],[-0.06812499999999998,-0.19592592592592595],[-0.06812499999999998,-0.19592592592592595],[-0.07124999999999998,-0.23129629629629625],[-0.04541666666666669,-0.2692592592592592],[-0.015625,-0.3177777777777778],[-0.025416666666666643,-0.3411111111111111],[-0.022604166666666713,-0.3603703703703704],[-0.017499999999999953,-0.39277777777777784],[0.012083333333333357,-0.42240740740740745],[0.012083333333333357,-0.42240740740740745],[0.041666666666666664,-0.45203703703703707],[0.08937499999999995,-0.4222222222222222],[0.14812500000000003,-0.46722222222222226],[0.14812500000000003,-0.46722222222222226],[0.18739583333333343,-0.48703703703703705],[0.18739583333333343,-0.48703703703703705],[0.17999999999999997,-0.4696296296296297],[0.17999999999999997,-0.4696296296296297],[0.18083333333333323,-0.45481481481481484],[0.18083333333333323,-0.45481481481481484],[0.17895833333333327,-0.46277777777777773],[0.17395833333333333,-0.46648148148148144],[0.15666666666666676,-0.4762962962962963],[0.15666666666666676,-0.4762962962962963],[0.20010416666666658,-0.4892592592592592],[0.20010416666666658,-0.4892592592592592],[0.2430208333333333,-0.5103703703703704],[0.2430208333333333,-0.5103703703703704],[0.23583333333333342,-0.5433333333333333],[0.23583333333333342,-0.5433333333333333],[0.22125000000000009,-0.505],[0.22125000000000009,-0.505],[0.20666666666666675,-0.4666666666666667],[0.20666666666666675,-0.4666666666666667],[0.21062500000000003,-0.4751851851851852],[0.19031250000000005,-0.4883333333333333],[0.19458333333333327,-0.47537037037037033],[0.14791666666666667,-0.4577777777777778],[0.14260416666666675,-0.45018518518518524],[0.07729166666666672,-0.45037037037037037],[0.0125,-0.44240740740740736],[-0.019479166666666714,-0.4644444444444445],[-0.04468749999999998,-0.4577777777777778],[-0.07062499999999995,-0.45499999999999996],[-0.08145833333333338,-0.44648148148148153],[-0.07885416666666671,-0.43444444444444447],[-0.09447916666666671,-0.41870370370370374],[-0.049479166666666664,-0.44537037037037036],[-0.057395833333333354,-0.4346296296296296],[0.006458333333333381,-0.46407407407407414],[0.0703125,-0.4935185185185185],[0.07041666666666657,-0.49000000000000005],[0.07510416666666657,-0.5205555555555555],[0.10895833333333324,-0.5503703703703704],[0.1544791666666666,-0.5831481481481481],[0.20260416666666667,-0.6122222222222222],[0.21624999999999991,-0.6453703703703704],[0.22333333333333344,-0.645],[0.2540625000000001,-0.6722222222222223],[0.21875,-0.6572222222222222],[0.16770833333333332,-0.6342592592592593],[0.16791666666666671,-0.6314814814814815],[0.17135416666666667,-0.6166666666666667],[0.14635416666666667,-0.5987037037037037],[0.09729166666666676,-0.5677777777777778],[0.03687499999999998,-0.5422222222222223],[0.012187500000000047,-0.5259259259259259],[0.016354166666666715,-0.5303703703703704],[0.003854166666666714,-0.5270370370370371],[0.011562500000000024,-0.5405555555555556],[0.035000000000000024,-0.562037037037037],[0.06114583333333338,-0.5859259259259259],[0.06729166666666657,-0.5888888888888889],[0.06645833333333329,-0.5957407407407407],[0.07802083333333343,-0.6125925925925926],[0.09666666666666662,-0.607037037037037],[0.1118750000000001,-0.609074074074074],[0.09500000000000004,-0.5953703703703703],[0.09854166666666657,-0.5651851851851851],[0.08520833333333329,-0.525],[0.08624999999999995,-0.4751851851851852],[0.08458333333333339,-0.42296296296296293],[0.08677083333333328,-0.402962962962963],[0.09583333333333334,-0.3792592592592593],[0.08406250000000005,-0.36629629629629634],[0.0765625,-0.37037037037037035],[0.05375000000000003,-0.3557407407407408],[0.034166666666666616,-0.33611111111111114],[0.033958333333333354,-0.32833333333333337],[0.02312500000000005,-0.3168518518518519],[-0.0020833333333333333,-0.31500000000000006],[-0.028750000000000022,-0.2831481481481481],[-0.057500000000000044,-0.24314814814814817],[-0.057500000000000044,-0.24314814814814817],[-0.09479166666666666,-0.20092592592592592],[-0.09291666666666672,-0.16740740740740737],[-0.09104166666666665,-0.13388888888888892],[-0.06916666666666664,-0.1]]","[[0.24718749999999995,0.11500000000000005,0.0002999999970256795],[0.24718749999999995,0.11500000000000005,0.03870000000299001],[0.24552083333333338,0.12833333333333324,0.05159999999403908],[0.24552083333333338,0.12833333333333324,0.06550000000000011],[0.2535416666666668,0.12666666666666662,0.08220000000298455],[0.2535416666666668,0.12666666666666662,0.0988999999910618],[0.27583333333333326,0.13518518518518519,0.11550000000001148],[0.27583333333333326,0.13518518518518519,0.13209999999403976],[0.2953125,0.12240740740740745,0.1487999999970242],[0.2953125,0.12240740740740745,0.1653999999910667],[0.29874999999999996,0.10351851851851848,0.18229999999702784],[0.29874999999999996,0.10351851851851848,0.19879999999702136],[0.35906250000000006,0.08722222222222227,0.21559999999404056],[0.35906250000000006,0.08722222222222227,0.2320999999940483],[0.44031250000000005,0.04944444444444453,0.24879999999703273],[0.44031250000000005,0.04944444444444453,0.26550000000000296],[0.4517708333333334,0.06592592592592597,0.2822000000029874],[0.4622916666666666,0.06092592592592588,0.3007999999970252],[0.48406250000000006,0.055740740740740785,0.31570000000299103],[0.5133333333333333,0.05277777777777778,0.33759999999404045],[0.5133333333333333,0.05277777777777778,0.35650000000001114],[0.54875,0.06185185185185181,0.3710999999940441],[0.5308333333333333,0.04314814814814806,0.38629999999702136],[0.5453125,0.049074074074074076,0.4003999999910661],[0.5760416666666667,0.05740740740740741,0.4153999999910667],[0.6158333333333333,0.04537037037037037,0.43209999999405113],[0.6466666666666666,0.023333333333333376,0.44879999999702136],[0.6636458333333333,-0.011666666666666582,0.4685000000000059],[0.7129166666666668,-0.05722222222222218,0.48220000000299024],[0.72375,-0.0868518518518518,0.5007999999970281],[0.6909375,-0.08222222222222218,0.5155999999940519],[0.6757291666666667,-0.06740740740740736,0.5322000000029874],[0.676875,-0.03592592592592588,0.5490000000000066],[0.6228125000000001,-0.023333333333333376,0.5682999999970235],[0.6087500000000001,-0.01648148148148144,0.5823999999910683],[0.6087500000000001,-0.01648148148148144,0.5990000000000038],[0.5713541666666667,0.015555555555555513,0.6155999999940462],[0.5419791666666666,0.03851851851851843,0.6342000000029913],[0.459375,0.07537037037037045,0.6490999999940499],[0.3767708333333334,0.11222222222222226,0.6657000000029853],[0.31979166666666664,0.15500000000000008,0.6845999999940489],[0.32781250000000006,0.1625925925925925,0.6992999999970237],[0.3165625000000001,0.1646296296296296,0.7155999999940406],[0.3165625000000001,0.1646296296296296,0.732299999997025],[0.30020833333333335,0.16203703703703703,0.75239999999107],[0.30020833333333335,0.16203703703703703,0.7655999999940519],[0.29354166666666665,0.15759259259259265,0.7825000000000131],[0.29354166666666665,0.15759259259259265,0.8010999999940509],[0.2764583333333334,0.1737037037037036,0.815700000002991],[0.25510416666666674,0.18185185185185193,0.8322999999970193],[0.19979166666666662,0.18648148148148155,0.85120000000299],[0.2029166666666666,0.1838888888888888,0.8655999999940462],[0.2271874999999999,0.19574074074074083,0.8825000000000074],[0.2708333333333333,0.20092592592592592,0.9005000000000081],[0.22218749999999995,0.2051851851851851,0.9155999999940434],[0.1857291666666666,0.19444444444444445,0.9323999999910626],[0.16260416666666658,0.18629629629629635,0.9512999999970191],[0.16677083333333323,0.19092592592592597,0.9657999999970315],[0.14135416666666673,0.18074074074074079,0.9827000000029926],[0.14135416666666673,0.18074074074074079,1.0007000000029933],[0.11437499999999995,0.17388888888888884,1.015599999994052],[0.11437499999999995,0.17388888888888884,1.0322000000029874],[0.15479166666666658,0.19129629629629621,1.0490000000000066],[0.16989583333333325,0.20537037037037034,1.067299999997033],[0.13562500000000005,0.19166666666666668,1.0823999999910683],[0.07416666666666671,0.1933333333333333,1.100399999991069],[0.10322916666666657,0.20425925925925917,1.1177999999970325],[0.10197916666666676,0.2051851851851851,1.1323999999910654],[0.12052083333333338,0.21296296296296297,1.148899999991059],[0.12052083333333338,0.21296296296296297,1.1655000000000086],[0.13406250000000006,0.23703703703703705,1.1852000000029932],[0.09895833333333333,0.22777777777777777,1.200799999997031],[0.0696875000000001,0.22314814814814815,1.2155999999940406],[-0.014479166666666644,0.17388888888888884,1.2322000000029902],[-0.07572916666666671,0.12462962962962955,1.2512999999970305],[-0.06781250000000003,0.11351851851851844,1.265500000000003],[-0.06020833333333329,0.08777777777777773,1.2822999999970222],[-0.05687500000000002,0.07666666666666662,1.3007000000029905],[-0.05364583333333333,0.07481481481481478,1.315599999994049],[-0.07302083333333335,0.05,1.3322999999970193],[-0.10239583333333328,0.004444444444444402,1.348799999997027],[-0.11260416666666669,-0.01629629629629621,1.3677999999970325],[-0.09125000000000003,-0.012592592592592508,1.3823999999910654],[-0.05645833333333338,0.024074074074074074,1.398899999991059],[-0.04822916666666662,0.04888888888888885,1.4153999999910667],[-0.08093750000000005,0.04888888888888885,1.432200000002993],[-0.09697916666666669,0.07444444444444454,1.4505000000000052],[-0.13854166666666667,0.052962962962963,1.4677999999970268],[-0.1610416666666667,0.05129629629629638,1.4822000000029902],[-0.19302083333333328,0.055000000000000084,1.4987999999970327],[-0.24281250000000001,0.04796296296296292,1.5158999999910634],[-0.23687499999999997,0.04685185185185177,1.5335000000000036],[-0.23687499999999997,0.04685185185185177,1.5487999999970299],[-0.2625,0.021296296296296296,1.5655000000000001],[-0.29177083333333337,0.0007407407407406986,1.5820999999940426],[-0.3078125,-0.021851851851851768,1.598799999997027],[-0.32385416666666667,-0.044444444444444446,1.6155999999940462],[-0.36124999999999996,-0.08555555555555554,1.6320999999940398],[-0.3857291666666666,-0.10240740740740743,1.6487999999970242],[-0.37916666666666665,-0.09685185185185187,1.6653999999910667],[-0.3532291666666667,-0.09185185185185189,1.682200000002993],[-0.34781249999999997,-0.09518518518518514,1.6987999999970214],[-0.3686458333333333,-0.09592592592592594,1.7185999999940407],[-0.37229166666666663,-0.08907407407407411,1.7320999999940483],[-0.35968749999999994,-0.09111111111111109,1.7487999999970327],[-0.3584375,-0.10240740740740743,1.765500000000003],[-0.3571875,-0.11370370370370367,1.7822000000029874],[-0.35125000000000006,-0.13203703703703706,1.7987999999970299],[-0.3307291666666667,-0.12314814814814815,1.8155000000000001],[-0.3422916666666667,-0.14574074074074073,1.832599999994045],[-0.37052083333333335,-0.15055555555555558,1.848799999997027],[-0.36739583333333337,-0.13574074074074077,1.8653999999910695],[-0.35489583333333335,-0.1264814814814815,1.883599999994047],[-0.35958333333333337,-0.12481481481481477,1.8992999999970266],[-0.3651041666666667,-0.12259259259259257,1.9155000000000086],[-0.39958333333333335,-0.09462962962962967,1.9323999999910626],[-0.4340625000000001,-0.06666666666666667,1.9487000000029866],[-0.4739583333333333,-0.04351851851851852,1.9655999999940406],[-0.5284375,-0.04759259259259268,1.9827999999970274],[-0.5773958333333333,-0.04259259259259259,2.000899999991063],[-0.6238541666666666,-0.04870370370370362,2.015399999991061],[-0.6647916666666667,-0.06796296296296295,2.0320999999940454],[-0.6930208333333333,-0.06611111111111109,2.04879999999703],[-0.7394791666666667,-0.06277777777777774,2.065599999994049],[-0.7977083333333332,-0.05592592592592591,2.0820999999940426],[-0.7928125,-0.05925925925925926,2.102799999997032],[-0.7928125,-0.05925925925925926,2.1153999999910695],[-0.7884375,-0.062407407407407384,2.1322999999970307],[-0.7752083333333334,-0.05555555555555555,2.152200000002992],[-0.7752083333333334,-0.05555555555555555,2.1655000000000086],[-0.7809375000000001,-0.052962962962963,2.182200000002993],[-0.7809375000000001,-0.052962962962963,2.1987999999970214],[-0.7933333333333333,-0.060370370370370414,2.215500000000006],[-0.7933333333333333,-0.060370370370370414,2.2320999999940483],[-0.7833333333333333,-0.04759259259259268,2.2487999999970327],[-0.7833333333333333,-0.04759259259259268,2.265500000000003],[-0.7115625,-0.0012962962962963806,2.282299999997022],[-0.6833333333333333,0.0003703703703704546,2.301599999994039],[-0.6414583333333332,0,2.3153999999910724],[-0.6192708333333333,0.0022222222222223064,2.3320999999940426],[-0.5594791666666666,-0.007037037037036953,2.3500000000000085],[-0.49864583333333334,0.005555555555555556,2.3653999999910695],[-0.4703125,0.014259259259259343,2.3820999999940398],[-0.403125,0.008888888888888804,2.40209999999405],[-0.33479166666666665,0.004444444444444402,2.4157000000029853],[-0.2889583333333333,-0.00592592592592601,2.432099999994051],[-0.30343749999999997,-0.03722222222222227,2.4487999999970214],[-0.2955208333333334,-0.047037037037036995,2.4690000000000083],[-0.2830208333333334,-0.056296296296296254,2.4849999999999994],[-0.24479166666666666,-0.055185185185185205,2.5022000000029863],[-0.25364583333333335,-0.034999999999999955,2.5165999999940425],[-0.26458333333333334,-0.049629629629629544,2.5320999999940454],[-0.24645833333333336,-0.06555555555555552,2.548700000002981],[-0.25875,-0.05907407407407403,2.5655],[-0.2669791666666666,-0.04277777777777782,2.5822000000029846],[-0.26802083333333326,-0.03611111111111111,2.598799999997027],[-0.26593749999999994,-0.04814814814814815,2.6155000000000115],[-0.2647916666666667,-0.05259259259259255,2.6320999999940398],[-0.26062500000000005,-0.052037037037037076,2.648899999991059],[-0.2625,-0.06462962962962959,2.6655000000000086],[-0.290625,-0.07462962962962966,2.682099999994051],[-0.3171875,-0.07185185185185188,2.6987999999970214],[-0.34125,-0.05,2.715500000000006],[-0.35479166666666667,-0.03222222222222218,2.7320999999940483],[-0.32354166666666667,-0.0448148148148149,2.7487999999970327],[-0.3117708333333333,-0.08388888888888892,2.7658999999910634],[-0.29739583333333336,-0.0933333333333333,2.7830000000000013],[-0.27718750000000003,-0.10444444444444441,2.803299999997023],[-0.26,-0.1205555555555556,2.8173999999910677],[-0.24895833333333334,-0.15,2.8320999999940426],[-0.20447916666666663,-0.18499999999999997,2.848799999997027],[-0.15656249999999997,-0.22092592592592594,2.8655000000000115],[-0.11114583333333337,-0.2759259259259259,2.8820999999940398],[-0.08020833333333334,-0.33111111111111113,2.8987000000029894],[-0.11072916666666661,-0.35962962962962963,2.9153999999910667],[-0.084375,-0.35833333333333334,2.932099999994051],[-0.07927083333333336,-0.3831481481481481,2.9487999999970214],[-0.06708333333333331,-0.39944444444444444,2.965500000000006],[-0.04906250000000002,-0.41870370370370374,2.9820999999940483],[-0.024895833333333308,-0.42462962962962963,2.9987000000029838],[-0.02520833333333338,-0.427962962962963,3.015500000000003],[-0.028958333333333287,-0.43037037037037035,3.0320999999940454],[-0.013645833333333357,-0.44296296296296295,3.04879999999703],[0.0068750000000000235,-0.452962962962963,3.0653999999910724],[0.01906249999999995,-0.47388888888888886,3.083399999991059],[-0.0032291666666666905,-0.49296296296296294,3.1000000000000085],[0.0034374999999999527,-0.4848148148148148,3.1182999999970207],[-0.017916666666666713,-0.43259259259259264,3.133500000000012],[-0.04510416666666662,-0.3774074074074074,3.148899999991059],[-0.06458333333333334,-0.3164814814814814,3.1655000000000086],[-0.06677083333333336,-0.2551851851851852,3.1857000000029814],[-0.036145833333333384,-0.2462962962962963,3.2023999999910586],[-0.024583333333333356,-0.22722222222222221,3.2170999999940477],[-0.03833333333333329,-0.16500000000000004,3.2322000000029902],[-0.03114583333333331,-0.09796296296296292,3.2510000000000048],[0.0032291666666666905,-0.09000000000000004,3.265500000000003],[0.024166666666666715,-0.0940740740740741,3.2830999999940502],[0.0546875,-0.09259259259259259,3.302399999991067],[0.05333333333333338,-0.11444444444444446,3.3170000000000073],[0.06656249999999998,-0.15537037037037033,3.3322000000029846],[0.07979166666666657,-0.1962962962962963,3.351099999994048],[0.04489583333333336,-0.17166666666666663,3.3667999999970277],[0.010000000000000024,-0.147037037037037,3.3823999999910654],[0.009687499999999953,-0.16796296296296295,3.402200000002992],[0.020937500000000022,-0.19685185185185186,3.4162000000029877],[-0.005520833333333286,-0.17018518518518513,3.432099999994051],[-0.027395833333333286,-0.1624074074074074,3.4487999999970214],[-0.04375,-0.2111111111111111,3.465399999991064],[-0.03427083333333331,-0.20981481481481484,3.4820999999940483],[-0.04708333333333338,-0.19518518518518516,3.4987999999970327],[-0.06749999999999995,-0.19129629629629633,3.515399999991061],[-0.07260416666666672,-0.20055555555555557,3.5343999999910665],[-0.07447916666666667,-0.21092592592592588,3.548700000002981],[-0.07312500000000005,-0.19574074074074072,3.5653999999910724],[-0.09510416666666661,-0.17444444444444443,3.5820999999940426],[-0.11156250000000002,-0.17740740740740743,3.6000000000000085],[-0.1326041666666666,-0.16148148148148145,3.6153999999910695],[-0.14677083333333332,-0.15629629629629627,3.6320999999940398],[-0.15489583333333337,-0.17777777777777778,3.648799999997024],[-0.19166666666666668,-0.20129629629629628,3.6653999999910667],[-0.22083333333333333,-0.2140740740740741,3.6835000000000093],[-0.26375000000000004,-0.21092592592592588,3.699899999991061],[-0.3098958333333333,-0.20666666666666672,3.7178999999910616],[-0.3251041666666667,-0.24351851851851852,3.7322000000029902],[-0.3285416666666666,-0.2785185185185185,3.7498999999910723],[-0.2791666666666667,-0.31611111111111106,3.765399999991061],[-0.2297916666666667,-0.3537037037037037,3.7820999999940454],[-0.20895833333333336,-0.3603703703703704,3.801000000000002],[-0.20041666666666663,-0.36814814814814817,3.8153999999910724],[-0.1632291666666667,-0.3738888888888888,3.8320999999940426],[-0.10770833333333331,-0.37759259259259254,3.848799999997027],[-0.03843749999999998,-0.3972222222222222,3.8655000000000115],[0.021875,-0.4027777777777778,3.8820999999940398],[0.04802083333333336,-0.39277777777777784,3.898799999997024],[0.07593750000000009,-0.3787037037037037,3.9153999999910667],[0.053125,-0.3394444444444445,3.932099999994051],[0.06135416666666664,-0.31351851851851853,3.9487999999970214],[0.07718749999999991,-0.3309259259259259,3.9665999999940453],[0.1053124999999999,-0.3472222222222222,3.984000000000009],[0.13166666666666677,-0.36074074074074075,4.0010999999940395],[0.1396874999999999,-0.3762962962962963,4.015399999991061],[0.17291666666666666,-0.37962962962962965,4.044299999997023],[0.17291666666666666,-0.37962962962962965,4.066899999991065],[0.22177083333333342,-0.395,4.08250000000001],[0.22177083333333342,-0.395,4.098799999997027],[0.22312500000000005,-0.41888888888888887,4.1153999999910695],[0.22312500000000005,-0.41888888888888887,4.13209999999404],[0.23166666666666677,-0.43388888888888894,4.148700000002989],[0.23166666666666677,-0.43388888888888894,4.165399999991067],[0.2556250000000001,-0.42666666666666664,4.182099999994051],[0.24927083333333327,-0.4064814814814815,4.203000000000003],[0.24927083333333327,-0.4064814814814815,4.215399999991064],[0.2263541666666666,-0.36944444444444446,4.231999999999999],[0.2263541666666666,-0.36944444444444446,4.248799999997033],[0.15072916666666672,-0.3,4.265500000000003],[0.09135416666666671,-0.24592592592592594,4.286500000000004],[0.09135416666666671,-0.24592592592592594,4.298700000002981],[0.07989583333333337,-0.227962962962963,4.315399999991072],[0.024374999999999977,-0.2183333333333333,4.332099999994043],[-0.017708333333333333,-0.22462962962962965,4.348799999997027],[-0.024791666666666618,-0.20166666666666663,4.365700000002988],[-0.04083333333333338,-0.19166666666666668,4.38209999999404],[-0.027708333333333356,-0.22962962962962963,4.398899999991059],[-0.03291666666666669,-0.2542592592592593,4.415399999991067],[-0.017083333333333308,-0.28277777777777774,4.432099999994051],[0.059062500000000046,-0.34685185185185186,4.448799999997021],[0.10822916666666677,-0.3853703703703704,4.465399999991064],[0.11760416666666676,-0.37222222222222223,4.482500000000002],[0.1658333333333334,-0.3940740740740741,4.498799999997033],[0.18791666666666676,-0.4014814814814815,4.515399999991061],[0.23010416666666675,-0.4196296296296297,4.5320999999940454],[0.26677083333333323,-0.4383333333333333,4.548700000002981],[0.24656250000000005,-0.39092592592592595,4.565399999991072],[0.2439583333333334,-0.35648148148148145,4.582099999994043],[0.24572916666666675,-0.3212962962962963,4.598799999997027],[0.24406249999999996,-0.28574074074074074,4.6153999999910695],[0.2548958333333334,-0.2631481481481482,4.63209999999404],[0.25979166666666675,-0.28777777777777774,4.648899999991059],[0.24468750000000009,-0.28129629629629627,4.665399999991067],[0.24479166666666666,-0.2588888888888889,4.684700000002991],[0.20260416666666667,-0.25555555555555554,4.6993999999910585],[0.19093749999999995,-0.22777777777777777,4.715500000000006],[0.17843749999999994,-0.23555555555555555,4.734700000002988],[0.16666666666666666,-0.267037037037037,4.7488999999910675],[0.1421875,-0.2942592592592592,4.765500000000003],[0.11354166666666667,-0.32037037037037036,4.788200000002988],[0.11354166666666667,-0.32037037037037036,4.798899999991065],[0.1046875,-0.3453703703703704,4.815599999994049],[0.08812499999999991,-0.3394444444444445,4.8322000000029846],[0.07156250000000004,-0.33351851851851855,4.851299999997025],[0.042812500000000024,-0.3387037037037037,4.8655000000000115],[0.04656250000000005,-0.3272222222222222,4.882299999997031],[0.018020833333333285,-0.3448148148148148,4.898899999991059],[0.0026041666666666665,-0.3672222222222222,4.917599999994039],[-0.0018749999999999527,-0.37518518518518523,4.932399999991063],[-0.0018749999999999527,-0.37518518518518523,4.94889999999107],[0.011562500000000024,-0.377962962962963,4.968599999994041],[0.042708333333333334,-0.3705555555555556,4.982899999991062],[0.04906250000000002,-0.3531481481481481,4.9988999999910675],[0.024062500000000025,-0.3148148148148148,5.015599999994052],[-0.0009374999999999763,-0.2764814814814815,5.034700000002985],[-0.01572916666666669,-0.26888888888888884,5.04879999999703],[-0.009791666666666643,-0.26296296296296295,5.0655],[-0.010625000000000048,-0.25629629629629624,5.084799999997031],[-0.0006250000000000236,-0.25999999999999995,5.099000000000004],[0.0203125,-0.26740740740740737,5.1155000000000115],[0.02041666666666669,-0.2518518518518518,5.134500000000003],[0.02041666666666669,-0.2518518518518518,5.148899999991059],[0.010520833333333358,-0.2490740740740741,5.165500000000009],[0.005729166666666666,-0.28111111111111114,5.182099999994051],[0.024479166666666666,-0.3292592592592593,5.200700000002982],[0.04854166666666669,-0.3442592592592592,5.215500000000006],[0.06354166666666666,-0.36666666666666664,5.232299999997025],[0.0821875000000001,-0.40018518518518525,5.2488999999910675],[0.1252083333333334,-0.40055555555555555,5.267399999991071],[0.14510416666666662,-0.40111111111111114,5.282200000002987],[0.1506249999999999,-0.3990740740740741,5.29879999999703],[0.17697916666666677,-0.42000000000000004,5.317700000002986],[0.22020833333333342,-0.4477777777777778,5.3322000000029846],[0.2594791666666666,-0.45092592592592595,5.348899999991062],[0.30499999999999994,-0.4324074074074074,5.367899999991067],[0.32062499999999994,-0.45037037037037037,5.382399999991065],[0.3381249999999999,-0.43555555555555553,5.400399999991066],[0.28718750000000004,-0.38481481481481483,5.415599999994043],[0.2259375000000001,-0.36277777777777775,5.43389999999107],[0.18177083333333333,-0.35907407407407405,5.44889999999107],[0.12937500000000005,-0.34500000000000003,5.465500000000006],[0.08135416666666657,-0.3244444444444444,5.486000000000004],[0.03208333333333328,-0.28944444444444445,5.500299999997026],[-0.029270833333333357,-0.24888888888888885,5.515500000000003],[-0.0875,-0.2235185185185185,5.534099999994041],[-0.08645833333333333,-0.21370370370370367,5.54879999999703],[-0.08645833333333333,-0.21370370370370367,5.565599999994049],[-0.09802083333333336,-0.207962962962963,5.587799999997031],[-0.09802083333333336,-0.207962962962963,5.599099999994053],[-0.065625,-0.2198148148148148,5.615599999994046],[-0.06739583333333338,-0.21870370370370373,5.632200000002982],[-0.07395833333333333,-0.18870370370370365,5.651299999997022],[-0.06885416666666669,-0.18907407407407412,5.665500000000009],[-0.06812499999999998,-0.19592592592592595,5.682299999997028],[-0.06812499999999998,-0.19592592592592595,5.700799999997031],[-0.07124999999999998,-0.23129629629629625,5.715599999994041],[-0.04541666666666669,-0.2692592592592592,5.73220000000299],[-0.015625,-0.3177777777777778,5.752299999997021],[-0.025416666666666643,-0.3411111111111111,5.766700000002984],[-0.022604166666666713,-0.3603703703703704,5.782299999997022],[-0.017499999999999953,-0.39277777777777784,5.801700000002981],[0.012083333333333357,-0.42240740740740745,5.8155],[0.012083333333333357,-0.42240740740740745,5.8322000000029846],[0.041666666666666664,-0.45203703703703707,5.848799999997027],[0.08937499999999995,-0.4222222222222222,5.868500000000012],[0.14812500000000003,-0.46722222222222226,5.882899999991068],[0.14812500000000003,-0.46722222222222226,5.898799999997024],[0.18739583333333343,-0.48703703703703705,5.915500000000009],[0.18739583333333343,-0.48703703703703705,5.934399999991072],[0.17999999999999997,-0.4696296296296297,5.94889999999107],[0.17999999999999997,-0.4696296296296297,5.965599999994041],[0.18083333333333323,-0.45481481481481484,5.986599999994041],[0.18083333333333323,-0.45481481481481484,5.9988999999910675],[0.17895833333333327,-0.46277777777777773,6.015500000000003],[0.17395833333333333,-0.46648148148148144,6.032299999997022],[0.15666666666666676,-0.4762962962962963,6.052200000002983],[0.15666666666666676,-0.4762962962962963,6.065399999991072],[0.20010416666666658,-0.4892592592592592,6.08250000000001],[0.20010416666666658,-0.4892592592592592,6.098799999997027],[0.2430208333333333,-0.5103703703703704,6.1153999999910695],[0.2430208333333333,-0.5103703703703704,6.13509999999404],[0.23583333333333342,-0.5433333333333333,6.148799999997024],[0.23583333333333342,-0.5433333333333333,6.165399999991067],[0.22125000000000009,-0.505,6.182099999994051],[0.22125000000000009,-0.505,6.19889999999107],[0.20666666666666675,-0.4666666666666667,6.215399999991064],[0.20666666666666675,-0.4666666666666667,6.231999999999999],[0.21062500000000003,-0.4751851851851852,6.248700000002984],[0.19031250000000005,-0.4883333333333333,6.268200000002992],[0.19458333333333327,-0.47537037037037033,6.286799999997029],[0.14791666666666667,-0.4577777777777778,6.302200000002983],[0.14260416666666675,-0.45018518518518524,6.317599999994044],[0.07729166666666672,-0.45037037037037037,6.333299999997024],[0.0125,-0.44240740740740736,6.348799999997027],[-0.019479166666666714,-0.4644444444444445,6.36729999999703],[-0.04468749999999998,-0.4577777777777778,6.382000000000005],[-0.07062499999999995,-0.45499999999999996,6.400599999994043],[-0.08145833333333338,-0.44648148148148153,6.415399999991067],[-0.07885416666666671,-0.43444444444444447,6.432000000000002],[-0.09447916666666671,-0.41870370370370374,6.449299999997024],[-0.049479166666666664,-0.44537037037037036,6.4657000000029825],[-0.057395833333333354,-0.4346296296296296,6.48539999999106],[0.006458333333333381,-0.46407407407407414,6.501899999991068],[0.0703125,-0.4935185185185185,6.515299999997026],[0.07041666666666657,-0.49000000000000005,6.5320999999940454],[0.07510416666666657,-0.5205555555555555,6.549000000000007],[0.10895833333333324,-0.5503703703703704,6.56659999999404],[0.1544791666666666,-0.5831481481481481,6.582099999994043],[0.20260416666666667,-0.6122222222222222,6.599899999991067],[0.21624999999999991,-0.6453703703703704,6.618200000002986],[0.22333333333333344,-0.645,6.632000000000005],[0.2540625000000001,-0.6722222222222223,6.648700000002989],[0.21875,-0.6572222222222222,6.665299999997032],[0.16770833333333332,-0.6342592592592593,6.682000000000002],[0.16791666666666671,-0.6314814814814815,6.698700000002987],[0.17135416666666667,-0.6166666666666667,6.715399999991064],[0.14635416666666667,-0.5987037037037037,6.732099999994048],[0.09729166666666676,-0.5677777777777778,6.748700000002984],[0.03687499999999998,-0.5422222222222223,6.767599999994047],[0.012187500000000047,-0.5259259259259259,6.782599999994048],[0.016354166666666715,-0.5303703703703704,6.801899999991065],[0.003854166666666714,-0.5270370370370371,6.81659999999404],[0.011562500000000024,-0.5405555555555556,6.832099999994043],[0.035000000000000024,-0.562037037037037,6.848700000002992],[0.06114583333333338,-0.5859259259259259,6.8653999999910695],[0.06729166666666657,-0.5888888888888889,6.883700000002989],[0.06645833333333329,-0.5957407407407407,6.899899999991064],[0.07802083333333343,-0.6125925925925926,6.915399999991067],[0.09666666666666662,-0.607037037037037,6.932000000000002],[0.1118750000000001,-0.609074074074074,6.948700000002987],[0.09500000000000004,-0.5953703703703703,6.965399999991064],[0.09854166666666657,-0.5651851851851851,6.982099999994048],[0.08520833333333329,-0.525,7.001000000000005],[0.08624999999999995,-0.4751851851851852,7.015399999991061],[0.08458333333333339,-0.42296296296296293,7.032200000002987],[0.08677083333333328,-0.402962962962963,7.048700000002981],[0.09583333333333334,-0.3792592592592593,7.067799999997021],[0.08406250000000005,-0.36629629629629634,7.082299999997019],[0.0765625,-0.37037037037037035,7.0992000000029805],[0.05375000000000003,-0.3557407407407408,7.1153999999910695],[0.034166666666666616,-0.33611111111111114,7.134599999994052],[0.033958333333333354,-0.32833333333333337,7.150399999991066],[0.02312500000000005,-0.3168518518518519,7.167599999994039],[-0.0020833333333333333,-0.31500000000000006,7.18579999999703],[-0.028750000000000022,-0.2831481481481481,7.201399999991068],[-0.057500000000000044,-0.24314814814814817,7.215500000000006],[-0.057500000000000044,-0.24314814814814817,7.232099999994048],[-0.09479166666666666,-0.20092592592592592,7.25239999999107],[-0.09291666666666672,-0.16740740740740737,7.267700000002989],[-0.09104166666666665,-0.13388888888888892,7.2827999999970245],[-0.06916666666666664,-0.1,7.302299999997032]]","[0.0002999999970256795,0.03870000000299001,0.05159999999403908,0.06550000000000011,0.08220000000298455,0.0988999999910618,0.11550000000001148,0.13209999999403976,0.1487999999970242,0.1653999999910667,0.18229999999702784,0.19879999999702136,0.21559999999404056,0.2320999999940483,0.24879999999703273,0.26550000000000296,0.2822000000029874,0.3007999999970252,0.31570000000299103,0.33759999999404045,0.35650000000001114,0.3710999999940441,0.38629999999702136,0.4003999999910661,0.4153999999910667,0.43209999999405113,0.44879999999702136,0.4685000000000059,0.48220000000299024,0.5007999999970281,0.5155999999940519,0.5322000000029874,0.5490000000000066,0.5682999999970235,0.5823999999910683,0.5990000000000038,0.6155999999940462,0.6342000000029913,0.6490999999940499,0.6657000000029853,0.6845999999940489,0.6992999999970237,0.7155999999940406,0.732299999997025,0.75239999999107,0.7655999999940519,0.7825000000000131,0.8010999999940509,0.815700000002991,0.8322999999970193,0.85120000000299,0.8655999999940462,0.8825000000000074,0.9005000000000081,0.9155999999940434,0.9323999999910626,0.9512999999970191,0.9657999999970315,0.9827000000029926,1.0007000000029933,1.015599999994052,1.0322000000029874,1.0490000000000066,1.067299999997033,1.0823999999910683,1.100399999991069,1.1177999999970325,1.1323999999910654,1.148899999991059,1.1655000000000086,1.1852000000029932,1.200799999997031,1.2155999999940406,1.2322000000029902,1.2512999999970305,1.265500000000003,1.2822999999970222,1.3007000000029905,1.315599999994049,1.3322999999970193,1.348799999997027,1.3677999999970325,1.3823999999910654,1.398899999991059,1.4153999999910667,1.432200000002993,1.4505000000000052,1.4677999999970268,1.4822000000029902,1.4987999999970327,1.5158999999910634,1.5335000000000036,1.5487999999970299,1.5655000000000001,1.5820999999940426,1.598799999997027,1.6155999999940462,1.6320999999940398,1.6487999999970242,1.6653999999910667,1.682200000002993,1.6987999999970214,1.7185999999940407,1.7320999999940483,1.7487999999970327,1.765500000000003,1.7822000000029874,1.7987999999970299,1.8155000000000001,1.832599999994045,1.848799999997027,1.8653999999910695,1.883599999994047,1.8992999999970266,1.9155000000000086,1.9323999999910626,1.9487000000029866,1.9655999999940406,1.9827999999970274,2.000899999991063,2.015399999991061,2.0320999999940454,2.04879999999703,2.065599999994049,2.0820999999940426,2.102799999997032,2.1153999999910695,2.1322999999970307,2.152200000002992,2.1655000000000086,2.182200000002993,2.1987999999970214,2.215500000000006,2.2320999999940483,2.2487999999970327,2.265500000000003,2.282299999997022,2.301599999994039,2.3153999999910724,2.3320999999940426,2.3500000000000085,2.3653999999910695,2.3820999999940398,2.40209999999405,2.4157000000029853,2.432099999994051,2.4487999999970214,2.4690000000000083,2.4849999999999994,2.5022000000029863,2.5165999999940425,2.5320999999940454,2.548700000002981,2.5655,2.5822000000029846,2.598799999997027,2.6155000000000115,2.6320999999940398,2.648899999991059,2.6655000000000086,2.682099999994051,2.6987999999970214,2.715500000000006,2.7320999999940483,2.7487999999970327,2.7658999999910634,2.7830000000000013,2.803299999997023,2.8173999999910677,2.8320999999940426,2.848799999997027,2.8655000000000115,2.8820999999940398,2.8987000000029894,2.9153999999910667,2.932099999994051,2.9487999999970214,2.965500000000006,2.9820999999940483,2.9987000000029838,3.015500000000003,3.0320999999940454,3.04879999999703,3.0653999999910724,3.083399999991059,3.1000000000000085,3.1182999999970207,3.133500000000012,3.148899999991059,3.1655000000000086,3.1857000000029814,3.2023999999910586,3.2170999999940477,3.2322000000029902,3.2510000000000048,3.265500000000003,3.2830999999940502,3.302399999991067,3.3170000000000073,3.3322000000029846,3.351099999994048,3.3667999999970277,3.3823999999910654,3.402200000002992,3.4162000000029877,3.432099999994051,3.4487999999970214,3.465399999991064,3.4820999999940483,3.4987999999970327,3.515399999991061,3.5343999999910665,3.548700000002981,3.5653999999910724,3.5820999999940426,3.6000000000000085,3.6153999999910695,3.6320999999940398,3.648799999997024,3.6653999999910667,3.6835000000000093,3.699899999991061,3.7178999999910616,3.7322000000029902,3.7498999999910723,3.765399999991061,3.7820999999940454,3.801000000000002,3.8153999999910724,3.8320999999940426,3.848799999997027,3.8655000000000115,3.8820999999940398,3.898799999997024,3.9153999999910667,3.932099999994051,3.9487999999970214,3.9665999999940453,3.984000000000009,4.0010999999940395,4.015399999991061,4.044299999997023,4.066899999991065,4.08250000000001,4.098799999997027,4.1153999999910695,4.13209999999404,4.148700000002989,4.165399999991067,4.182099999994051,4.203000000000003,4.215399999991064,4.231999999999999,4.248799999997033,4.265500000000003,4.286500000000004,4.298700000002981,4.315399999991072,4.332099999994043,4.348799999997027,4.365700000002988,4.38209999999404,4.398899999991059,4.415399999991067,4.432099999994051,4.448799999997021,4.465399999991064,4.482500000000002,4.498799999997033,4.515399999991061,4.5320999999940454,4.548700000002981,4.565399999991072,4.582099999994043,4.598799999997027,4.6153999999910695,4.63209999999404,4.648899999991059,4.665399999991067,4.684700000002991,4.6993999999910585,4.715500000000006,4.734700000002988,4.7488999999910675,4.765500000000003,4.788200000002988,4.798899999991065,4.815599999994049,4.8322000000029846,4.851299999997025,4.8655000000000115,4.882299999997031,4.898899999991059,4.917599999994039,4.932399999991063,4.94889999999107,4.968599999994041,4.982899999991062,4.9988999999910675,5.015599999994052,5.034700000002985,5.04879999999703,5.0655,5.084799999997031,5.099000000000004,5.1155000000000115,5.134500000000003,5.148899999991059,5.165500000000009,5.182099999994051,5.200700000002982,5.215500000000006,5.232299999997025,5.2488999999910675,5.267399999991071,5.282200000002987,5.29879999999703,5.317700000002986,5.3322000000029846,5.348899999991062,5.367899999991067,5.382399999991065,5.400399999991066,5.415599999994043,5.43389999999107,5.44889999999107,5.465500000000006,5.486000000000004,5.500299999997026,5.515500000000003,5.534099999994041,5.54879999999703,5.565599999994049,5.587799999997031,5.599099999994053,5.615599999994046,5.632200000002982,5.651299999997022,5.665500000000009,5.682299999997028,5.700799999997031,5.715599999994041,5.73220000000299,5.752299999997021,5.766700000002984,5.782299999997022,5.801700000002981,5.8155,5.8322000000029846,5.848799999997027,5.868500000000012,5.882899999991068,5.898799999997024,5.915500000000009,5.934399999991072,5.94889999999107,5.965599999994041,5.986599999994041,5.9988999999910675,6.015500000000003,6.032299999997022,6.052200000002983,6.065399999991072,6.08250000000001,6.098799999997027,6.1153999999910695,6.13509999999404,6.148799999997024,6.165399999991067,6.182099999994051,6.19889999999107,6.215399999991064,6.231999999999999,6.248700000002984,6.268200000002992,6.286799999997029,6.302200000002983,6.317599999994044,6.333299999997024,6.348799999997027,6.36729999999703,6.382000000000005,6.400599999994043,6.415399999991067,6.432000000000002,6.449299999997024,6.4657000000029825,6.48539999999106,6.501899999991068,6.515299999997026,6.5320999999940454,6.549000000000007,6.56659999999404,6.582099999994043,6.599899999991067,6.618200000002986,6.632000000000005,6.648700000002989,6.665299999997032,6.682000000000002,6.698700000002987,6.715399999991064,6.732099999994048,6.748700000002984,6.767599999994047,6.782599999994048,6.801899999991065,6.81659999999404,6.832099999994043,6.848700000002992,6.8653999999910695,6.883700000002989,6.899899999991064,6.915399999991067,6.932000000000002,6.948700000002987,6.965399999991064,6.982099999994048,7.001000000000005,7.015399999991061,7.032200000002987,7.048700000002981,7.067799999997021,7.082299999997019,7.0992000000029805,7.1153999999910695,7.134599999994052,7.150399999991066,7.167599999994039,7.18579999999703,7.201399999991068,7.215500000000006,7.232099999994048,7.25239999999107,7.267700000002989,7.2827999999970245,7.302299999997032]","[1733204293814,1733204293845,1733204293858,1733204293872,1733204293889,1733204293905,1733204293922,1733204293939,1733204293955,1733204293972,1733204293989,1733204294005,1733204294022,1733204294039,1733204294055,1733204294072,1733204294089,1733204294107,1733204294122,1733204294144,1733204294163,1733204294177,1733204294193,1733204294207,1733204294222,1733204294239,1733204294255,1733204294275,1733204294289,1733204294307,1733204294322,1733204294339,1733204294355,1733204294375,1733204294389,1733204294405,1733204294422,1733204294441,1733204294456,1733204294472,1733204294491,1733204294506,1733204294522,1733204294539,1733204294559,1733204294572,1733204294589,1733204294607,1733204294622,1733204294639,1733204294658,1733204294672,1733204294689,1733204294707,1733204294722,1733204294739,1733204294758,1733204294772,1733204294789,1733204294807,1733204294822,1733204294839,1733204294855,1733204294874,1733204294889,1733204294907,1733204294924,1733204294939,1733204294955,1733204294972,1733204294992,1733204295007,1733204295022,1733204295039,1733204295058,1733204295072,1733204295089,1733204295107,1733204295122,1733204295139,1733204295155,1733204295174,1733204295189,1733204295205,1733204295222,1733204295239,1733204295257,1733204295274,1733204295289,1733204295305,1733204295322,1733204295340,1733204295355,1733204295372,1733204295389,1733204295405,1733204295422,1733204295439,1733204295455,1733204295472,1733204295489,1733204295505,1733204295525,1733204295539,1733204295555,1733204295572,1733204295589,1733204295605,1733204295622,1733204295639,1733204295655,1733204295672,1733204295690,1733204295706,1733204295722,1733204295739,1733204295755,1733204295772,1733204295789,1733204295807,1733204295822,1733204295839,1733204295855,1733204295872,1733204295889,1733204295909,1733204295922,1733204295939,1733204295959,1733204295972,1733204295989,1733204296005,1733204296022,1733204296039,1733204296055,1733204296072,1733204296089,1733204296108,1733204296122,1733204296139,1733204296156,1733204296172,1733204296189,1733204296209,1733204296222,1733204296239,1733204296255,1733204296275,1733204296291,1733204296309,1733204296323,1733204296339,1733204296355,1733204296372,1733204296389,1733204296405,1733204296422,1733204296439,1733204296455,1733204296472,1733204296489,1733204296505,1733204296522,1733204296539,1733204296555,1733204296572,1733204296590,1733204296610,1733204296624,1733204296639,1733204296655,1733204296672,1733204296689,1733204296705,1733204296722,1733204296739,1733204296755,1733204296772,1733204296789,1733204296805,1733204296822,1733204296839,1733204296855,1733204296872,1733204296890,1733204296906,1733204296925,1733204296940,1733204296955,1733204296972,1733204296992,1733204297009,1733204297023,1733204297039,1733204297057,1733204297072,1733204297090,1733204297109,1733204297123,1733204297139,1733204297158,1733204297173,1733204297189,1733204297209,1733204297223,1733204297239,1733204297255,1733204297272,1733204297289,1733204297305,1733204297322,1733204297341,1733204297355,1733204297372,1733204297389,1733204297406,1733204297422,1733204297439,1733204297455,1733204297472,1733204297490,1733204297506,1733204297524,1733204297539,1733204297556,1733204297572,1733204297589,1733204297607,1733204297622,1733204297638,1733204297655,1733204297672,1733204297689,1733204297705,1733204297722,1733204297738,1733204297755,1733204297773,1733204297790,1733204297808,1733204297822,1733204297851,1733204297873,1733204297889,1733204297905,1733204297922,1733204297938,1733204297955,1733204297972,1733204297989,1733204298009,1733204298022,1733204298039,1733204298055,1733204298072,1733204298093,1733204298105,1733204298122,1733204298139,1733204298155,1733204298172,1733204298189,1733204298205,1733204298222,1733204298239,1733204298255,1733204298272,1733204298289,1733204298305,1733204298322,1733204298338,1733204298355,1733204298372,1733204298389,1733204298405,1733204298422,1733204298438,1733204298455,1733204298472,1733204298491,1733204298506,1733204298522,1733204298541,1733204298555,1733204298572,1733204298595,1733204298605,1733204298622,1733204298639,1733204298658,1733204298672,1733204298689,1733204298705,1733204298724,1733204298739,1733204298755,1733204298775,1733204298789,1733204298805,1733204298822,1733204298841,1733204298855,1733204298872,1733204298891,1733204298905,1733204298922,1733204298941,1733204298955,1733204298972,1733204298989,1733204299007,1733204299022,1733204299039,1733204299055,1733204299074,1733204299089,1733204299105,1733204299124,1733204299139,1733204299155,1733204299174,1733204299189,1733204299207,1733204299222,1733204299240,1733204299255,1733204299272,1733204299292,1733204299307,1733204299322,1733204299341,1733204299355,1733204299372,1733204299394,1733204299405,1733204299422,1733204299439,1733204299458,1733204299472,1733204299489,1733204299507,1733204299522,1733204299539,1733204299559,1733204299573,1733204299589,1733204299608,1733204299622,1733204299639,1733204299655,1733204299675,1733204299689,1733204299705,1733204299722,1733204299741,1733204299755,1733204299772,1733204299793,1733204299805,1733204299822,1733204299839,1733204299859,1733204299872,1733204299889,1733204299905,1733204299922,1733204299942,1733204299955,1733204299972,1733204299989,1733204300005,1733204300022,1733204300038,1733204300055,1733204300075,1733204300093,1733204300109,1733204300124,1733204300140,1733204300155,1733204300174,1733204300188,1733204300207,1733204300222,1733204300238,1733204300256,1733204300272,1733204300292,1733204300308,1733204300322,1733204300338,1733204300355,1733204300373,1733204300388,1733204300406,1733204300425,1733204300438,1733204300455,1733204300472,1733204300488,1733204300505,1733204300522,1733204300538,1733204300555,1733204300574,1733204300589,1733204300608,1733204300623,1733204300638,1733204300655,1733204300672,1733204300690,1733204300706,1733204300722,1733204300738,1733204300755,1733204300772,1733204300788,1733204300807,1733204300822,1733204300839,1733204300855,1733204300874,1733204300889,1733204300906,1733204300922,1733204300941,1733204300957,1733204300974,1733204300992,1733204301008,1733204301022,1733204301039,1733204301059,1733204301074,1733204301089,1733204301109]","[[1197.3,602.1],[1197.3,602.1],[1195.7,609.3],[1195.7,609.3],[1203.4,608.4],[1203.4,608.4],[1224.8,613],[1224.8,613],[1243.5,606.1],[1243.5,606.1],[1246.8,595.9],[1246.8,595.9],[1304.7,587.1],[1304.7,587.1],[1382.7,566.7],[1382.7,566.7],[1393.7,575.6],[1403.8,572.9],[1424.7,570.1],[1452.8,568.5],[1452.8,568.5],[1486.8,573.4],[1469.6,563.3],[1483.5,566.5],[1513,571],[1551.2,564.5],[1580.8,552.6],[1597.1,533.7],[1644.4,509.1],[1654.8,493.1],[1623.3,495.6],[1608.7,503.6],[1609.8,520.6],[1557.9,527.4],[1544.4,531.1],[1544.4,531.1],[1508.5,548.4],[1480.3,560.8],[1401,580.7],[1321.7,600.6],[1267,623.7],[1274.7,627.8],[1263.9,628.9],[1263.9,628.9],[1248.2,627.5],[1248.2,627.5],[1241.8,625.1],[1241.8,625.1],[1225.4,633.8],[1204.9,638.2],[1151.8,640.7],[1154.8,639.3],[1178.1,645.7],[1220,648.5],[1173.3,650.8],[1138.3,645],[1116.1,640.6],[1120.1,643.1],[1095.7,637.6],[1095.7,637.6],[1069.8,633.9],[1069.8,633.9],[1108.6,643.3],[1123.1,650.9],[1090.2,643.5],[1031.2,644.4],[1059.1,650.3],[1057.9,650.8],[1075.7,655],[1075.7,655],[1088.7,668],[1055,663],[1026.9,660.5],[946.1,633.9],[887.3,607.3],[894.9,601.3],[902.2,587.4],[905.4,581.4],[908.5,580.4],[889.9,567],[861.7,542.4],[851.9,531.2],[872.4,533.2],[905.8,553],[913.7,566.4],[882.3,566.4],[866.9,580.2],[827,568.6],[805.4,567.7],[774.7,569.7],[726.9,565.9],[732.6,565.3],[732.6,565.3],[708,551.5],[679.9,540.4],[664.5,528.2],[649.1,516],[613.2,493.8],[589.7,484.7],[596,487.7],[620.9,490.4],[626.1,488.6],[606.1,488.2],[602.6,491.9],[614.7,490.8],[615.9,484.7],[617.1,478.6],[622.8,468.7],[642.5,473.5],[631.4,461.3],[604.3,458.7],[607.3,466.7],[619.3,471.7],[614.8,472.6],[609.5,473.8],[576.4,488.9],[543.3,504],[505,516.5],[452.7,514.3],[405.7,517],[361.1,513.7],[321.8,503.3],[294.7,504.3],[250.1,506.1],[194.2,509.8],[198.9,508],[198.9,508],[203.1,506.3],[215.8,510],[215.8,510],[210.3,511.4],[210.3,511.4],[198.4,507.4],[198.4,507.4],[208,514.3],[208,514.3],[276.9,539.3],[304,540.2],[344.2,540],[365.5,541.2],[422.9,536.2],[481.3,543],[508.5,547.7],[573,544.8],[638.6,542.4],[682.6,536.8],[668.7,519.9],[676.3,514.6],[688.3,509.6],[725,510.2],[716.5,521.1],[706,513.2],[723.4,504.6],[711.6,508.1],[703.7,516.9],[702.7,520.5],[704.7,514],[705.8,511.6],[709.8,511.9],[708,505.1],[681,499.7],[655.5,501.2],[632.4,513],[619.4,522.6],[649.4,515.8],[660.7,494.7],[674.5,489.6],[693.9,483.6],[710.4,474.9],[721,459],[763.7,440.1],[809.7,420.7],[853.3,391],[883,361.2],[853.7,345.8],[879,346.5],[883.9,333.1],[895.6,324.3],[912.9,313.9],[936.1,310.7],[935.8,308.9],[932.2,307.6],[946.9,300.8],[966.6,295.4],[978.3,284.1],[956.9,273.8],[963.3,278.2],[942.8,306.4],[916.7,336.2],[898,369.1],[895.9,402.2],[925.3,407],[936.4,417.3],[923.2,450.9],[930.1,487.1],[963.1,491.4],[983.2,489.2],[1012.5,490],[1011.2,478.2],[1023.9,456.1],[1036.6,434],[1003.1,447.3],[969.6,460.6],[969.3,449.3],[980.1,433.7],[954.7,448.1],[933.7,452.3],[918,426],[927.1,426.7],[914.8,434.6],[895.2,436.7],[890.3,431.7],[888.5,426.1],[889.8,434.3],[868.7,445.8],[852.9,444.2],[832.7,452.8],[819.1,455.6],[811.3,444],[776,431.3],[748,424.4],[706.8,426.1],[662.5,428.4],[647.9,408.5],[644.6,389.6],[692,369.3],[739.4,349],[759.4,345.4],[767.6,341.2],[803.3,338.1],[856.6,336.1],[923.1,325.5],[981,322.5],[1006.1,327.9],[1032.9,335.5],[1011,356.7],[1018.9,370.7],[1034.1,361.3],[1061.1,352.5],[1086.4,345.2],[1094.1,336.8],[1126,335],[1126,335],[1172.9,326.7],[1172.9,326.7],[1174.2,313.8],[1174.2,313.8],[1182.4,305.7],[1182.4,305.7],[1205.4,309.6],[1199.3,320.5],[1199.3,320.5],[1177.3,340.5],[1177.3,340.5],[1104.7,378],[1047.7,407.2],[1047.7,407.2],[1036.7,416.9],[983.4,422.1],[943,418.7],[936.2,431.1],[920.8,436.5],[933.4,416],[928.4,402.7],[943.6,387.3],[1016.7,352.7],[1063.9,331.9],[1072.9,339],[1119.2,327.2],[1140.4,323.2],[1180.9,313.4],[1216.1,303.3],[1196.7,328.9],[1194.2,347.5],[1195.9,366.5],[1194.3,385.7],[1204.7,397.9],[1209.4,384.6],[1194.9,388.1],[1195,400.2],[1154.5,402],[1143.3,417],[1131.3,412.8],[1120,395.8],[1096.5,381.1],[1069,367],[1069,367],[1060.5,353.5],[1044.6,356.7],[1028.7,359.9],[1001.1,357.1],[1004.7,363.3],[977.3,353.8],[962.5,341.7],[958.2,337.4],[958.2,337.4],[971.1,335.9],[1001,339.9],[1007.1,349.3],[983.1,370],[959.1,390.7],[944.9,394.8],[950.6,398],[949.8,401.6],[959.4,399.6],[979.5,395.6],[979.6,404],[979.6,404],[970.1,405.5],[965.5,388.2],[983.5,362.2],[1006.6,354.1],[1021,342],[1038.9,323.9],[1080.2,323.7],[1099.3,323.4],[1104.6,324.5],[1129.9,313.2],[1171.4,298.2],[1209.1,296.5],[1252.8,306.5],[1267.8,296.8],[1284.6,304.8],[1235.7,332.2],[1176.9,344.1],[1134.5,346.1],[1084.2,353.7],[1038.1,364.8],[990.8,383.7],[931.9,405.6],[876,419.3],[877,424.6],[877,424.6],[865.9,427.7],[865.9,427.7],[897,421.3],[895.3,421.9],[889,438.1],[893.9,437.9],[894.6,434.2],[894.6,434.2],[891.6,415.1],[916.4,394.6],[945,368.4],[935.6,355.8],[938.3,345.4],[943.2,327.9],[971.6,311.9],[971.6,311.9],[1000,295.9],[1045.8,312],[1102.2,287.7],[1102.2,287.7],[1139.9,277],[1139.9,277],[1132.8,286.4],[1132.8,286.4],[1133.6,294.4],[1133.6,294.4],[1131.8,290.1],[1127,288.1],[1110.4,282.8],[1110.4,282.8],[1152.1,275.8],[1152.1,275.8],[1193.3,264.4],[1193.3,264.4],[1186.4,246.6],[1186.4,246.6],[1172.4,267.3],[1172.4,267.3],[1158.4,288],[1158.4,288],[1162.2,283.4],[1142.7,276.3],[1146.8,283.3],[1102,292.8],[1096.9,296.9],[1034.2,296.8],[972,301.1],[941.3,289.2],[917.1,292.8],[892.2,294.3],[881.8,298.9],[884.3,305.4],[869.3,313.9],[912.5,299.5],[904.9,305.3],[966.2,289.4],[1027.5,273.5],[1027.6,275.4],[1032.1,258.9],[1064.6,242.8],[1108.3,225.1],[1154.5,209.4],[1167.6,191.5],[1174.4,191.7],[1203.9,177],[1170,185.1],[1121,197.5],[1121.2,199],[1124.5,207],[1100.5,216.7],[1053.4,233.4],[995.4,247.2],[971.7,256],[975.7,253.6],[963.7,255.4],[971.1,248.1],[993.6,236.5],[1018.7,223.6],[1024.6,222],[1023.8,218.3],[1034.9,209.2],[1052.8,212.2],[1067.4,211.1],[1051.2,218.5],[1054.6,234.8],[1041.8,256.5],[1042.8,283.4],[1041.2,311.6],[1043.3,322.4],[1052,335.2],[1040.7,342.2],[1033.5,340],[1011.6,347.9],[992.8,358.5],[992.6,362.7],[982.2,368.9],[958,369.9],[932.4,387.1],[904.8,408.7],[904.8,408.7],[869,431.5],[870.8,449.6],[872.6,467.7],[893.6,486]]","[0,0.37864299999999995]","[0.37864299999999995,0.37864299999999995]","[-0.37864299999999995,-0.37864299999999995]","[-0.37864299999999995,0]","[0,-0.37864299999999995]","[0.37864299999999995,-0.37864299999999995]","[0,0]","[0.37864299999999995,0]",0,0,0,0,1,1,Laptop,7,7,15,9
