inst1_resp.keys,inst1_resp.rt,calibrationMouse.x,calibrationMouse.y,calibrationMouse.leftButton,calibrationMouse.midButton,calibrationMouse.rightButton,calibrationClick.x,calibrationClick.y,calibrationClick.leftButton,calibrationClick.midButton,calibrationClick.rightButton,calibrationClick.clicked_name,trialsc.thisRepN,trialsc.thisTrialN,trialsc.thisN,trialsc.thisIndex,trialsc.ran,calibration_x,calibration_y,participant,session,date,expName,psychopyVersion,OS,frameRate,ScreenRes_pixels,Camera_pixels,mouse_2.x,mouse_2.y,mouse_2.leftButton,mouse_2.midButton,mouse_2.rightButton,mouse_2.time,mouse_2.clicked_name,mouse.x,mouse.y,mouse.leftButton,mouse.midButton,mouse.rightButton,mouse.time,mouse.clicked_name,Choice,Trial,TrialDuration,MOUSE_GAZE,ET_GAZE,ET_GAZE_x_T,time,unixTime,ET_GAZE_NF,Loc_Option1_label,Loc_Option2_label,Loc_Cost_label,Loc_Qual_label,Loc_Option1_cost,Loc_Option2_cost,Loc_Option1_quality,Loc_Option2_quality,trials.thisRepN,trials.thisTrialN,trials.thisN,trials.thisIndex,trials.ran,Block,Device,cost1,qual1,cost2,qual2
space,0.9078,0.590625,0.064814815,1,0,0,-0.3375,0.67962963,1,0,0,calibration_square,0,0,0,8,1,-0.33,0.67,22,001,2024-12-03_14h31.26.039,Attention_exp_legacy,2023.1.0,Win32,60.24096386,,,,,,,,,,,,,,,,,,,,,,,,,,,,,,,,,,,,,,,,,,,,
,,,,,,,-0.33125,0.001851852,1,0,0,calibration_square,0,1,1,6,1,-0.33,0,22,001,2024-12-03_14h31.26.039,Attention_exp_legacy,2023.1.0,Win32,60.24096386,,,,,,,,,,,,,,,,,,,,,,,,,,,,,,,,,,,,,,,,,,,,
,,,,,,,-0.002083333,-0.661111111,1,0,0,calibration_square,0,2,2,9,1,0,-0.67,22,001,2024-12-03_14h31.26.039,Attention_exp_legacy,2023.1.0,Win32,60.24096386,,,,,,,,,,,,,,,,,,,,,,,,,,,,,,,,,,,,,,,,,,,,
,,,,,,,-0.657291667,-0.662962963,1,0,0,,0,3,3,0,1,-0.67,-0.67,22,001,2024-12-03_14h31.26.039,Attention_exp_legacy,2023.1.0,Win32,60.24096386,,,,,,,,,,,,,,,,,,,,,,,,,,,,,,,,,,,,,,,,,,,,
,,,,,,,-0.66875,-0.335185185,1,0,0,calibration_square,0,4,4,1,1,-0.67,-0.33,22,001,2024-12-03_14h31.26.039,Attention_exp_legacy,2023.1.0,Win32,60.24096386,,,,,,,,,,,,,,,,,,,,,,,,,,,,,,,,,,,,,,,,,,,,
,,,,,,,0.684375,-0.677777778,1,0,0,,0,5,5,20,1,0.67,-0.67,22,001,2024-12-03_14h31.26.039,Attention_exp_legacy,2023.1.0,Win32,60.24096386,,,,,,,,,,,,,,,,,,,,,,,,,,,,,,,,,,,,,,,,,,,,
,,,,,,,0.335416667,-0.327777778,1,0,0,calibration_square,0,6,6,15,1,0.33,-0.33,22,001,2024-12-03_14h31.26.039,Attention_exp_legacy,2023.1.0,Win32,60.24096386,,,,,,,,,,,,,,,,,,,,,,,,,,,,,,,,,,,,,,,,,,,,
,,,,,,,0.35,0.67962963,1,0,0,,0,7,7,18,1,0.33,0.67,22,001,2024-12-03_14h31.26.039,Attention_exp_legacy,2023.1.0,Win32,60.24096386,,,,,,,,,,,,,,,,,,,,,,,,,,,,,,,,,,,,,,,,,,,,
,,,,,,,-0.327083333,-0.340740741,1,0,0,,0,8,8,5,1,-0.33,-0.33,22,001,2024-12-03_14h31.26.039,Attention_exp_legacy,2023.1.0,Win32,60.24096386,,,,,,,,,,,,,,,,,,,,,,,,,,,,,,,,,,,,,,,,,,,,
,,,,,,,0.008333333,0.307407407,1,0,0,,0,9,9,12,1,0,0.33,22,001,2024-12-03_14h31.26.039,Attention_exp_legacy,2023.1.0,Win32,60.24096386,,,,,,,,,,,,,,,,,,,,,,,,,,,,,,,,,,,,,,,,,,,,
,,,,,,,0.657291667,0.664814815,1,0,0,,0,10,10,19,1,0.67,0.67,22,001,2024-12-03_14h31.26.039,Attention_exp_legacy,2023.1.0,Win32,60.24096386,,,,,,,,,,,,,,,,,,,,,,,,,,,,,,,,,,,,,,,,,,,,
,,,,,,,0.313541667,0.342592593,1,0,0,,0,11,11,17,1,0.33,0.33,22,001,2024-12-03_14h31.26.039,Attention_exp_legacy,2023.1.0,Win32,60.24096386,,,,,,,,,,,,,,,,,,,,,,,,,,,,,,,,,,,,,,,,,,,,
,,,,,,,0.348958333,-0.674074074,1,0,0,,0,12,12,14,1,0.33,-0.67,22,001,2024-12-03_14h31.26.039,Attention_exp_legacy,2023.1.0,Win32,60.24096386,,,,,,,,,,,,,,,,,,,,,,,,,,,,,,,,,,,,,,,,,,,,
,,,,,,,-0.660416667,0.301851852,1,0,0,,0,13,13,3,1,-0.67,0.33,22,001,2024-12-03_14h31.26.039,Attention_exp_legacy,2023.1.0,Win32,60.24096386,,,,,,,,,,,,,,,,,,,,,,,,,,,,,,,,,,,,,,,,,,,,
,,,,,,,0.004166667,-0.007407407,1,0,0,calibration_square,0,14,14,11,1,0,0,22,001,2024-12-03_14h31.26.039,Attention_exp_legacy,2023.1.0,Win32,60.24096386,,,,,,,,,,,,,,,,,,,,,,,,,,,,,,,,,,,,,,,,,,,,
,,,,,,,-0.667708333,-0.001851852,1,0,0,calibration_square,0,15,15,2,1,-0.67,0,22,001,2024-12-03_14h31.26.039,Attention_exp_legacy,2023.1.0,Win32,60.24096386,,,,,,,,,,,,,,,,,,,,,,,,,,,,,,,,,,,,,,,,,,,,
,,,,,,,-0.004166667,0.666666667,1,0,0,calibration_square,0,16,16,13,1,0,0.67,22,001,2024-12-03_14h31.26.039,Attention_exp_legacy,2023.1.0,Win32,60.24096386,,,,,,,,,,,,,,,,,,,,,,,,,,,,,,,,,,,,,,,,,,,,
,,,,,,,-0.3375,-0.653703704,1,0,0,,0,17,17,4,1,-0.33,-0.67,22,001,2024-12-03_14h31.26.039,Attention_exp_legacy,2023.1.0,Win32,60.24096386,,,,,,,,,,,,,,,,,,,,,,,,,,,,,,,,,,,,,,,,,,,,
,,,,,,,-0.323958333,0.333333333,1,0,0,calibration_square,0,18,18,7,1,-0.33,0.33,22,001,2024-12-03_14h31.26.039,Attention_exp_legacy,2023.1.0,Win32,60.24096386,,,,,,,,,,,,,,,,,,,,,,,,,,,,,,,,,,,,,,,,,,,,
,,,,,,,0.336458333,-0.007407407,1,0,0,calibration_square,0,19,19,16,1,0.33,0,22,001,2024-12-03_14h31.26.039,Attention_exp_legacy,2023.1.0,Win32,60.24096386,,,,,,,,,,,,,,,,,,,,,,,,,,,,,,,,,,,,,,,,,,,,
,,,,,,,-0.00625,-0.32037037,1,0,0,calibration_square,0,20,20,10,1,0,-0.33,22,001,2024-12-03_14h31.26.039,Attention_exp_legacy,2023.1.0,Win32,60.24096386,,,,,,,,,,,,,,,,,,,,,,,,,,,,,,,,,,,,,,,,,,,,
,,,,,,,,,,,,,,,,,,,,22,001,2024-12-03_14h31.26.039,Attention_exp_legacy,2023.1.0,Win32,60.24096386,"[1920,1080]","[640,480]",[0.023958333333333335],[-0.5166666666666667],[1],[0],[0],[1.5960000000000036],"[""StartButton""]",[-0.035416666666666666],[0.4],[1],[0],[0],[6.189999999999998],"[""Option1_label""]",Option1_label,1,7.2104,"[[0.075,-0.37592592592592594],[0.075,-0.37592592592592594],[0.075,-0.37592592592592594],[0.075,-0.37592592592592594],[0.075,-0.37592592592592594],[0.075,-0.37592592592592594],[0.075,-0.37592592592592594],[0.075,-0.37592592592592594],[0.075,-0.37592592592592594],[0.075,-0.37592592592592594],[0.075,-0.37592592592592594],[0.075,-0.37592592592592594],[0.075,-0.37592592592592594],[0.075,-0.37592592592592594],[0.075,-0.37592592592592594],[0.075,-0.37592592592592594],[0.075,-0.37592592592592594],[0.075,-0.37592592592592594],[0.075,-0.37592592592592594],[0.075,-0.37592592592592594],[0.075,-0.37592592592592594],[0.075,-0.37592592592592594],[0.075,-0.37592592592592594],[0.075,-0.37592592592592594],[0.075,-0.37592592592592594],[0.075,-0.37592592592592594],[0.075,-0.37592592592592594],[0.075,-0.37592592592592594],[0.075,-0.37592592592592594],[0.07395833333333333,-0.37777777777777777],[0.07291666666666667,-0.37962962962962965],[0.071875,-0.3814814814814815],[0.071875,-0.38333333333333336],[0.07083333333333333,-0.38333333333333336],[0.07083333333333333,-0.3851851851851852],[0.07083333333333333,-0.3851851851851852],[0.07083333333333333,-0.3851851851851852],[0.07083333333333333,-0.3851851851851852],[0.07083333333333333,-0.3851851851851852],[0.07083333333333333,-0.3851851851851852],[0.07083333333333333,-0.3851851851851852],[0.07083333333333333,-0.3851851851851852],[0.07083333333333333,-0.3851851851851852],[0.07083333333333333,-0.3851851851851852],[0.07083333333333333,-0.3851851851851852],[0.07083333333333333,-0.3851851851851852],[0.07083333333333333,-0.3851851851851852],[0.07083333333333333,-0.3851851851851852],[0.07083333333333333,-0.3851851851851852],[0.07083333333333333,-0.3851851851851852],[0.07083333333333333,-0.3851851851851852],[0.07083333333333333,-0.3851851851851852],[0.06875,-0.3888888888888889],[0.06875,-0.3907407407407407],[0.06875,-0.3907407407407407],[0.06770833333333333,-0.3925925925925926],[0.06770833333333333,-0.3925925925925926],[0.06770833333333333,-0.3925925925925926],[0.06666666666666667,-0.39444444444444443],[0.06666666666666667,-0.39444444444444443],[0.06666666666666667,-0.39444444444444443],[0.06666666666666667,-0.39444444444444443],[0.06666666666666667,-0.39444444444444443],[0.06666666666666667,-0.39444444444444443],[0.06666666666666667,-0.39444444444444443],[0.06666666666666667,-0.39444444444444443],[0.065625,-0.39814814814814814],[0.065625,-0.39814814814814814],[0.065625,-0.39814814814814814],[0.06458333333333334,-0.39814814814814814],[0.06458333333333334,-0.4],[0.06458333333333334,-0.4],[0.06458333333333334,-0.40185185185185185],[0.06458333333333334,-0.40185185185185185],[0.06458333333333334,-0.40185185185185185],[0.06458333333333334,-0.40185185185185185],[0.06354166666666666,-0.40370370370370373],[0.06354166666666666,-0.40370370370370373],[0.06354166666666666,-0.4074074074074074],[0.0625,-0.4074074074074074],[0.0625,-0.4074074074074074],[0.0625,-0.40925925925925927],[0.0625,-0.40925925925925927],[0.0625,-0.40925925925925927],[0.0625,-0.4111111111111111],[0.0625,-0.4111111111111111],[0.0625,-0.4111111111111111],[0.0625,-0.4111111111111111],[0.0625,-0.4111111111111111],[0.06145833333333333,-0.412962962962963],[0.06145833333333333,-0.412962962962963],[0.06145833333333333,-0.412962962962963],[0.06145833333333333,-0.412962962962963],[0.06145833333333333,-0.412962962962963],[0.06145833333333333,-0.412962962962963],[0.06145833333333333,-0.412962962962963],[0.06145833333333333,-0.412962962962963],[0.06041666666666667,-0.4148148148148148],[0.06041666666666667,-0.4148148148148148],[0.06041666666666667,-0.4148148148148148],[0.06041666666666667,-0.4148148148148148],[0.06041666666666667,-0.4148148148148148],[0.06041666666666667,-0.4148148148148148],[0.06041666666666667,-0.4148148148148148],[0.06041666666666667,-0.4148148148148148],[0.06041666666666667,-0.4148148148148148],[0.06041666666666667,-0.4148148148148148],[0.06041666666666667,-0.4148148148148148],[0.06041666666666667,-0.4148148148148148],[0.06041666666666667,-0.4148148148148148],[0.06041666666666667,-0.4148148148148148],[0.06041666666666667,-0.4148148148148148],[0.06041666666666667,-0.4148148148148148],[0.06041666666666667,-0.4148148148148148],[0.06041666666666667,-0.4148148148148148],[0.06041666666666667,-0.4148148148148148],[0.06041666666666667,-0.4148148148148148],[0.06041666666666667,-0.4148148148148148],[0.06041666666666667,-0.4148148148148148],[0.06041666666666667,-0.4148148148148148],[0.06041666666666667,-0.4148148148148148],[0.06041666666666667,-0.4148148148148148],[0.06041666666666667,-0.4148148148148148],[0.06041666666666667,-0.4148148148148148],[0.06041666666666667,-0.4148148148148148],[0.06041666666666667,-0.4148148148148148],[0.06041666666666667,-0.4148148148148148],[0.06041666666666667,-0.4148148148148148],[0.06041666666666667,-0.4148148148148148],[0.06041666666666667,-0.4148148148148148],[0.06041666666666667,-0.4148148148148148],[0.06041666666666667,-0.4148148148148148],[0.06041666666666667,-0.4148148148148148],[0.06041666666666667,-0.4148148148148148],[0.06041666666666667,-0.4148148148148148],[0.06041666666666667,-0.4148148148148148],[0.06041666666666667,-0.4148148148148148],[0.06041666666666667,-0.4148148148148148],[0.06041666666666667,-0.4148148148148148],[0.06041666666666667,-0.4148148148148148],[0.06041666666666667,-0.4148148148148148],[0.06041666666666667,-0.4148148148148148],[0.06041666666666667,-0.4148148148148148],[0.06041666666666667,-0.4148148148148148],[0.06041666666666667,-0.4148148148148148],[0.06041666666666667,-0.4148148148148148],[0.06041666666666667,-0.4148148148148148],[0.06041666666666667,-0.4148148148148148],[0.06041666666666667,-0.4148148148148148],[0.06041666666666667,-0.4148148148148148],[0.06041666666666667,-0.4148148148148148],[0.06041666666666667,-0.4148148148148148],[0.06041666666666667,-0.4148148148148148],[0.06041666666666667,-0.4148148148148148],[0.06041666666666667,-0.4148148148148148],[0.06041666666666667,-0.4148148148148148],[0.06041666666666667,-0.4148148148148148],[0.06041666666666667,-0.4148148148148148],[0.06041666666666667,-0.4148148148148148],[0.06041666666666667,-0.4148148148148148],[0.06041666666666667,-0.4148148148148148],[0.06041666666666667,-0.4148148148148148],[0.06041666666666667,-0.4148148148148148],[0.06041666666666667,-0.4148148148148148],[0.06041666666666667,-0.4148148148148148],[0.06041666666666667,-0.4148148148148148],[0.06041666666666667,-0.4148148148148148],[0.06041666666666667,-0.4148148148148148],[0.06041666666666667,-0.4148148148148148],[0.06041666666666667,-0.4148148148148148],[0.06041666666666667,-0.4148148148148148],[0.06041666666666667,-0.4148148148148148],[0.06041666666666667,-0.4148148148148148],[0.06041666666666667,-0.4148148148148148],[0.06041666666666667,-0.4148148148148148],[0.06041666666666667,-0.4148148148148148],[0.06041666666666667,-0.4148148148148148],[0.06041666666666667,-0.4148148148148148],[0.06041666666666667,-0.4148148148148148],[0.06041666666666667,-0.4148148148148148],[0.06041666666666667,-0.4148148148148148],[0.06041666666666667,-0.4148148148148148],[0.06041666666666667,-0.4148148148148148],[0.06041666666666667,-0.4148148148148148],[0.06041666666666667,-0.4148148148148148],[0.06041666666666667,-0.4148148148148148],[0.06041666666666667,-0.4148148148148148],[0.06041666666666667,-0.4148148148148148],[0.06041666666666667,-0.4148148148148148],[0.06041666666666667,-0.4148148148148148],[0.06041666666666667,-0.4148148148148148],[0.06041666666666667,-0.4148148148148148],[0.06041666666666667,-0.4148148148148148],[0.06041666666666667,-0.4148148148148148],[0.06041666666666667,-0.4148148148148148],[0.06041666666666667,-0.4148148148148148],[0.06041666666666667,-0.4148148148148148],[0.06041666666666667,-0.4148148148148148],[0.06041666666666667,-0.4148148148148148],[0.06041666666666667,-0.4148148148148148],[0.06041666666666667,-0.4148148148148148],[0.06041666666666667,-0.4148148148148148],[0.06041666666666667,-0.4148148148148148],[0.06041666666666667,-0.4148148148148148],[0.06041666666666667,-0.4148148148148148],[0.06041666666666667,-0.4148148148148148],[0.06041666666666667,-0.4148148148148148],[0.06041666666666667,-0.4148148148148148],[0.06041666666666667,-0.4148148148148148],[0.06041666666666667,-0.4148148148148148],[0.06041666666666667,-0.4148148148148148],[0.06041666666666667,-0.4148148148148148],[0.06041666666666667,-0.4148148148148148],[0.06041666666666667,-0.4148148148148148],[0.06041666666666667,-0.4148148148148148],[0.06041666666666667,-0.4148148148148148],[0.06041666666666667,-0.4148148148148148],[0.06041666666666667,-0.4148148148148148],[0.06041666666666667,-0.4148148148148148],[0.06041666666666667,-0.4148148148148148],[0.06041666666666667,-0.4148148148148148],[0.06041666666666667,-0.4148148148148148],[0.06041666666666667,-0.4148148148148148],[0.06041666666666667,-0.4148148148148148],[0.06041666666666667,-0.4148148148148148],[0.06041666666666667,-0.4148148148148148],[0.06041666666666667,-0.4148148148148148],[0.06041666666666667,-0.4148148148148148],[0.06041666666666667,-0.4148148148148148],[0.06041666666666667,-0.4148148148148148],[0.06041666666666667,-0.4148148148148148],[0.06041666666666667,-0.4148148148148148],[0.06041666666666667,-0.4148148148148148],[0.06041666666666667,-0.4148148148148148],[0.06041666666666667,-0.4148148148148148],[0.06041666666666667,-0.4148148148148148],[0.06041666666666667,-0.4148148148148148],[0.06041666666666667,-0.4148148148148148],[0.06041666666666667,-0.4148148148148148],[0.06041666666666667,-0.4148148148148148],[0.06041666666666667,-0.4148148148148148],[0.06041666666666667,-0.4148148148148148],[0.06041666666666667,-0.4185185185185185],[0.059375,-0.4222222222222222],[0.059375,-0.42407407407407405],[0.059375,-0.42777777777777776],[0.058333333333333334,-0.42962962962962964],[0.058333333333333334,-0.42962962962962964],[0.058333333333333334,-0.42962962962962964],[0.058333333333333334,-0.42962962962962964],[0.058333333333333334,-0.42962962962962964],[0.058333333333333334,-0.42962962962962964],[0.058333333333333334,-0.42962962962962964],[0.058333333333333334,-0.42962962962962964],[0.058333333333333334,-0.42962962962962964],[0.058333333333333334,-0.42962962962962964],[0.058333333333333334,-0.42962962962962964],[0.058333333333333334,-0.42962962962962964],[0.058333333333333334,-0.42962962962962964],[0.058333333333333334,-0.42962962962962964],[0.058333333333333334,-0.42962962962962964],[0.058333333333333334,-0.42962962962962964],[0.058333333333333334,-0.42962962962962964],[0.058333333333333334,-0.42962962962962964],[0.058333333333333334,-0.42962962962962964],[0.058333333333333334,-0.42962962962962964],[0.058333333333333334,-0.42962962962962964],[0.058333333333333334,-0.42962962962962964],[0.058333333333333334,-0.42962962962962964],[0.058333333333333334,-0.42962962962962964],[0.058333333333333334,-0.42962962962962964],[0.058333333333333334,-0.42962962962962964],[0.058333333333333334,-0.42962962962962964],[0.058333333333333334,-0.42962962962962964],[0.058333333333333334,-0.42962962962962964],[0.058333333333333334,-0.42962962962962964],[0.058333333333333334,-0.42962962962962964],[0.058333333333333334,-0.42962962962962964],[0.058333333333333334,-0.42962962962962964],[0.058333333333333334,-0.42962962962962964],[0.058333333333333334,-0.42962962962962964],[0.058333333333333334,-0.42962962962962964],[0.058333333333333334,-0.42962962962962964],[0.058333333333333334,-0.42962962962962964],[0.058333333333333334,-0.42962962962962964],[0.058333333333333334,-0.42962962962962964],[0.058333333333333334,-0.42962962962962964],[0.058333333333333334,-0.42962962962962964],[0.058333333333333334,-0.42962962962962964],[0.058333333333333334,-0.42962962962962964],[0.058333333333333334,-0.42962962962962964],[0.058333333333333334,-0.42962962962962964],[0.058333333333333334,-0.42962962962962964],[0.058333333333333334,-0.42962962962962964],[0.058333333333333334,-0.42962962962962964],[0.058333333333333334,-0.42962962962962964],[0.058333333333333334,-0.42962962962962964],[0.058333333333333334,-0.42962962962962964],[0.058333333333333334,-0.42962962962962964],[0.058333333333333334,-0.42962962962962964],[0.058333333333333334,-0.42962962962962964],[0.058333333333333334,-0.42962962962962964],[0.058333333333333334,-0.42962962962962964],[0.058333333333333334,-0.42962962962962964],[0.058333333333333334,-0.42962962962962964],[0.058333333333333334,-0.42962962962962964],[0.058333333333333334,-0.42962962962962964],[0.058333333333333334,-0.42962962962962964],[0.058333333333333334,-0.42962962962962964],[0.058333333333333334,-0.42962962962962964],[0.058333333333333334,-0.42962962962962964],[0.058333333333333334,-0.42962962962962964],[0.058333333333333334,-0.42962962962962964],[0.058333333333333334,-0.42962962962962964],[0.058333333333333334,-0.42962962962962964],[0.058333333333333334,-0.42962962962962964],[0.058333333333333334,-0.42962962962962964],[0.058333333333333334,-0.42962962962962964],[0.058333333333333334,-0.42962962962962964],[0.058333333333333334,-0.42962962962962964],[0.058333333333333334,-0.42962962962962964],[0.058333333333333334,-0.42962962962962964],[0.058333333333333334,-0.42962962962962964],[0.058333333333333334,-0.42962962962962964],[0.058333333333333334,-0.42962962962962964],[0.058333333333333334,-0.42962962962962964],[0.058333333333333334,-0.42962962962962964],[0.058333333333333334,-0.42962962962962964],[0.058333333333333334,-0.42962962962962964],[0.058333333333333334,-0.42962962962962964],[0.058333333333333334,-0.42962962962962964],[0.058333333333333334,-0.42962962962962964],[0.058333333333333334,-0.42962962962962964],[0.058333333333333334,-0.42962962962962964],[0.058333333333333334,-0.42962962962962964],[0.058333333333333334,-0.42962962962962964],[0.058333333333333334,-0.42962962962962964],[0.058333333333333334,-0.42962962962962964],[0.058333333333333334,-0.42962962962962964],[0.057291666666666664,-0.43148148148148147],[0.05520833333333333,-0.43148148148148147],[0.04375,-0.4203703703703704],[0.034375,-0.4111111111111111],[0.030208333333333334,-0.40370370370370373],[0.025,-0.3962962962962963],[0.021875,-0.3888888888888889],[0.011458333333333333,-0.36666666666666664],[0.005208333333333333,-0.3296296296296296],[0.005208333333333333,-0.25925925925925924],[0.005208333333333333,-0.17777777777777778],[-0.003125,-0.06296296296296296],[-0.00625,0.025925925925925925],[-0.00625,0.07777777777777778],[-0.00625,0.12037037037037036],[-0.00625,0.1537037037037037],[-0.00625,0.17407407407407408],[-0.008333333333333333,0.19444444444444445],[-0.011458333333333333,0.22592592592592592],[-0.016666666666666666,0.2611111111111111],[-0.020833333333333332,0.2833333333333333],[-0.021875,0.3055555555555556],[-0.026041666666666668,0.3296296296296296],[-0.030208333333333334,0.3537037037037037],[-0.03125,0.3685185185185185],[-0.03333333333333333,0.3814814814814815],[-0.035416666666666666,0.3907407407407407],[-0.035416666666666666,0.3925925925925926],[-0.035416666666666666,0.39444444444444443],[-0.035416666666666666,0.4],[-0.035416666666666666,0.4],[-0.035416666666666666,0.4],[-0.035416666666666666,0.4],[-0.035416666666666666,0.4],[-0.035416666666666666,0.4],[-0.035416666666666666,0.4],[-0.035416666666666666,0.4],[-0.035416666666666666,0.4],[-0.035416666666666666,0.4],[-0.035416666666666666,0.4],[-0.035416666666666666,0.4],[-0.035416666666666666,0.4],[-0.035416666666666666,0.4],[-0.035416666666666666,0.4],[-0.035416666666666666,0.4],[-0.035416666666666666,0.4],[-0.035416666666666666,0.4],[-0.035416666666666666,0.4],[-0.035416666666666666,0.4],[-0.035416666666666666,0.40185185185185185],[-0.035416666666666666,0.40185185185185185],[-0.035416666666666666,0.40185185185185185],[-0.035416666666666666,0.40185185185185185],[-0.035416666666666666,0.40185185185185185],[-0.035416666666666666,0.40185185185185185],[-0.035416666666666666,0.40185185185185185],[-0.035416666666666666,0.40185185185185185],[-0.035416666666666666,0.40185185185185185],[-0.035416666666666666,0.40185185185185185],[-0.035416666666666666,0.40185185185185185],[-0.035416666666666666,0.40185185185185185],[-0.035416666666666666,0.40185185185185185],[-0.035416666666666666,0.40185185185185185],[-0.035416666666666666,0.40185185185185185],[-0.035416666666666666,0.40185185185185185],[-0.035416666666666666,0.40185185185185185],[-0.035416666666666666,0.40185185185185185],[-0.035416666666666666,0.40185185185185185],[-0.035416666666666666,0.40185185185185185],[-0.035416666666666666,0.40185185185185185],[-0.035416666666666666,0.40185185185185185],[-0.035416666666666666,0.4],[-0.035416666666666666,0.39814814814814814],[-0.035416666666666666,0.3962962962962963],[-0.035416666666666666,0.3962962962962963],[-0.035416666666666666,0.3962962962962963],[-0.035416666666666666,0.3962962962962963],[-0.035416666666666666,0.39444444444444443],[-0.035416666666666666,0.39444444444444443],[-0.035416666666666666,0.3925925925925926],[-0.035416666666666666,0.3925925925925926],[-0.035416666666666666,0.3907407407407407],[-0.035416666666666666,0.3907407407407407],[-0.035416666666666666,0.3888888888888889],[-0.035416666666666666,0.3888888888888889],[-0.035416666666666666,0.3851851851851852],[-0.035416666666666666,0.3851851851851852],[-0.035416666666666666,0.3814814814814815],[-0.035416666666666666,0.37777777777777777],[-0.034375,0.37407407407407406],[-0.03333333333333333,0.37222222222222223],[-0.030208333333333334,0.362962962962963],[-0.026041666666666668,0.3574074074074074],[-0.01875,0.35185185185185186]]","[[-0.07135416666666666,0.19388888888888897],[-0.07135416666666666,0.19388888888888897],[-0.07135416666666666,0.19388888888888897],[-0.06489583333333329,0.21574074074074073],[-0.06489583333333329,0.21574074074074073],[-0.051041666666666666,0.21277777777777773],[-0.036354166666666646,0.21574074074074073],[-0.03250000000000005,0.25703703703703695],[-0.019583333333333286,0.3088888888888888],[0.010520833333333358,0.32629629629629636],[0.06447916666666664,0.32333333333333336],[0.11208333333333324,0.34388888888888897],[0.15499999999999994,0.36944444444444446],[0.22864583333333333,0.36500000000000005],[0.2672916666666666,0.35351851851851845],[0.29968750000000005,0.3427777777777778],[0.33125,0.32611111111111113],[0.3759375000000001,0.3098148148148147],[0.4036458333333333,0.2862962962962963],[0.4258333333333333,0.26185185185185184],[0.4088541666666667,0.2692592592592592],[0.4174999999999999,0.26592592592592595],[0.4261458333333332,0.2625925925925925],[0.4022916666666667,0.2711111111111111],[0.3784374999999999,0.2796296296296296],[0.3828125,0.27259259259259266],[0.39375,0.2755555555555555],[0.3948958333333332,0.2801851851851851],[0.40520833333333334,0.2737037037037036],[0.3810416666666666,0.3],[0.36083333333333345,0.29796296296296293],[0.3290625000000001,0.28648148148148156],[0.2972916666666668,0.275],[0.21677083333333325,0.23703703703703705],[0.21677083333333325,0.23703703703703705],[0.17145833333333324,0.2640740740740741],[0.1412499999999999,0.26962962962962966],[0.1412499999999999,0.26962962962962966],[0.1171875,0.26592592592592595],[0.06885416666666658,0.28277777777777785],[0.011354166666666643,0.31074074074074065],[0.005729166666666666,0.2764814814814814],[0.011458333333333333,0.259074074074074],[0.015416666666666618,0.25092592592592594],[0.019375000000000024,0.24277777777777781],[0.07156250000000004,0.25314814814814823],[0.12427083333333329,0.19814814814814816],[0.11822916666666666,0.2168518518518519],[0.08937499999999995,0.2390740740740741],[0.10260416666666666,0.22537037037037044],[0.11583333333333339,0.2116666666666666],[0.08364583333333328,0.2462962962962963],[0.0626041666666667,0.28111111111111103],[0.05499999999999995,0.2579629629629629],[0.04479166666666667,0.2598148148148147],[0.04489583333333336,0.2788888888888889],[0.01416666666666669,0.3177777777777778],[0.021979166666666692,0.3088888888888888],[0.03989583333333328,0.2957407407407408],[0.03989583333333328,0.2957407407407408],[0.019270833333333334,0.27240740740740743],[0.0296875,0.22740740740740734],[0.06937499999999991,0.1985185185185186],[0.10135416666666662,0.16148148148148156],[0.12072916666666676,0.1712962962962963],[0.13718750000000005,0.14074074074074075],[0.13718750000000005,0.14074074074074075],[0.14197916666666663,0.16074074074074066],[0.1544791666666666,0.14685185185185176],[0.18958333333333333,0.13518518518518519],[0.19041666666666662,0.14351851851851852],[0.20541666666666672,0.14092592592592595],[0.18937499999999996,0.15999999999999995],[0.13739583333333344,0.1911111111111112],[0.10583333333333324,0.2514814814814814],[0.10072916666666672,0.27870370370370373],[0.06770833333333333,0.3648148148148148],[0.06739583333333338,0.3655555555555555],[0.05447916666666662,0.38074074074074077],[0.0012500000000000473,0.39888888888888885],[0.0009374999999999763,0.3998148148148148],[-0.004999999999999952,0.40370370370370373],[0.0037500000000000237,0.39888888888888885],[0.015625,0.40851851851851856],[-0.011562500000000024,0.39462962962962966],[-0.025833333333333285,0.39962962962962956],[-0.006666666666666643,0.3611111111111111],[-0.006666666666666643,0.3611111111111111],[-0.007604166666666619,0.36314814814814816],[0.011562500000000024,0.3655555555555555],[0.011562500000000024,0.3655555555555555],[0.030208333333333334,0.369074074074074],[0.02947916666666662,0.36055555555555563],[0.02947916666666662,0.36055555555555563],[0.042916666666666714,0.4027777777777778],[0.042916666666666714,0.4027777777777778],[0.042604166666666644,0.4281481481481482],[0.042604166666666644,0.4281481481481482],[0.05239583333333329,0.43407407407407406],[0.06520833333333335,0.444074074074074],[0.06520833333333335,0.444074074074074],[0.05322916666666669,0.4638888888888889],[0.04635416666666667,0.4844444444444445],[0.05645833333333338,0.49314814814814806],[0.033854166666666664,0.48518518518518516],[0.044375000000000026,0.5016666666666666],[0.05562499999999997,0.5274074074074073],[0.04541666666666669,0.5127777777777778],[0.029166666666666667,0.5122222222222222],[0.009062500000000048,0.5272222222222223],[0.016875000000000046,0.5416666666666666],[-0.044062499999999956,0.5729629629629629],[-0.11010416666666671,0.6035185185185185],[-0.14447916666666671,0.6131481481481482],[-0.16625000000000004,0.6390740740740741],[-0.2203125,0.65],[-0.29583333333333334,0.6618518518518518],[-0.32791666666666663,0.6616666666666666],[-0.35489583333333335,0.6729629629629629],[-0.3885416666666667,0.6744444444444445],[-0.4379166666666666,0.6746296296296296],[-0.4110416666666667,0.6550000000000001],[-0.3841666666666666,0.6353703703703704],[-0.4192708333333333,0.6390740740740741],[-0.45437500000000003,0.6427777777777778],[-0.4548958333333334,0.6416666666666667],[-0.43395833333333333,0.6396296296296295],[-0.46197916666666666,0.6377777777777778],[-0.4891666666666667,0.6183333333333333],[-0.5069791666666666,0.6038888888888889],[-0.5226041666666666,0.5827777777777778],[-0.5345833333333334,0.5774074074074074],[-0.5465625000000001,0.572037037037037],[-0.5371875,0.5131481481481482],[-0.5565625,0.48777777777777775],[-0.5786458333333333,0.4348148148148147],[-0.5997916666666666,0.36740740740740735],[-0.5983333333333333,0.3514814814814814],[-0.5977083333333333,0.3531481481481482],[-0.5995833333333334,0.34222222222222215],[-0.5995833333333334,0.34222222222222215],[-0.5864583333333333,0.330925925925926],[-0.5864583333333333,0.330925925925926],[-0.5746875,0.3072222222222222],[-0.5629166666666666,0.28351851851851856],[-0.5704166666666667,0.3051851851851851],[-0.5491666666666667,0.2933333333333333],[-0.558125,0.31666666666666665],[-0.5696875,0.3494444444444445],[-0.5667708333333333,0.35111111111111115],[-0.5620833333333334,0.35407407407407415],[-0.5332291666666666,0.3301851851851851],[-0.5498958333333334,0.3266666666666666],[-0.5338541666666666,0.33129629629629626],[-0.5509375,0.33648148148148155],[-0.45979166666666665,0.4262962962962964],[-0.371875,0.522962962962963],[-0.2553125,0.6111111111111112],[-0.14718749999999994,0.680925925925926],[-0.04833333333333331,0.7574074074074074],[0.04874999999999995,0.8325925925925927],[0.11770833333333333,0.9468518518518517],[0.2150000000000001,1.0477777777777777],[0.2530208333333334,1.1275925925925927],[0.3241666666666667,1.2068518518518518],[0.24770833333333328,1.1831481481481483],[0.20697916666666671,1.1305555555555555],[0.1203125,1.0644444444444443],[0.06593749999999995,1.0088888888888887],[-0.014999999999999977,0.9524074074074074],[-0.09593750000000002,0.8959259259259258],[-0.1577083333333333,0.7955555555555556],[-0.20499999999999996,0.6933333333333332],[-0.26208333333333333,0.5805555555555556],[-0.31916666666666665,0.4677777777777778],[-0.3228125,0.37481481481481477],[-0.3589583333333334,0.30388888888888893],[-0.36531250000000004,0.2257407407407407],[-0.39385416666666667,0.1603703703703704],[-0.38229166666666664,0.0668518518518519],[-0.37072916666666667,-0.026666666666666623],[-0.3706249999999999,-0.10055555555555558],[-0.385,-0.17259259259259258],[-0.38562500000000005,-0.22314814814814815],[-0.3862499999999999,-0.2737037037037037],[-0.4,-0.3111111111111111],[-0.3914583333333333,-0.33925925925925926],[-0.37822916666666667,-0.37351851851851847],[-0.4054166666666667,-0.412962962962963],[-0.42239583333333336,-0.43074074074074076],[-0.43937499999999996,-0.4485185185185185],[-0.40593750000000006,-0.39666666666666667],[-0.37374999999999997,-0.355],[-0.32999999999999996,-0.302962962962963],[-0.2877083333333334,-0.2522222222222222],[-0.23510416666666673,-0.21740740740740735],[-0.20479166666666668,-0.19185185185185188],[-0.14968750000000006,-0.13629629629629633],[-0.06864583333333331,-0.07314814814814814],[-0.0046875,-0.006296296296296254],[0.04593750000000003,0.06777777777777783],[0.06864583333333343,0.03185185185185194],[0.09145833333333328,0.02111111111111107],[0.07937500000000004,0.02555555555555547],[0.06875,0.03129629629629625],[0.0890625,0.018888888888888972],[0.09395833333333338,0.03629629629629634],[0.07489583333333343,0.03092592592592601],[0.0703125,0.023148148148148147],[0.049687500000000044,0.01185185185185181],[0.049687500000000044,0.01185185185185181],[0.04239583333333338,-0.006666666666666709],[0.04239583333333338,-0.006666666666666709],[0.03979166666666671,0.042407407407407366],[0.03802083333333333,0.034444444444444486],[0.03802083333333333,0.034444444444444486],[0.03333333333333333,0.03462962962962971],[0.03333333333333333,0.03462962962962971],[0.042499999999999954,0.019444444444444445],[0.0017708333333333807,0.04277777777777782],[0.0017708333333333807,0.04277777777777782],[0.018020833333333285,0.026111111111111154],[0.018020833333333285,0.026111111111111154],[0.03312499999999995,0.028518518518518478],[0.04541666666666669,0.015000000000000043],[0.052291666666666715,0.009999999999999959],[0.05916666666666662,0.005000000000000084],[0.03760416666666669,-0.02296296296296292],[0.016354166666666715,-0.008888888888888804],[0.008645833333333287,-0.0448148148148149],[-0.010625000000000048,-0.07148148148148152],[-0.0020833333333333333,-0.10777777777777775],[-0.035104166666666714,-0.13388888888888892],[-0.02374999999999995,-0.12685185185185185],[-0.009583333333333381,-0.10388888888888893],[0.025729166666666713,-0.07740740740740742],[0.06104166666666669,-0.05092592592592592],[0.1053124999999999,-0.04129629629629621],[0.14958333333333323,-0.03166666666666671],[0.2099999999999999,-0.02759259259259255],[0.26624999999999993,-0.004629629629629629],[0.29562499999999997,0.023333333333333376],[0.35572916666666665,0.049074074074074076],[0.30322916666666655,0.0816666666666667],[0.26687500000000003,0.11722222222222214],[0.2428124999999999,0.15018518518518523],[0.19479166666666667,0.17537037037037045],[0.15572916666666667,0.17037037037037037],[0.11364583333333324,0.1685185185185185],[0.05135416666666662,0.16925925925925922],[-0.009062500000000048,0.15722222222222218],[-0.09500000000000004,0.10314814814814824],[-0.21166666666666673,0.05129629629629638],[-0.2741666666666667,-0.030555555555555555],[-0.36749999999999994,-0.13333333333333333],[-0.49145833333333333,-0.23277777777777775],[-0.5784374999999999,-0.31592592592592594],[-0.6683333333333333,-0.36870370370370376],[-0.7552083333333334,-0.42462962962962963],[-0.8451041666666667,-0.4975925925925926],[-0.935,-0.5705555555555556],[-0.9389583333333333,-0.5605555555555556],[-0.9429166666666667,-0.5505555555555556],[-0.9457291666666666,-0.5459259259259259],[-0.9338541666666667,-0.5233333333333334],[-0.9040625,-0.5194444444444445],[-0.8872916666666666,-0.524074074074074],[-0.8551041666666667,-0.5398148148148149],[-0.8229166666666666,-0.5555555555555556],[-0.7988541666666666,-0.5135185185185185],[-0.7919791666666666,-0.477962962962963],[-0.8205208333333334,-0.5475925925925925],[-0.8490625,-0.6172222222222222],[-0.8569791666666667,-0.6609259259259259],[-0.8648958333333333,-0.7046296296296296],[-0.87875,-0.6946296296296297],[-0.9025,-0.7087037037037037],[-0.9271875,-0.6938888888888889],[-0.950625,-0.6816666666666668],[-0.9810416666666666,-0.6318518518518518],[-0.9864583333333333,-0.5731481481481482],[-0.9442708333333333,-0.32388888888888884],[-0.8933333333333333,-0.056851851851851834],[-0.7594791666666667,0.18518518518518517],[-0.6364583333333333,0.40851851851851856],[-0.49927083333333333,0.5861111111111111],[-0.35750000000000004,0.7794444444444444],[-0.2757291666666667,0.9831481481481483],[-0.2757291666666667,0.9831481481481483],[-0.22104166666666672,1.1712962962962963],[-0.13322916666666665,1.3064814814814816],[-0.07645833333333331,1.4292592592592592],[-0.06791666666666671,1.4198148148148149],[-0.06749999999999995,1.3464814814814814],[-0.1546875,1.2555555555555555],[-0.24989583333333332,1.2035185185185187],[-0.3628124999999999,1.1483333333333332],[-0.4639583333333333,1.1149999999999998],[-0.5216666666666667,1.064074074074074],[-0.5615625000000001,0.9798148148148147],[-0.5922916666666667,0.905925925925926],[-0.5872916666666667,0.8331481481481481],[-0.5822916666666667,0.7603703703703704],[-0.5864583333333333,0.7172222222222221],[-0.6289583333333333,0.6485185185185186],[-0.6194791666666667,0.5998148148148148],[-0.5488541666666666,0.5303703703703704],[-0.4709375,0.4553703703703703],[-0.39302083333333326,0.3803703703703703],[-0.3109375,0.35537037037037034],[-0.23802083333333332,0.3199999999999999],[-0.16416666666666668,0.28888888888888886],[-0.09031250000000005,0.2577777777777779],[-0.0014583333333333095,0.22166666666666676],[0.11124999999999995,0.23074074074074077],[0.1775000000000001,0.19314814814814807],[0.24520833333333342,0.19796296296296292],[0.2904166666666666,0.18777777777777774],[0.2933333333333332,0.16111111111111112],[0.30010416666666656,0.15055555555555547],[0.3216666666666666,0.14092592592592595],[0.3185416666666666,0.12907407407407415],[0.34343750000000006,0.12888888888888894],[0.3455208333333334,0.1418518518518519],[0.3589583333333332,0.1455555555555556],[0.3662499999999999,0.14074074074074075],[0.321875,0.12092592592592584],[0.2631249999999999,0.12981481481481486],[0.24666666666666662,0.1551851851851851],[0.23322916666666677,0.1737037037037036],[0.23322916666666677,0.1737037037037036],[0.2321875000000001,0.21296296296296297],[0.22906250000000009,0.25999999999999995],[0.22906250000000009,0.25999999999999995],[0.20427083333333323,0.3001851851851852],[0.20427083333333323,0.3001851851851852],[0.19979166666666662,0.34592592592592586],[0.20968749999999994,0.3792592592592592],[0.20968749999999994,0.3792592592592592],[0.24208333333333343,0.4125925925925925],[0.24208333333333343,0.4125925925925925],[0.22552083333333334,0.4385185185185184],[0.21281249999999996,0.48203703703703693],[0.22916666666666666,0.4951851851851851],[0.24249999999999997,0.5005555555555554],[0.25062499999999993,0.505925925925926],[0.28187499999999993,0.49796296296296294],[0.2690624999999999,0.47740740740740734],[0.2522916666666667,0.4596296296296297],[0.20947916666666658,0.45388888888888895],[0.16218750000000004,0.43925925925925935],[0.115625,0.3701851851851851],[0.0775000000000001,0.22555555555555548],[0.05489583333333338,0.1287037037037037],[0.05489583333333338,0.1287037037037037],[0.03458333333333338,0.07592592592592592],[-0.014479166666666644,-0.01703703703703712],[-0.06312500000000003,-0.12759259259259256],[-0.07791666666666662,-0.19240740740740736],[-0.11020833333333328,-0.2442592592592592],[-0.13083333333333336,-0.2957407407407407],[-0.14072916666666668,-0.35703703703703704],[-0.11333333333333329,-0.36314814814814816],[-0.07947916666666661,-0.32592592592592595],[-0.028437499999999952,-0.2977777777777778],[-0.03708333333333336,-0.3490740740740741],[-0.03114583333333331,-0.35703703703703704],[-0.05375000000000003,-0.3512962962962963],[-0.06312500000000003,-0.3698148148148148],[-0.022083333333333382,-0.4087037037037037],[0.01895833333333338,-0.4475925925925926],[0.009375,-0.4196296296296297],[0.009375,-0.4196296296296297],[-0.007083333333333286,-0.4014814814814815],[-0.007083333333333286,-0.4014814814814815],[0.004999999999999952,-0.4209259259259259],[-0.04375,-0.44111111111111106],[-0.04468749999999998,-0.41203703703703703],[-0.04677083333333331,-0.41333333333333333],[-0.03458333333333338,-0.4009259259259259],[-0.03145833333333338,-0.40907407407407403],[-0.03958333333333333,-0.40018518518518525],[-0.04770833333333328,-0.3905555555555555],[-0.04770833333333328,-0.3905555555555555],[-0.021145833333333287,-0.4353703703703704],[0.01083333333333331,-0.45129629629629625],[0.011249999999999953,-0.46796296296296297],[0.006562499999999953,-0.49000000000000005],[0.01072916666666662,-0.5212962962962963],[0.02947916666666662,-0.5374074074074073],[0.049583333333333354,-0.509074074074074],[0.06052083333333336,-0.49296296296296294],[0.049791666666666616,-0.48648148148148146],[0.030624999999999975,-0.44166666666666665],[0.018124999999999978,-0.3755555555555556],[-0.002499999999999976,-0.3257407407407407],[-0.01572916666666669,-0.24462962962962967],[-0.0020833333333333333,-0.2183333333333333],[0.01229166666666662,-0.19666666666666666],[-0.01260416666666669,-0.18074074074074079],[-0.035208333333333286,-0.20425925925925928],[-0.03135416666666669,-0.2175925925925926],[-0.027499999999999976,-0.2309259259259259],[-0.011562500000000024,-0.2718518518518519],[0.00302083333333331,-0.30351851851851847],[0.019166666666666644,-0.35351851851851845],[0.035312499999999976,-0.4035185185185185],[-0.0002083333333333807,-0.37962962962962965],[-0.03572916666666662,-0.3557407407407408],[-0.04010416666666667,-0.35833333333333334],[-0.024895833333333308,-0.367037037037037],[-0.05666666666666664,-0.33351851851851855],[-0.08843749999999997,-0.3],[-0.09281250000000002,-0.30648148148148147],[-0.08864583333333335,-0.2962962962962963],[-0.08718750000000004,-0.30185185185185187],[-0.08572916666666662,-0.3074074074074074],[-0.05687500000000002,-0.3403703703703704],[-0.028125,-0.3731481481481482],[-0.021979166666666692,-0.3587037037037037],[-0.025312499999999953,-0.34685185185185186],[0.0046875,-0.37907407407407406],[0.034687499999999954,-0.4112962962962963],[0.034895833333333334,-0.4179629629629629],[0.02791666666666662,-0.4505555555555556],[0.033958333333333354,-0.4524074074074074],[0.04520833333333331,-0.4618518518518518],[0.04083333333333338,-0.4609259259259259],[0.03583333333333331,-0.44592592592592595],[0.05614583333333331,-0.4494444444444444],[0.06510416666666667,-0.4514814814814815],[0.0546875,-0.4559259259259259],[0.04635416666666667,-0.4570370370370371]]","[[-0.07135416666666666,0.19388888888888897,0.00019999999995690132],[-0.07135416666666666,0.19388888888888897,0.03639999999990806],[-0.07135416666666666,0.19388888888888897,0.04359999999986286],[-0.06489583333333329,0.21574074074074073,0.06039999999990897],[-0.06489583333333329,0.21574074074074073,0.07700000000000529],[-0.051041666666666666,0.21277777777777773,0.09379999999981692],[-0.036354166666666646,0.21574074074074073,0.11279999999981527],[-0.03250000000000005,0.25703703703703695,0.1290999999998661],[-0.019583333333333286,0.3088888888888888,0.14369999999995287],[0.010520833333333358,0.32629629629629636,0.16049999999999898],[0.06447916666666664,0.32333333333333336,0.17689999999991102],[0.11208333333333324,0.34388888888888897,0.194500000000005],[0.15499999999999994,0.36944444444444446,0.21029999999981897],[0.22864583333333333,0.36500000000000005,0.22719999999995366],[0.2672916666666666,0.35351851851851845,0.2436999999999543],[0.29968750000000005,0.3427777777777778,0.2603999999999118],[0.33125,0.32611111111111113,0.277000000000001],[0.3759375000000001,0.3098148148148147,0.29400000000000404],[0.4036458333333333,0.2862962962962963,0.3102999999998133],[0.4258333333333333,0.26185185185185184,0.32750000000000057],[0.4088541666666667,0.2692592592592592,0.34359999999986],[0.4174999999999999,0.26592592592592595,0.36029999999981754],[0.4261458333333332,0.2625925925925925,0.37719999999995935],[0.4022916666666667,0.2711111111111111,0.39529999999981413],[0.3784374999999999,0.2796296296296296,0.4103999999999104],[0.3828125,0.27259259259259266,0.4270999999998608],[0.39375,0.2755555555555555,0.44359999999986144],[0.3948958333333332,0.2801851851851851,0.46029999999981897],[0.40520833333333334,0.2737037037037036,0.47700000000000387],[0.3810416666666666,0.3,0.4966999999999544],[0.36083333333333345,0.29796296296296293,0.5128999999999095],[0.3290625000000001,0.28648148148148156,0.5271999999999579],[0.2972916666666668,0.275,0.5437999999998198],[0.21677083333333325,0.23703703703703705,0.5623999999999114],[0.21677083333333325,0.23703703703703705,0.5770999999998594],[0.17145833333333324,0.2640740740740741,0.5936999999999557],[0.1412499999999999,0.26962962962962966,0.6132999999998177],[0.1412499999999999,0.26962962962962966,0.6270000000000024],[0.1171875,0.26592592592592595,0.6436999999999529],[0.06885416666666658,0.28277777777777785,0.6602999999998147],[0.011354166666666643,0.31074074074074065,0.676899999999911],[0.005729166666666666,0.2764814814814814,0.6958999999999094],[0.011458333333333333,0.259074074074074,0.7116999999999578],[0.015416666666666618,0.25092592592592594,0.7270999999998651],[0.019375000000000024,0.24277777777777781,0.7436999999999543],[0.07156250000000004,0.25314814814814823,0.7602999999998161],[0.12427083333333329,0.19814814814814816,0.777000000000001],[0.11822916666666666,0.2168518518518519,0.7944999999999993],[0.08937499999999995,0.2390740740740741,0.8107999999998157],[0.10260416666666666,0.22537037037037044,0.8270000000000053],[0.11583333333333339,0.2116666666666666,0.8437999999998169],[0.08364583333333328,0.2462962962962963,0.8603999999999061],[0.0626041666666667,0.28111111111111103,0.8795999999998614],[0.05499999999999995,0.2579629629629629,0.8942999999998165],[0.04479166666666667,0.2598148148148147,0.9102999999998147],[0.04489583333333336,0.2788888888888889,0.9310000000000045],[0.01416666666666669,0.3177777777777778,0.9471999999999525],[0.021979166666666692,0.3088888888888888,0.961799999999819],[0.03989583333333328,0.2957407407407408,0.9778999999999058],[0.03989583333333328,0.2957407407407408,0.9937999999998155],[0.019270833333333334,0.27240740740740743,1.0103999999999118],[0.0296875,0.22740740740740734,1.0275999999998646],[0.06937499999999991,0.1985185185185186,1.0436999999999585],[0.10135416666666662,0.16148148148148156,1.060399999999909],[0.12072916666666676,0.1712962962962963,1.0770000000000053],[0.13718750000000005,0.14074074074074075,1.095299999999817],[0.13718750000000005,0.14074074074074075,1.1132999999998177],[0.14197916666666663,0.16074074074074066,1.1270000000000024],[0.1544791666666666,0.14685185185185176,1.146099999999862],[0.18958333333333333,0.13518518518518519,1.1627999999998195],[0.19041666666666662,0.14351851851851852,1.177799999999813],[0.20541666666666672,0.14092592592592595,1.196899999999907],[0.18937499999999996,0.15999999999999995,1.2152999999998144],[0.13739583333333344,0.1911111111111112,1.2305999999998605],[0.10583333333333324,0.2514814814814814,1.2485],[0.10072916666666672,0.27870370370370373,1.2641999999999527],[0.06770833333333333,0.3648148148148148,1.2817999999998193],[0.06739583333333338,0.3655555555555555,1.2972999999998152],[0.05447916666666662,0.38074074074074077,1.3145000000000024],[0.0012500000000000473,0.39888888888888885,1.3320000000000007],[0.0009374999999999763,0.3998148148148148,1.347599999999865],[-0.004999999999999952,0.40370370370370373,1.3625000000000043],[0.0037500000000000237,0.39888888888888885,1.3770000000000024],[0.015625,0.40851851851851856,1.396699999999953],[-0.011562500000000024,0.39462962962962966,1.4147999999998149],[-0.025833333333333285,0.39962962962962956,1.4303999999999064],[-0.006666666666666643,0.3611111111111111,1.4457999999998137],[-0.006666666666666643,0.3611111111111111,1.4603999999999075],[-0.007604166666666619,0.36314814814814816,1.4770000000000039],[0.011562500000000024,0.3655555555555555,1.4988999999999066],[0.011562500000000024,0.3655555555555555,1.5102999999998161],[0.030208333333333334,0.369074074074074,1.527000000000001],[0.02947916666666662,0.36055555555555563,1.549599999999863],[0.02947916666666662,0.36055555555555563,1.5605000000000047],[0.042916666666666714,0.4027777777777778,1.5770000000000053],[0.042916666666666714,0.4027777777777778,1.593799999999817],[0.042604166666666644,0.4281481481481482,1.6103999999999061],[0.042604166666666644,0.4281481481481482,1.6308999999999116],[0.05239583333333329,0.43407407407407406,1.6436999999999529],[0.06520833333333335,0.444074074074074,1.6681999999999562],[0.06520833333333335,0.444074074074074,1.6769999999999996],[0.05322916666666669,0.4638888888888889,1.6935999999998614],[0.04635416666666667,0.4844444444444445,1.7140000000000057],[0.05645833333333338,0.49314814814814806,1.7289999999999992],[0.033854166666666664,0.48518518518518516,1.7442999999998179],[0.044375000000000026,0.5016666666666666,1.7602999999998161],[0.05562499999999997,0.5274074074074073,1.7770999999998622],[0.04541666666666669,0.5127777777777778,1.7945999999998605],[0.029166666666666667,0.5122222222222222,1.8102999999998133],[0.009062500000000048,0.5272222222222223,1.8270000000000053],[0.016875000000000046,0.5416666666666666,1.8436999999999557],[-0.044062499999999956,0.5729629629629629,1.8603999999999061],[-0.11010416666666671,0.6035185185185185,1.8770000000000024],[-0.14447916666666671,0.6131481481481482,1.8950000000000031],[-0.16625000000000004,0.6390740740740741,1.9103999999999104],[-0.2203125,0.65,1.9269999999999996],[-0.29583333333333334,0.6618518518518518,1.9448999999999117],[-0.32791666666666663,0.6616666666666666,1.960299999999819],[-0.35489583333333335,0.6729629629629629,1.9768999999999082],[-0.3885416666666667,0.6744444444444445,1.9936999999999543],[-0.4379166666666666,0.6746296296296296,2.010299999999816],[-0.4110416666666667,0.6550000000000001,2.027000000000001],[-0.3841666666666666,0.6353703703703704,2.043599999999863],[-0.4192708333333333,0.6390740740740741,2.0602999999998133],[-0.45437500000000003,0.6427777777777778,2.0770000000000053],[-0.4548958333333334,0.6416666666666667,2.0936999999999557],[-0.43395833333333333,0.6396296296296295,2.110599999999863],[-0.46197916666666666,0.6377777777777778,2.1270000000000024],[-0.4891666666666667,0.6183333333333333,2.1435999999998643],[-0.5069791666666666,0.6038888888888889,2.1602999999998147],[-0.5226041666666666,0.5827777777777778,2.1769999999999996],[-0.5345833333333334,0.5774074074074074,2.1950999999998615],[-0.5465625000000001,0.572037037037037,2.2101999999999578],[-0.5371875,0.5131481481481482,2.227000000000004],[-0.5565625,0.48777777777777775,2.2435999999998657],[-0.5786458333333333,0.4348148148148147,2.260299999999816],[-0.5997916666666666,0.36740740740740735,2.2788999999999078],[-0.5983333333333333,0.3514814814814814,2.2944999999999993],[-0.5977083333333333,0.3531481481481482,2.3105000000000047],[-0.5995833333333334,0.34222222222222215,2.3270999999998594],[-0.5995833333333334,0.34222222222222215,2.351299999999817],[-0.5864583333333333,0.330925925925926,2.367399999999911],[-0.5864583333333333,0.330925925925926,2.3770000000000024],[-0.5746875,0.3072222222222222,2.393799999999814],[-0.5629166666666666,0.28351851851851856,2.4103999999999104],[-0.5704166666666667,0.3051851851851851,2.426899999999911],[-0.5491666666666667,0.2933333333333333,2.4435999999998614],[-0.558125,0.31666666666666665,2.4603999999999075],[-0.5696875,0.3494444444444445,2.4771999999999537],[-0.5667708333333333,0.35111111111111115,2.4936999999999543],[-0.5620833333333334,0.35407407407407415,2.510299999999816],[-0.5332291666666666,0.3301851851851851,2.527000000000001],[-0.5498958333333334,0.3266666666666666,2.543599999999863],[-0.5338541666666666,0.33129629629629626,2.560399999999909],[-0.5509375,0.33648148148148155,2.5770000000000053],[-0.45979166666666665,0.4262962962962964,2.597199999999958],[-0.371875,0.522962962962963,2.610599999999863],[-0.2553125,0.6111111111111112,2.6270000000000024],[-0.14718749999999994,0.680925925925926,2.643699999999953],[-0.04833333333333331,0.7574074074074074,2.6602999999998147],[0.04874999999999995,0.8325925925925927,2.6769999999999996],[0.11770833333333333,0.9468518518518517,2.693699999999957],[0.2150000000000001,1.0477777777777777,2.710699999999953],[0.2530208333333334,1.1275925925925927,2.727000000000004],[0.3241666666666667,1.2068518518518518,2.7435999999998657],[0.24770833333333328,1.1831481481481483,2.760299999999816],[0.20697916666666671,1.1305555555555555,2.777000000000001],[0.1203125,1.0644444444444443,2.7943999999999107],[0.06593749999999995,1.0088888888888887,2.8102999999998133],[-0.014999999999999977,0.9524074074074074,2.8270000000000053],[-0.09593750000000002,0.8959259259259258,2.84359999999986],[-0.1577083333333333,0.7955555555555556,2.8602999999998175],[-0.20499999999999996,0.6933333333333332,2.8768999999999068],[-0.26208333333333333,0.5805555555555556,2.8941999999999553],[-0.31916666666666665,0.4677777777777778,2.9102999999998147],[-0.3228125,0.37481481481481477,2.9269999999999996],[-0.3589583333333334,0.30388888888888893,2.9435999999998614],[-0.36531250000000004,0.2257407407407407,2.960299999999819],[-0.39385416666666667,0.1603703703703704,2.976899999999908],[-0.38229166666666664,0.0668518518518519,2.9936999999999543],[-0.37072916666666667,-0.026666666666666623,3.010299999999816],[-0.3706249999999999,-0.10055555555555558,3.028500000000001],[-0.385,-0.17259259259259258,3.0450000000000017],[-0.38562500000000005,-0.22314814814814815,3.0602999999998133],[-0.3862499999999999,-0.2737037037037037,3.0770999999998594],[-0.4,-0.3111111111111111,3.097399999999908],[-0.3914583333333333,-0.33925925925925926,3.1127999999998153],[-0.37822916666666667,-0.37351851851851847,3.1270000000000024],[-0.4054166666666667,-0.412962962962963,3.1435999999998643],[-0.42239583333333336,-0.43074074074074076,3.1603999999999104],[-0.43937499999999996,-0.4485185185185185,3.1769999999999996],[-0.40593750000000006,-0.39666666666666667,3.193699999999957],[-0.37374999999999997,-0.355,3.2107999999998142],[-0.32999999999999996,-0.302962962962963,3.227000000000004],[-0.2877083333333334,-0.2522222222222222,3.2435999999998657],[-0.23510416666666673,-0.21740740740740735,3.260299999999816],[-0.20479166666666668,-0.19185185185185188,3.277000000000001],[-0.14968750000000006,-0.13629629629629633,3.293599999999863],[-0.06864583333333331,-0.07314814814814814,3.3102999999998133],[-0.0046875,-0.006296296296296254,3.3275000000000006],[0.04593750000000003,0.06777777777777783,3.343500000000006],[0.06864583333333343,0.03185185185185194,3.360399999999906],[0.09145833333333328,0.02111111111111107,3.3768999999999068],[0.07937500000000004,0.02555555555555547,3.3935999999998643],[0.06875,0.03129629629629625,3.4102999999998147],[0.0890625,0.018888888888888972,3.4269999999999996],[0.09395833333333338,0.03629629629629634,3.443699999999957],[0.07489583333333343,0.03092592592592601,3.4601999999999578],[0.0703125,0.023148148148148147,3.476899999999908],[0.049687500000000044,0.01185185185185181,3.4941999999999567],[0.049687500000000044,0.01185185185185181,3.510299999999816],[0.04239583333333338,-0.006666666666666709,3.527000000000001],[0.04239583333333338,-0.006666666666666709,3.5436999999999585],[0.03979166666666671,0.042407407407407366,3.560399999999909],[0.03802083333333333,0.034444444444444486,3.582799999999814],[0.03802083333333333,0.034444444444444486,3.593799999999817],[0.03333333333333333,0.03462962962962971,3.6102999999998175],[0.03333333333333333,0.03462962962962971,3.6270000000000024],[0.042499999999999954,0.019444444444444445,3.6435999999998643],[0.0017708333333333807,0.04277777777777782,3.6667999999998173],[0.0017708333333333807,0.04277777777777782,3.6769999999999996],[0.018020833333333285,0.026111111111111154,3.6937999999998183],[0.018020833333333285,0.026111111111111154,3.710299999999819],[0.03312499999999995,0.028518518518518478,3.726899999999908],[0.04541666666666669,0.015000000000000043,3.7436999999999543],[0.052291666666666715,0.009999999999999959,3.760199999999955],[0.05916666666666662,0.005000000000000084,3.780399999999908],[0.03760416666666669,-0.02296296296296292,3.7953999999999084],[0.016354166666666715,-0.008888888888888804,3.8102999999998133],[0.008645833333333287,-0.0448148148148149,3.8270000000000053],[-0.010625000000000048,-0.07148148148148152,3.84359999999986],[-0.0020833333333333333,-0.10777777777777775,3.860399999999906],[-0.035104166666666714,-0.13388888888888892,3.8770000000000024],[-0.02374999999999995,-0.12685185185185185,3.894399999999912],[-0.009583333333333381,-0.10388888888888893,3.9101999999999535],[0.025729166666666713,-0.07740740740740742,3.926899999999911],[0.06104166666666669,-0.05092592592592592,3.943699999999957],[0.1053124999999999,-0.04129629629629621,3.960299999999819],[0.14958333333333323,-0.03166666666666671,3.977000000000004],[0.2099999999999999,-0.02759259259259255,3.9943999999999065],[0.26624999999999993,-0.004629629629629629,4.010299999999816],[0.29562499999999997,0.023333333333333376,4.026899999999912],[0.35572916666666665,0.049074074074074076,4.046199999999956],[0.30322916666666655,0.0816666666666667,4.0606999999999545],[0.26687500000000003,0.11722222222222214,4.077099999999859],[0.2428124999999999,0.15018518518518523,4.097500000000004],[0.19479166666666667,0.17537037037037045,4.114199999999954],[0.15572916666666667,0.17037037037037037,4.129199999999955],[0.11364583333333324,0.1685185185185185,4.144399999999912],[0.05135416666666662,0.16925925925925922,4.1601999999999535],[-0.009062500000000048,0.15722222222222218,4.1771999999999565],[-0.09500000000000004,0.10314814814814824,4.193699999999957],[-0.21166666666666673,0.05129629629629638,4.210299999999819],[-0.2741666666666667,-0.030555555555555555,4.227000000000004],[-0.36749999999999994,-0.13333333333333333,4.243599999999866],[-0.49145833333333333,-0.23277777777777775,4.260299999999816],[-0.5784374999999999,-0.31592592592592594,4.276899999999912],[-0.6683333333333333,-0.36870370370370376,4.293599999999863],[-0.7552083333333334,-0.42462962962962963,4.310299999999813],[-0.8451041666666667,-0.4975925925925926,4.32689999999991],[-0.935,-0.5705555555555556,4.34359999999986],[-0.9389583333333333,-0.5605555555555556,4.360199999999956],[-0.9429166666666667,-0.5505555555555556,4.376899999999907],[-0.9457291666666666,-0.5459259259259259,4.395000000000003],[-0.9338541666666667,-0.5233333333333334,4.410799999999817],[-0.9040625,-0.5194444444444445,4.427],[-0.8872916666666666,-0.524074074074074,4.443599999999861],[-0.8551041666666667,-0.5398148148148149,4.460199999999958],[-0.8229166666666666,-0.5555555555555556,4.476899999999908],[-0.7988541666666666,-0.5135185185185185,4.493699999999954],[-0.7919791666666666,-0.477962962962963,4.510299999999816],[-0.8205208333333334,-0.5475925925925925,4.527000000000001],[-0.8490625,-0.6172222222222222,4.544199999999954],[-0.8569791666666667,-0.6609259259259259,4.560199999999959],[-0.8648958333333333,-0.7046296296296296,4.57689999999991],[-0.87875,-0.6946296296296297,4.593799999999817],[-0.9025,-0.7087037037037037,4.610199999999956],[-0.9271875,-0.6938888888888889,4.626899999999907],[-0.950625,-0.6816666666666668,4.643599999999864],[-0.9810416666666666,-0.6318518518518518,4.6601999999999535],[-0.9864583333333333,-0.5731481481481482,4.677],[-0.9442708333333333,-0.32388888888888884,4.695],[-0.8933333333333333,-0.056851851851851834,4.710199999999958],[-0.7594791666666667,0.18518518518518517,4.726899999999908],[-0.6364583333333333,0.40851851851851856,4.7435000000000045],[-0.49927083333333333,0.5861111111111111,4.760199999999955],[-0.35750000000000004,0.7794444444444444,4.776899999999912],[-0.2757291666666667,0.9831481481481483,4.798699999999954],[-0.2757291666666667,0.9831481481481483,4.810299999999813],[-0.22104166666666672,1.1712962962962963,4.82689999999991],[-0.13322916666666665,1.3064814814814816,4.84359999999986],[-0.07645833333333331,1.4292592592592592,4.860500000000002],[-0.06791666666666671,1.4198148148148149,4.876899999999907],[-0.06749999999999995,1.3464814814814814,4.895099999999864],[-0.1546875,1.2555555555555555,4.913799999999817],[-0.24989583333333332,1.2035185185185187,4.927099999999861],[-0.3628124999999999,1.1483333333333332,4.943599999999861],[-0.4639583333333333,1.1149999999999998,4.9603999999999075],[-0.5216666666666667,1.064074074074074,4.977299999999815],[-0.5615625000000001,0.9798148148148147,4.994500000000002],[-0.5922916666666667,0.905925925925926,5.010199999999955],[-0.5872916666666667,0.8331481481481481,5.026899999999912],[-0.5822916666666667,0.7603703703703704,5.043599999999863],[-0.5864583333333333,0.7172222222222221,5.060500000000005],[-0.6289583333333333,0.6485185185185186,5.07689999999991],[-0.6194791666666667,0.5998148148148148,5.09359999999986],[-0.5488541666666666,0.5303703703703704,5.110799999999813],[-0.4709375,0.4553703703703703,5.126899999999907],[-0.39302083333333326,0.3803703703703703,5.143599999999864],[-0.3109375,0.35537037037037034,5.16039999999991],[-0.23802083333333332,0.3199999999999999,5.176899999999911],[-0.16416666666666668,0.28888888888888886,5.193699999999957],[-0.09031250000000005,0.2577777777777779,5.213399999999908],[-0.0014583333333333095,0.22166666666666676,5.229500000000002],[0.11124999999999995,0.23074074074074077,5.2435000000000045],[0.1775000000000001,0.19314814814814807,5.260599999999862],[0.24520833333333342,0.19796296296296292,5.276899999999912],[0.2904166666666666,0.18777777777777774,5.294399999999911],[0.2933333333333332,0.16111111111111112,5.310199999999959],[0.30010416666666656,0.15055555555555547,5.328199999999953],[0.3216666666666666,0.14092592592592595,5.344199999999958],[0.3185416666666666,0.12907407407407415,5.3602999999998175],[0.34343750000000006,0.12888888888888894,5.3770000000000024],[0.3455208333333334,0.1418518518518519,5.393599999999864],[0.3589583333333332,0.1455555555555556,5.41039999999991],[0.3662499999999999,0.14074074074074075,5.426899999999911],[0.321875,0.12092592592592584,5.443599999999861],[0.2631249999999999,0.12981481481481486,5.460299999999819],[0.24666666666666662,0.1551851851851851,5.476899999999908],[0.23322916666666677,0.1737037037037036,5.494500000000002],[0.23322916666666677,0.1737037037037036,5.510299999999816],[0.2321875000000001,0.21296296296296297,5.527000000000001],[0.22906250000000009,0.25999999999999995,5.548500000000004],[0.22906250000000009,0.25999999999999995,5.560199999999959],[0.20427083333333323,0.3001851851851852,5.577000000000005],[0.20427083333333323,0.3001851851851852,5.593799999999817],[0.19979166666666662,0.34592592592592586,5.6102999999998175],[0.20968749999999994,0.3792592592592592,5.633599999999866],[0.20968749999999994,0.3792592592592592,5.643599999999864],[0.24208333333333343,0.4125925925925925,5.665199999999956],[0.24208333333333343,0.4125925925925925,5.6771999999999565],[0.22552083333333334,0.4385185185185184,5.694000000000003],[0.21281249999999996,0.48203703703703693,5.714699999999958],[0.22916666666666666,0.4951851851851851,5.728399999999908],[0.24249999999999997,0.5005555555555554,5.7437999999998155],[0.25062499999999993,0.505925925925926,5.7605],[0.28187499999999993,0.49796296296296294,5.780399999999908],[0.2690624999999999,0.47740740740740734,5.796599999999863],[0.2522916666666667,0.4596296296296297,5.813099999999864],[0.20947916666666658,0.45388888888888895,5.829299999999819],[0.16218750000000004,0.43925925925925935,5.843899999999913],[0.115625,0.3701851851851851,5.860399999999906],[0.0775000000000001,0.22555555555555548,5.877099999999864],[0.05489583333333338,0.1287037037037037,5.898299999999814],[0.05489583333333338,0.1287037037037037,5.91039999999991],[0.03458333333333338,0.07592592592592592,5.927099999999861],[-0.014479166666666644,-0.01703703703703712,5.943799999999818],[-0.06312500000000003,-0.12759259259259256,5.963500000000003],[-0.07791666666666662,-0.19240740740740736,5.979500000000002],[-0.11020833333333328,-0.2442592592592592,5.996799999999816],[-0.13083333333333336,-0.2957407407407407,6.0151999999999575],[-0.14072916666666668,-0.35703703703703704,6.02959999999986],[-0.11333333333333329,-0.36314814814814816,6.04379999999982],[-0.07947916666666661,-0.32592592592592595,6.060500000000005],[-0.028437499999999952,-0.2977777777777778,6.080199999999955],[-0.03708333333333336,-0.3490740740740741,6.097199999999958],[-0.03114583333333331,-0.35703703703703704,6.112899999999911],[-0.05375000000000003,-0.3512962962962963,6.129699999999957],[-0.06312500000000003,-0.3698148148148148,6.1442999999998165],[-0.022083333333333382,-0.4087037037037037,6.160299999999815],[0.01895833333333338,-0.4475925925925926,6.177699999999959],[0.009375,-0.4196296296296297,6.197599999999866],[0.009375,-0.4196296296296297,6.216599999999865],[-0.007083333333333286,-0.4014814814814815,6.234599999999865],[-0.007083333333333286,-0.4014814814814815,6.243599999999866],[0.004999999999999952,-0.4209259259259259,6.260299999999816],[-0.04375,-0.44111111111111106,6.277000000000001],[-0.04468749999999998,-0.41203703703703703,6.29379999999982],[-0.04677083333333331,-0.41333333333333333,6.312299999999816],[-0.03458333333333338,-0.4009259259259259,6.32689999999991],[-0.03145833333333338,-0.40907407407407403,6.343500000000006],[-0.03958333333333333,-0.40018518518518525,6.3602999999998175],[-0.04770833333333328,-0.3905555555555555,6.376899999999907],[-0.04770833333333328,-0.3905555555555555,6.393799999999814],[-0.021145833333333287,-0.4353703703703704,6.4101999999999535],[0.01083333333333331,-0.45129629629629625,6.426899999999911],[0.011249999999999953,-0.46796296296296297,6.443599999999861],[0.006562499999999953,-0.49000000000000005,6.460299999999819],[0.01072916666666662,-0.5212962962962963,6.479199999999956],[0.02947916666666662,-0.5374074074074073,6.4935000000000045],[0.049583333333333354,-0.509074074074074,6.510299999999816],[0.06052083333333336,-0.49296296296296294,6.526899999999912],[0.049791666666666616,-0.48648148148148146,6.543599999999863],[0.030624999999999975,-0.44166666666666665,6.560199999999959],[0.018124999999999978,-0.3755555555555556,6.57689999999991],[-0.002499999999999976,-0.3257407407407407,6.59359999999986],[-0.01572916666666669,-0.24462962962962967,6.610199999999956],[-0.0020833333333333333,-0.2183333333333333,6.626899999999907],[0.01229166666666662,-0.19666666666666666,6.643500000000003],[-0.01260416666666669,-0.18074074074074079,6.6601999999999535],[-0.035208333333333286,-0.20425925925925928,6.676899999999911],[-0.03135416666666669,-0.2175925925925926,6.693599999999861],[-0.027499999999999976,-0.2309259259259259,6.710199999999958],[-0.011562500000000024,-0.2718518518518519,6.726899999999908],[0.00302083333333331,-0.30351851851851847,6.7435000000000045],[0.019166666666666644,-0.35351851851851845,6.760199999999955],[0.035312499999999976,-0.4035185185185185,6.777399999999908],[-0.0002083333333333807,-0.37962962962962965,6.7936999999999585],[-0.03572916666666662,-0.3557407407407408,6.810199999999959],[-0.04010416666666667,-0.35833333333333334,6.82689999999991],[-0.024895833333333308,-0.367037037037037,6.845699999999958],[-0.05666666666666664,-0.33351851851851855,6.860399999999906],[-0.08843749999999997,-0.3,6.879599999999861],[-0.09281250000000002,-0.30648148148148147,6.89539999999991],[-0.08864583333333335,-0.2962962962962963,6.9101999999999535],[-0.08718750000000004,-0.30185185185185187,6.926899999999911],[-0.08572916666666662,-0.3074074074074074,6.945799999999814],[-0.05687500000000002,-0.3403703703703704,6.960199999999958],[-0.028125,-0.3731481481481482,6.977000000000004],[-0.021979166666666692,-0.3587037037037037,6.993599999999866],[-0.025312499999999953,-0.34685185185185186,7.012500000000003],[0.0046875,-0.37907407407407406,7.026899999999912],[0.034687499999999954,-0.4112962962962963,7.0436999999999585],[0.034895833333333334,-0.4179629629629629,7.060199999999959],[0.02791666666666662,-0.4505555555555556,7.079399999999907],[0.033958333333333354,-0.4524074074074074,7.096500000000006],[0.04520833333333331,-0.4618518518518518,7.112899999999911],[0.04083333333333338,-0.4609259259259259,7.129399999999912],[0.03583333333333331,-0.44592592592592595,7.143699999999953],[0.05614583333333331,-0.4494444444444444,7.16039999999991],[0.06510416666666667,-0.4514814814814815,7.177],[0.0546875,-0.4559259259259259,7.196199999999955],[0.04635416666666667,-0.4570370370370371,7.2103999999999075]]","[0.00019999999995690132,0.03639999999990806,0.04359999999986286,0.06039999999990897,0.07700000000000529,0.09379999999981692,0.11279999999981527,0.1290999999998661,0.14369999999995287,0.16049999999999898,0.17689999999991102,0.194500000000005,0.21029999999981897,0.22719999999995366,0.2436999999999543,0.2603999999999118,0.277000000000001,0.29400000000000404,0.3102999999998133,0.32750000000000057,0.34359999999986,0.36029999999981754,0.37719999999995935,0.39529999999981413,0.4103999999999104,0.4270999999998608,0.44359999999986144,0.46029999999981897,0.47700000000000387,0.4966999999999544,0.5128999999999095,0.5271999999999579,0.5437999999998198,0.5623999999999114,0.5770999999998594,0.5936999999999557,0.6132999999998177,0.6270000000000024,0.6436999999999529,0.6602999999998147,0.676899999999911,0.6958999999999094,0.7116999999999578,0.7270999999998651,0.7436999999999543,0.7602999999998161,0.777000000000001,0.7944999999999993,0.8107999999998157,0.8270000000000053,0.8437999999998169,0.8603999999999061,0.8795999999998614,0.8942999999998165,0.9102999999998147,0.9310000000000045,0.9471999999999525,0.961799999999819,0.9778999999999058,0.9937999999998155,1.0103999999999118,1.0275999999998646,1.0436999999999585,1.060399999999909,1.0770000000000053,1.095299999999817,1.1132999999998177,1.1270000000000024,1.146099999999862,1.1627999999998195,1.177799999999813,1.196899999999907,1.2152999999998144,1.2305999999998605,1.2485,1.2641999999999527,1.2817999999998193,1.2972999999998152,1.3145000000000024,1.3320000000000007,1.347599999999865,1.3625000000000043,1.3770000000000024,1.396699999999953,1.4147999999998149,1.4303999999999064,1.4457999999998137,1.4603999999999075,1.4770000000000039,1.4988999999999066,1.5102999999998161,1.527000000000001,1.549599999999863,1.5605000000000047,1.5770000000000053,1.593799999999817,1.6103999999999061,1.6308999999999116,1.6436999999999529,1.6681999999999562,1.6769999999999996,1.6935999999998614,1.7140000000000057,1.7289999999999992,1.7442999999998179,1.7602999999998161,1.7770999999998622,1.7945999999998605,1.8102999999998133,1.8270000000000053,1.8436999999999557,1.8603999999999061,1.8770000000000024,1.8950000000000031,1.9103999999999104,1.9269999999999996,1.9448999999999117,1.960299999999819,1.9768999999999082,1.9936999999999543,2.010299999999816,2.027000000000001,2.043599999999863,2.0602999999998133,2.0770000000000053,2.0936999999999557,2.110599999999863,2.1270000000000024,2.1435999999998643,2.1602999999998147,2.1769999999999996,2.1950999999998615,2.2101999999999578,2.227000000000004,2.2435999999998657,2.260299999999816,2.2788999999999078,2.2944999999999993,2.3105000000000047,2.3270999999998594,2.351299999999817,2.367399999999911,2.3770000000000024,2.393799999999814,2.4103999999999104,2.426899999999911,2.4435999999998614,2.4603999999999075,2.4771999999999537,2.4936999999999543,2.510299999999816,2.527000000000001,2.543599999999863,2.560399999999909,2.5770000000000053,2.597199999999958,2.610599999999863,2.6270000000000024,2.643699999999953,2.6602999999998147,2.6769999999999996,2.693699999999957,2.710699999999953,2.727000000000004,2.7435999999998657,2.760299999999816,2.777000000000001,2.7943999999999107,2.8102999999998133,2.8270000000000053,2.84359999999986,2.8602999999998175,2.8768999999999068,2.8941999999999553,2.9102999999998147,2.9269999999999996,2.9435999999998614,2.960299999999819,2.976899999999908,2.9936999999999543,3.010299999999816,3.028500000000001,3.0450000000000017,3.0602999999998133,3.0770999999998594,3.097399999999908,3.1127999999998153,3.1270000000000024,3.1435999999998643,3.1603999999999104,3.1769999999999996,3.193699999999957,3.2107999999998142,3.227000000000004,3.2435999999998657,3.260299999999816,3.277000000000001,3.293599999999863,3.3102999999998133,3.3275000000000006,3.343500000000006,3.360399999999906,3.3768999999999068,3.3935999999998643,3.4102999999998147,3.4269999999999996,3.443699999999957,3.4601999999999578,3.476899999999908,3.4941999999999567,3.510299999999816,3.527000000000001,3.5436999999999585,3.560399999999909,3.582799999999814,3.593799999999817,3.6102999999998175,3.6270000000000024,3.6435999999998643,3.6667999999998173,3.6769999999999996,3.6937999999998183,3.710299999999819,3.726899999999908,3.7436999999999543,3.760199999999955,3.780399999999908,3.7953999999999084,3.8102999999998133,3.8270000000000053,3.84359999999986,3.860399999999906,3.8770000000000024,3.894399999999912,3.9101999999999535,3.926899999999911,3.943699999999957,3.960299999999819,3.977000000000004,3.9943999999999065,4.010299999999816,4.026899999999912,4.046199999999956,4.0606999999999545,4.077099999999859,4.097500000000004,4.114199999999954,4.129199999999955,4.144399999999912,4.1601999999999535,4.1771999999999565,4.193699999999957,4.210299999999819,4.227000000000004,4.243599999999866,4.260299999999816,4.276899999999912,4.293599999999863,4.310299999999813,4.32689999999991,4.34359999999986,4.360199999999956,4.376899999999907,4.395000000000003,4.410799999999817,4.427,4.443599999999861,4.460199999999958,4.476899999999908,4.493699999999954,4.510299999999816,4.527000000000001,4.544199999999954,4.560199999999959,4.57689999999991,4.593799999999817,4.610199999999956,4.626899999999907,4.643599999999864,4.6601999999999535,4.677,4.695,4.710199999999958,4.726899999999908,4.7435000000000045,4.760199999999955,4.776899999999912,4.798699999999954,4.810299999999813,4.82689999999991,4.84359999999986,4.860500000000002,4.876899999999907,4.895099999999864,4.913799999999817,4.927099999999861,4.943599999999861,4.9603999999999075,4.977299999999815,4.994500000000002,5.010199999999955,5.026899999999912,5.043599999999863,5.060500000000005,5.07689999999991,5.09359999999986,5.110799999999813,5.126899999999907,5.143599999999864,5.16039999999991,5.176899999999911,5.193699999999957,5.213399999999908,5.229500000000002,5.2435000000000045,5.260599999999862,5.276899999999912,5.294399999999911,5.310199999999959,5.328199999999953,5.344199999999958,5.3602999999998175,5.3770000000000024,5.393599999999864,5.41039999999991,5.426899999999911,5.443599999999861,5.460299999999819,5.476899999999908,5.494500000000002,5.510299999999816,5.527000000000001,5.548500000000004,5.560199999999959,5.577000000000005,5.593799999999817,5.6102999999998175,5.633599999999866,5.643599999999864,5.665199999999956,5.6771999999999565,5.694000000000003,5.714699999999958,5.728399999999908,5.7437999999998155,5.7605,5.780399999999908,5.796599999999863,5.813099999999864,5.829299999999819,5.843899999999913,5.860399999999906,5.877099999999864,5.898299999999814,5.91039999999991,5.927099999999861,5.943799999999818,5.963500000000003,5.979500000000002,5.996799999999816,6.0151999999999575,6.02959999999986,6.04379999999982,6.060500000000005,6.080199999999955,6.097199999999958,6.112899999999911,6.129699999999957,6.1442999999998165,6.160299999999815,6.177699999999959,6.197599999999866,6.216599999999865,6.234599999999865,6.243599999999866,6.260299999999816,6.277000000000001,6.29379999999982,6.312299999999816,6.32689999999991,6.343500000000006,6.3602999999998175,6.376899999999907,6.393799999999814,6.4101999999999535,6.426899999999911,6.443599999999861,6.460299999999819,6.479199999999956,6.4935000000000045,6.510299999999816,6.526899999999912,6.543599999999863,6.560199999999959,6.57689999999991,6.59359999999986,6.610199999999956,6.626899999999907,6.643500000000003,6.6601999999999535,6.676899999999911,6.693599999999861,6.710199999999958,6.726899999999908,6.7435000000000045,6.760199999999955,6.777399999999908,6.7936999999999585,6.810199999999959,6.82689999999991,6.845699999999958,6.860399999999906,6.879599999999861,6.89539999999991,6.9101999999999535,6.926899999999911,6.945799999999814,6.960199999999958,6.977000000000004,6.993599999999866,7.012500000000003,7.026899999999912,7.0436999999999585,7.060199999999959,7.079399999999907,7.096500000000006,7.112899999999911,7.129399999999912,7.143699999999953,7.16039999999991,7.177,7.196199999999955,7.2103999999999075]","[1733207525495,1733207525523,1733207525530,1733207525547,1733207525564,1733207525581,1733207525600,1733207525616,1733207525630,1733207525647,1733207525664,1733207525681,1733207525697,1733207525714,1733207525730,1733207525747,1733207525764,1733207525781,1733207525797,1733207525814,1733207525830,1733207525847,1733207525864,1733207525882,1733207525897,1733207525914,1733207525930,1733207525947,1733207525964,1733207525983,1733207526000,1733207526014,1733207526031,1733207526049,1733207526064,1733207526080,1733207526100,1733207526114,1733207526130,1733207526147,1733207526164,1733207526183,1733207526198,1733207526214,1733207526230,1733207526247,1733207526264,1733207526281,1733207526298,1733207526314,1733207526331,1733207526347,1733207526366,1733207526381,1733207526397,1733207526418,1733207526434,1733207526449,1733207526465,1733207526481,1733207526497,1733207526514,1733207526530,1733207526547,1733207526564,1733207526582,1733207526600,1733207526614,1733207526633,1733207526649,1733207526664,1733207526684,1733207526702,1733207526717,1733207526735,1733207526751,1733207526769,1733207526784,1733207526801,1733207526819,1733207526834,1733207526849,1733207526864,1733207526883,1733207526901,1733207526917,1733207526933,1733207526947,1733207526964,1733207526986,1733207526997,1733207527014,1733207527036,1733207527047,1733207527064,1733207527080,1733207527097,1733207527118,1733207527130,1733207527155,1733207527164,1733207527180,1733207527201,1733207527216,1733207527231,1733207527247,1733207527264,1733207527281,1733207527297,1733207527314,1733207527330,1733207527347,1733207527364,1733207527382,1733207527397,1733207527414,1733207527432,1733207527447,1733207527464,1733207527480,1733207527497,1733207527514,1733207527530,1733207527547,1733207527564,1733207527580,1733207527597,1733207527614,1733207527630,1733207527647,1733207527664,1733207527682,1733207527697,1733207527714,1733207527730,1733207527747,1733207527766,1733207527781,1733207527797,1733207527814,1733207527838,1733207527854,1733207527864,1733207527880,1733207527897,1733207527914,1733207527930,1733207527947,1733207527964,1733207527980,1733207527997,1733207528014,1733207528030,1733207528047,1733207528064,1733207528084,1733207528097,1733207528114,1733207528130,1733207528147,1733207528164,1733207528180,1733207528197,1733207528214,1733207528230,1733207528247,1733207528264,1733207528281,1733207528297,1733207528314,1733207528330,1733207528347,1733207528364,1733207528381,1733207528397,1733207528414,1733207528430,1733207528447,1733207528464,1733207528480,1733207528497,1733207528515,1733207528532,1733207528547,1733207528564,1733207528584,1733207528599,1733207528614,1733207528630,1733207528647,1733207528664,1733207528680,1733207528697,1733207528714,1733207528730,1733207528747,1733207528764,1733207528780,1733207528797,1733207528814,1733207528830,1733207528847,1733207528864,1733207528880,1733207528897,1733207528914,1733207528930,1733207528947,1733207528964,1733207528981,1733207528997,1733207529014,1733207529030,1733207529047,1733207529070,1733207529080,1733207529097,1733207529114,1733207529130,1733207529154,1733207529164,1733207529180,1733207529197,1733207529214,1733207529230,1733207529247,1733207529267,1733207529282,1733207529297,1733207529314,1733207529330,1733207529347,1733207529364,1733207529381,1733207529397,1733207529414,1733207529430,1733207529447,1733207529464,1733207529481,1733207529497,1733207529514,1733207529533,1733207529547,1733207529564,1733207529584,1733207529601,1733207529616,1733207529631,1733207529647,1733207529664,1733207529680,1733207529697,1733207529714,1733207529730,1733207529747,1733207529764,1733207529780,1733207529797,1733207529814,1733207529830,1733207529847,1733207529864,1733207529882,1733207529897,1733207529914,1733207529930,1733207529947,1733207529964,1733207529980,1733207529997,1733207530014,1733207530031,1733207530047,1733207530064,1733207530080,1733207530097,1733207530114,1733207530130,1733207530147,1733207530164,1733207530182,1733207530197,1733207530214,1733207530230,1733207530247,1733207530264,1733207530285,1733207530297,1733207530314,1733207530330,1733207530347,1733207530364,1733207530382,1733207530401,1733207530414,1733207530430,1733207530447,1733207530464,1733207530481,1733207530497,1733207530514,1733207530530,1733207530547,1733207530564,1733207530580,1733207530598,1733207530614,1733207530630,1733207530647,1733207530664,1733207530680,1733207530700,1733207530716,1733207530730,1733207530747,1733207530764,1733207530781,1733207530797,1733207530815,1733207530831,1733207530847,1733207530864,1733207530880,1733207530897,1733207530914,1733207530930,1733207530947,1733207530964,1733207530981,1733207530997,1733207531014,1733207531035,1733207531047,1733207531064,1733207531081,1733207531097,1733207531120,1733207531130,1733207531152,1733207531164,1733207531181,1733207531201,1733207531215,1733207531230,1733207531247,1733207531267,1733207531283,1733207531300,1733207531316,1733207531331,1733207531347,1733207531364,1733207531385,1733207531397,1733207531414,1733207531431,1733207531450,1733207531466,1733207531483,1733207531502,1733207531516,1733207531530,1733207531547,1733207531567,1733207531584,1733207531600,1733207531616,1733207531631,1733207531647,1733207531664,1733207531684,1733207531703,1733207531721,1733207531730,1733207531747,1733207531764,1733207531781,1733207531799,1733207531814,1733207531830,1733207531847,1733207531864,1733207531880,1733207531897,1733207531914,1733207531930,1733207531947,1733207531966,1733207531980,1733207531997,1733207532014,1733207532030,1733207532047,1733207532064,1733207532080,1733207532097,1733207532114,1733207532130,1733207532147,1733207532164,1733207532180,1733207532197,1733207532214,1733207532230,1733207532247,1733207532264,1733207532280,1733207532297,1733207532314,1733207532332,1733207532347,1733207532366,1733207532382,1733207532397,1733207532414,1733207532432,1733207532447,1733207532464,1733207532480,1733207532499,1733207532514,1733207532530,1733207532547,1733207532566,1733207532583,1733207532600,1733207532616,1733207532630,1733207532647,1733207532664,1733207532683,1733207532697]","[[891.5,644.7],[891.5,644.7],[891.5,644.7],[897.7,656.5],[897.7,656.5],[911,654.9],[925.1,656.5],[928.8,678.8],[941.2,706.8],[970.1,716.2],[1021.9,714.6],[1067.6,725.7],[1108.8,739.5],[1179.5,737.1],[1216.6,730.9],[1247.7,725.1],[1278,716.1],[1320.9,707.3],[1347.5,694.6],[1368.8,681.4],[1352.5,685.4],[1360.8,683.6],[1369.1,681.8],[1346.2,686.4],[1323.3,691],[1327.5,687.2],[1338,688.8],[1339.1,691.3],[1349,687.8],[1325.8,702],[1306.4,700.9],[1275.9,694.7],[1245.4,688.5],[1168.1,668],[1168.1,668],[1124.6,682.6],[1095.6,685.6],[1095.6,685.6],[1072.5,683.6],[1026.1,692.7],[970.9,707.8],[965.5,689.3],[971,679.9],[974.8,675.5],[978.6,671.1],[1028.7,676.7],[1079.3,647],[1073.5,657.1],[1045.8,669.1],[1058.5,661.7],[1071.2,654.3],[1040.3,673],[1020.1,691.8],[1012.8,679.3],[1003,680.3],[1003.1,690.6],[973.6,711.6],[981.1,706.8],[998.3,699.7],[998.3,699.7],[978.5,687.1],[988.5,662.8],[1026.6,647.2],[1057.3,627.2],[1075.9,632.5],[1091.7,616],[1091.7,616],[1096.3,626.8],[1108.3,619.3],[1142,613],[1142.8,617.5],[1157.2,616.1],[1141.8,626.4],[1091.9,643.2],[1061.6,675.8],[1056.7,690.5],[1025,737],[1024.7,737.4],[1012.3,745.6],[961.2,755.4],[960.9,755.9],[955.2,758],[963.6,755.4],[975,760.6],[948.9,753.1],[935.2,755.8],[953.6,735],[953.6,735],[952.7,736.1],[971.1,737.4],[971.1,737.4],[989,739.3],[988.3,734.7],[988.3,734.7],[1001.2,757.5],[1001.2,757.5],[1000.9,771.2],[1000.9,771.2],[1010.3,774.4],[1022.6,779.8],[1022.6,779.8],[1011.1,790.5],[1004.5,801.6],[1014.2,806.3],[992.5,802],[1002.6,810.9],[1013.4,824.8],[1003.6,816.9],[988,816.6],[968.7,824.7],[976.2,832.5],[917.7,849.4],[854.3,865.9],[821.3,871.1],[800.4,885.1],[748.5,891],[676,897.4],[645.2,897.3],[619.3,903.4],[587,904.2],[539.6,904.3],[565.4,893.7],[591.2,883.1],[557.5,885.1],[523.8,887.1],[523.3,886.5],[543.4,885.4],[516.5,884.4],[490.4,873.9],[473.3,866.1],[458.3,854.7],[446.8,851.8],[435.3,848.9],[444.3,817.1],[425.7,803.4],[404.5,774.8],[384.2,738.4],[385.6,729.8],[386.2,730.7],[384.4,724.8],[384.4,724.8],[397,718.7],[397,718.7],[408.3,705.9],[419.6,693.1],[412.4,704.8],[432.8,698.4],[424.2,711],[413.1,728.7],[415.9,729.6],[420.4,731.2],[448.1,718.3],[432.1,716.4],[447.5,718.9],[431.1,721.7],[518.6,770.2],[603,822.4],[714.9,870],[818.7,907.7],[913.6,949],[1006.8,989.6],[1073,1051.3],[1166.4,1105.8],[1202.9,1148.9],[1271.2,1191.7],[1197.8,1178.9],[1158.7,1150.5],[1075.5,1114.8],[1023.3,1084.8],[945.6,1054.3],[867.9,1023.8],[808.6,969.6],[763.2,914.4],[708.4,853.5],[653.6,792.6],[650.1,742.4],[615.4,704.1],[609.3,661.9],[581.9,626.6],[593,576.1],[604.1,525.6],[604.2,485.7],[590.4,446.8],[589.8,419.5],[589.2,392.2],[576,372],[584.2,356.8],[596.9,338.3],[570.8,317],[554.5,307.4],[538.2,297.8],[570.3,325.8],[601.2,348.3],[643.2,376.4],[683.8,403.8],[734.3,422.6],[763.4,436.4],[816.3,466.4],[894.1,500.5],[955.5,536.6],[1004.1,576.6],[1025.9,557.2],[1047.8,551.4],[1036.2,553.8],[1026,556.9],[1045.5,550.2],[1050.2,559.6],[1031.9,556.7],[1027.5,552.5],[1007.7,546.4],[1007.7,546.4],[1000.7,536.4],[1000.7,536.4],[998.2,562.9],[996.5,558.6],[996.5,558.6],[992,558.7],[992,558.7],[1000.8,550.5],[961.7,563.1],[961.7,563.1],[977.3,554.1],[977.3,554.1],[991.8,555.4],[1003.6,548.1],[1010.2,545.4],[1016.8,542.7],[996.1,527.6],[975.7,535.2],[968.3,515.8],[949.8,501.4],[958,481.8],[926.3,467.7],[937.2,471.5],[950.8,483.9],[984.7,498.2],[1018.6,512.5],[1061.1,517.7],[1103.6,522.9],[1161.6,525.1],[1215.6,537.5],[1243.8,552.6],[1301.5,566.5],[1251.1,584.1],[1216.2,603.3],[1193.1,621.1],[1147,634.7],[1109.5,632],[1069.1,631],[1009.3,631.4],[951.3,624.9],[868.8,595.7],[756.8,567.7],[696.8,523.5],[607.2,468],[488.2,414.3],[404.7,369.4],[318.4,340.9],[235,310.7],[148.7,271.3],[62.4,231.9],[58.6,237.3],[54.8,242.7],[52.1,245.2],[63.5,257.4],[92.1,259.5],[108.2,257],[139.1,248.5],[170,240],[193.1,262.7],[199.7,281.9],[172.3,244.3],[144.9,206.7],[137.3,183.1],[129.7,159.5],[116.4,164.9],[93.6,157.3],[69.9,165.3],[47.4,171.9],[18.2,198.8],[13,230.5],[53.5,365.1],[102.4,509.3],[230.9,640],[349,760.6],[480.7,856.5],[616.8,960.9],[695.3,1070.9],[695.3,1070.9],[747.8,1172.5],[832.1,1245.5],[886.6,1311.8],[894.8,1306.7],[895.2,1267.1],[811.5,1218],[720.1,1189.9],[611.7,1160.1],[514.6,1142.1],[459.2,1114.6],[420.9,1069.1],[391.4,1029.2],[396.2,989.9],[401,950.6],[397,927.3],[356.2,890.2],[365.3,863.9],[433.1,826.4],[507.9,785.9],[582.7,745.4],[661.5,731.9],[731.5,712.8],[802.4,696],[873.3,679.2],[958.6,659.7],[1066.8,664.6],[1130.4,644.3],[1195.4,646.9],[1238.8,641.4],[1241.6,627],[1248.1,621.3],[1268.8,616.1],[1265.8,609.7],[1289.7,609.6],[1291.7,616.6],[1304.6,618.6],[1311.6,616],[1269,605.3],[1212.6,610.1],[1196.8,623.8],[1183.9,633.8],[1183.9,633.8],[1182.9,655],[1179.9,680.4],[1179.9,680.4],[1156.1,702.1],[1156.1,702.1],[1151.8,726.8],[1161.3,744.8],[1161.3,744.8],[1192.4,762.8],[1192.4,762.8],[1176.5,776.8],[1164.3,800.3],[1180,807.4],[1192.8,810.3],[1200.6,813.2],[1230.6,808.9],[1218.3,797.8],[1202.2,788.2],[1161.1,785.1],[1115.7,777.2],[1071,739.9],[1034.4,661.8],[1012.7,609.5],[1012.7,609.5],[993.2,581],[946.1,530.8],[899.4,471.1],[885.2,436.1],[854.2,408.1],[834.4,380.3],[824.9,347.2],[851.2,343.9],[883.7,364],[932.7,379.2],[924.4,351.5],[930.1,347.2],[908.4,350.3],[899.4,340.3],[938.8,319.3],[978.2,298.3],[969,313.4],[969,313.4],[953.2,323.2],[953.2,323.2],[964.8,312.7],[918,301.8],[917.1,317.5],[915.1,316.8],[926.8,323.5],[929.8,319.1],[922,323.9],[914.2,329.1],[914.2,329.1],[939.7,304.9],[970.4,296.3],[970.8,287.3],[966.3,275.4],[970.3,258.5],[988.3,249.8],[1007.6,265.1],[1018.1,273.8],[1007.8,277.3],[989.4,301.5],[977.4,337.2],[957.6,364.1],[944.9,407.9],[958,422.1],[971.8,433.8],[947.9,442.4],[926.2,429.7],[929.9,422.5],[933.6,415.3],[948.9,393.2],[962.9,376.1],[978.4,349.1],[993.9,322.1],[959.8,335],[925.7,347.9],[921.5,346.5],[936.1,341.8],[905.6,359.9],[875.1,378],[870.9,374.5],[874.9,380],[876.3,377],[877.7,374],[905.4,356.2],[933,338.5],[938.9,346.3],[935.7,352.7],[964.5,335.3],[993.3,317.9],[993.5,314.3],[986.8,296.7],[992.6,295.7],[1003.4,290.6],[999.2,291.1],[994.4,299.2],[1013.9,297.3],[1022.5,296.2],[1012.5,293.8],[1004.5,293.2]]","[0,0.5333]","[0.5333,0.5333]","[-0.5333,-0.5333]","[-0.5333,0]","[0,-0.5333]","[0.5333,-0.5333]","[0,0]","[0.5333,0]",0,0,0,0,1,3,Monitor,11,9,9,1
