inst1_resp.keys,inst1_resp.rt,calibrationMouse.x,calibrationMouse.y,calibrationMouse.leftButton,calibrationMouse.midButton,calibrationMouse.rightButton,calibrationClick.x,calibrationClick.y,calibrationClick.leftButton,calibrationClick.midButton,calibrationClick.rightButton,calibrationClick.clicked_name,trialsc.thisRepN,trialsc.thisTrialN,trialsc.thisN,trialsc.thisIndex,trialsc.ran,calibration_x,calibration_y,participant,session,date,expName,psychopyVersion,OS,frameRate,ScreenRes_pixels,Camera_pixels,mouse_2.x,mouse_2.y,mouse_2.leftButton,mouse_2.midButton,mouse_2.rightButton,mouse_2.time,mouse_2.clicked_name,mouse.x,mouse.y,mouse.leftButton,mouse.midButton,mouse.rightButton,mouse.time,mouse.clicked_name,Choice,Trial,TrialDuration,MOUSE_GAZE,ET_GAZE,ET_GAZE_x_T,time,unixTime,ET_GAZE_NF,Loc_Option1_label,Loc_Option2_label,Loc_Cost_label,Loc_Qual_label,Loc_Option1_cost,Loc_Option2_cost,Loc_Option1_quality,Loc_Option2_quality,trials.thisRepN,trials.thisTrialN,trials.thisN,trials.thisIndex,trials.ran,Block,Device,cost1,qual1,cost2,qual2
space,2.7011,0.146875,-0.416666667,1,0,0,0.001041667,0.668518519,1,0,0,calibration_square,0,0,0,13,1,0,0.67,27,001,2024-12-03_15h26.00.211,Attention_exp_legacy,2023.1.0,Win32,59.88023952,,,,,,,,,,,,,,,,,,,,,,,,,,,,,,,,,,,,,,,,,,,,
,,,,,,,0.332291667,0.001851852,1,0,0,calibration_square,0,1,1,16,1,0.33,0,27,001,2024-12-03_15h26.00.211,Attention_exp_legacy,2023.1.0,Win32,59.88023952,,,,,,,,,,,,,,,,,,,,,,,,,,,,,,,,,,,,,,,,,,,,
,,,,,,,-0.001041667,0.32037037,1,0,0,calibration_square,0,2,2,12,1,0,0.33,27,001,2024-12-03_15h26.00.211,Attention_exp_legacy,2023.1.0,Win32,59.88023952,,,,,,,,,,,,,,,,,,,,,,,,,,,,,,,,,,,,,,,,,,,,
,,,,,,,0.336458333,0.674074074,1,0,0,calibration_square,0,3,3,18,1,0.33,0.67,27,001,2024-12-03_15h26.00.211,Attention_exp_legacy,2023.1.0,Win32,59.88023952,,,,,,,,,,,,,,,,,,,,,,,,,,,,,,,,,,,,,,,,,,,,
,,,,,,,-0.66875,0.333333333,1,0,0,calibration_square,0,4,4,3,1,-0.67,0.33,27,001,2024-12-03_15h26.00.211,Attention_exp_legacy,2023.1.0,Win32,59.88023952,,,,,,,,,,,,,,,,,,,,,,,,,,,,,,,,,,,,,,,,,,,,
,,,,,,,-0.008333333,-0.668518519,1,0,0,calibration_square,0,5,5,9,1,0,-0.67,27,001,2024-12-03_15h26.00.211,Attention_exp_legacy,2023.1.0,Win32,59.88023952,,,,,,,,,,,,,,,,,,,,,,,,,,,,,,,,,,,,,,,,,,,,
,,,,,,,-0.327083333,-0.677777778,1,0,0,calibration_square,0,6,6,4,1,-0.33,-0.67,27,001,2024-12-03_15h26.00.211,Attention_exp_legacy,2023.1.0,Win32,59.88023952,,,,,,,,,,,,,,,,,,,,,,,,,,,,,,,,,,,,,,,,,,,,
,,,,,,,0.333333333,0.327777778,1,0,0,calibration_square,0,7,7,17,1,0.33,0.33,27,001,2024-12-03_15h26.00.211,Attention_exp_legacy,2023.1.0,Win32,59.88023952,,,,,,,,,,,,,,,,,,,,,,,,,,,,,,,,,,,,,,,,,,,,
,,,,,,,0,-0.335185185,1,0,0,calibration_square,0,8,8,10,1,0,-0.33,27,001,2024-12-03_15h26.00.211,Attention_exp_legacy,2023.1.0,Win32,59.88023952,,,,,,,,,,,,,,,,,,,,,,,,,,,,,,,,,,,,,,,,,,,,
,,,,,,,-0.002083333,0.011111111,1,0,0,,0,9,9,11,1,0,0,27,001,2024-12-03_15h26.00.211,Attention_exp_legacy,2023.1.0,Win32,59.88023952,,,,,,,,,,,,,,,,,,,,,,,,,,,,,,,,,,,,,,,,,,,,
,,,,,,,0.338541667,-0.333333333,1,0,0,calibration_square,0,10,10,15,1,0.33,-0.33,27,001,2024-12-03_15h26.00.211,Attention_exp_legacy,2023.1.0,Win32,59.88023952,,,,,,,,,,,,,,,,,,,,,,,,,,,,,,,,,,,,,,,,,,,,
,,,,,,,0.678125,-0.685185185,1,0,0,,0,11,11,20,1,0.67,-0.67,27,001,2024-12-03_15h26.00.211,Attention_exp_legacy,2023.1.0,Win32,59.88023952,,,,,,,,,,,,,,,,,,,,,,,,,,,,,,,,,,,,,,,,,,,,
,,,,,,,0.333333333,-0.672222222,1,0,0,calibration_square,0,12,12,14,1,0.33,-0.67,27,001,2024-12-03_15h26.00.211,Attention_exp_legacy,2023.1.0,Win32,59.88023952,,,,,,,,,,,,,,,,,,,,,,,,,,,,,,,,,,,,,,,,,,,,
,,,,,,,-0.682291667,0,1,0,0,,0,13,13,2,1,-0.67,0,27,001,2024-12-03_15h26.00.211,Attention_exp_legacy,2023.1.0,Win32,59.88023952,,,,,,,,,,,,,,,,,,,,,,,,,,,,,,,,,,,,,,,,,,,,
,,,,,,,-0.325,0.333333333,1,0,0,calibration_square,0,14,14,7,1,-0.33,0.33,27,001,2024-12-03_15h26.00.211,Attention_exp_legacy,2023.1.0,Win32,59.88023952,,,,,,,,,,,,,,,,,,,,,,,,,,,,,,,,,,,,,,,,,,,,
,,,,,,,-0.672916667,-0.335185185,1,0,0,calibration_square,0,15,15,1,1,-0.67,-0.33,27,001,2024-12-03_15h26.00.211,Attention_exp_legacy,2023.1.0,Win32,59.88023952,,,,,,,,,,,,,,,,,,,,,,,,,,,,,,,,,,,,,,,,,,,,
,,,,,,,-0.330208333,0.67962963,1,0,0,calibration_square,0,16,16,8,1,-0.33,0.67,27,001,2024-12-03_15h26.00.211,Attention_exp_legacy,2023.1.0,Win32,59.88023952,,,,,,,,,,,,,,,,,,,,,,,,,,,,,,,,,,,,,,,,,,,,
,,,,,,,-0.679166667,-0.666666667,1,0,0,calibration_square,0,17,17,0,1,-0.67,-0.67,27,001,2024-12-03_15h26.00.211,Attention_exp_legacy,2023.1.0,Win32,59.88023952,,,,,,,,,,,,,,,,,,,,,,,,,,,,,,,,,,,,,,,,,,,,
,,,,,,,-0.3375,0.016666667,1,0,0,,0,18,18,6,1,-0.33,0,27,001,2024-12-03_15h26.00.211,Attention_exp_legacy,2023.1.0,Win32,59.88023952,,,,,,,,,,,,,,,,,,,,,,,,,,,,,,,,,,,,,,,,,,,,
,,,,,,,0.679166667,0.677777778,1,0,0,calibration_square,0,19,19,19,1,0.67,0.67,27,001,2024-12-03_15h26.00.211,Attention_exp_legacy,2023.1.0,Win32,59.88023952,,,,,,,,,,,,,,,,,,,,,,,,,,,,,,,,,,,,,,,,,,,,
,,,,,,,-0.31875,-0.324074074,1,0,0,,0,20,20,5,1,-0.33,-0.33,27,001,2024-12-03_15h26.00.211,Attention_exp_legacy,2023.1.0,Win32,59.88023952,,,,,,,,,,,,,,,,,,,,,,,,,,,,,,,,,,,,,,,,,,,,
,,,,,,,,,,,,,,,,,,,,27,001,2024-12-03_15h26.00.211,Attention_exp_legacy,2023.1.0,Win32,59.88023952,"[1920,1080]","[640,480]",[-0.030208333333333334],[-0.5092592592592593],[1],[0],[0],[9.713800000000745],"[""StartButton""]",[-0.009375],[0.5074074074074074],[1],[0],[0],[3.622200000000177],"[""Option1_label""]",Option1_label,1,4.6296,"[[-0.0875,-0.4222222222222222],[-0.0875,-0.4203703703703704],[-0.0875,-0.4203703703703704],[-0.0875,-0.4203703703703704],[-0.0875,-0.4203703703703704],[-0.0875,-0.4203703703703704],[-0.0875,-0.4203703703703704],[-0.0875,-0.4203703703703704],[-0.0875,-0.4203703703703704],[-0.0875,-0.4203703703703704],[-0.0875,-0.4203703703703704],[-0.0875,-0.4203703703703704],[-0.0875,-0.4203703703703704],[-0.0875,-0.4203703703703704],[-0.0875,-0.4203703703703704],[-0.0875,-0.4203703703703704],[-0.0875,-0.4203703703703704],[-0.0875,-0.4203703703703704],[-0.0875,-0.4203703703703704],[-0.0875,-0.4203703703703704],[-0.0875,-0.4203703703703704],[-0.0875,-0.4203703703703704],[-0.0875,-0.4203703703703704],[-0.0875,-0.4203703703703704],[-0.08854166666666667,-0.4185185185185185],[-0.08854166666666667,-0.4185185185185185],[-0.08854166666666667,-0.4185185185185185],[-0.08854166666666667,-0.4185185185185185],[-0.08854166666666667,-0.4185185185185185],[-0.08854166666666667,-0.4185185185185185],[-0.08854166666666667,-0.4185185185185185],[-0.08854166666666667,-0.4185185185185185],[-0.08854166666666667,-0.4185185185185185],[-0.08854166666666667,-0.4185185185185185],[-0.08854166666666667,-0.4185185185185185],[-0.08854166666666667,-0.4185185185185185],[-0.08854166666666667,-0.4185185185185185],[-0.08854166666666667,-0.4185185185185185],[-0.08854166666666667,-0.4185185185185185],[-0.08958333333333333,-0.4166666666666667],[-0.090625,-0.4148148148148148],[-0.090625,-0.4111111111111111],[-0.090625,-0.4074074074074074],[-0.090625,-0.40370370370370373],[-0.09166666666666666,-0.39814814814814814],[-0.09166666666666666,-0.39444444444444443],[-0.09270833333333334,-0.387037037037037],[-0.09375,-0.3814814814814815],[-0.09375,-0.37962962962962965],[-0.09375,-0.37407407407407406],[-0.09375,-0.3685185185185185],[-0.09375,-0.3611111111111111],[-0.09375,-0.35185185185185186],[-0.09375,-0.3425925925925926],[-0.09375,-0.3333333333333333],[-0.09375,-0.32222222222222224],[-0.09270833333333334,-0.3074074074074074],[-0.09270833333333334,-0.29814814814814816],[-0.09270833333333334,-0.28888888888888886],[-0.09270833333333334,-0.2814814814814815],[-0.09270833333333334,-0.2777777777777778],[-0.09270833333333334,-0.2759259259259259],[-0.09270833333333334,-0.2722222222222222],[-0.09375,-0.26851851851851855],[-0.09583333333333334,-0.26666666666666666],[-0.096875,-0.26296296296296295],[-0.096875,-0.26296296296296295],[-0.10104166666666667,-0.25555555555555554],[-0.103125,-0.25555555555555554],[-0.10729166666666666,-0.25555555555555554],[-0.11145833333333334,-0.25555555555555554],[-0.115625,-0.25555555555555554],[-0.121875,-0.25925925925925924],[-0.12604166666666666,-0.26666666666666666],[-0.13229166666666667,-0.2814814814814815],[-0.13854166666666667,-0.3148148148148148],[-0.14479166666666668,-0.40185185185185185],[-0.15,-0.4759259259259259],[-0.15,-0.5037037037037037],[-0.15,-0.5444444444444444],[-0.14791666666666667,-0.5722222222222222],[-0.14270833333333333,-0.5851851851851851],[-0.12916666666666668,-0.6],[-0.10833333333333334,-0.6074074074074074],[-0.06666666666666667,-0.6092592592592593],[0.0010416666666666667,-0.6092592592592593],[0.053125,-0.6092592592592593],[0.09583333333333334,-0.6092592592592593],[0.128125,-0.6092592592592593],[0.146875,-0.6092592592592593],[0.16354166666666667,-0.6092592592592593],[0.178125,-0.6092592592592593],[0.1875,-0.6074074074074074],[0.190625,-0.6074074074074074],[0.19270833333333334,-0.6074074074074074],[0.19270833333333334,-0.6074074074074074],[0.19375,-0.6074074074074074],[0.19375,-0.6074074074074074],[0.19479166666666667,-0.6055555555555555],[0.19583333333333333,-0.6055555555555555],[0.196875,-0.6055555555555555],[0.19791666666666666,-0.6055555555555555],[0.20104166666666667,-0.6055555555555555],[0.20729166666666668,-0.6055555555555555],[0.22083333333333333,-0.6055555555555555],[0.2520833333333333,-0.6055555555555555],[0.3927083333333333,-0.5888888888888889],[0.503125,-0.5888888888888889],[0.6041666666666666,-0.5851851851851851],[0.64375,-0.5851851851851851],[0.6510416666666666,-0.5851851851851851],[0.6510416666666666,-0.5851851851851851],[0.6510416666666666,-0.5851851851851851],[0.6510416666666666,-0.5851851851851851],[0.6510416666666666,-0.5851851851851851],[0.6510416666666666,-0.5833333333333334],[0.6447916666666667,-0.5777777777777777],[0.6302083333333334,-0.5703703703703704],[0.590625,-0.5537037037037037],[0.559375,-0.5425925925925926],[0.503125,-0.5222222222222223],[0.4197916666666667,-0.4888888888888889],[0.3229166666666667,-0.45740740740740743],[0.23541666666666666,-0.43703703703703706],[0.17083333333333334,-0.4203703703703704],[0.140625,-0.40925925925925927],[0.11875,-0.40185185185185185],[0.10520833333333333,-0.4],[0.090625,-0.39444444444444443],[0.071875,-0.3907407407407407],[0.05,-0.3851851851851852],[0.04375,-0.38333333333333336],[0.041666666666666664,-0.38333333333333336],[0.03958333333333333,-0.3814814814814815],[0.03854166666666667,-0.3814814814814815],[0.034375,-0.37777777777777777],[0.029166666666666667,-0.37592592592592594],[0.027083333333333334,-0.37222222222222223],[0.023958333333333335,-0.3685185185185185],[0.021875,-0.3685185185185185],[0.019791666666666666,-0.3648148148148148],[0.015625,-0.3574074074074074],[0.009375,-0.35],[0.00625,-0.34444444444444444],[0.004166666666666667,-0.3388888888888889],[0.0010416666666666667,-0.3314814814814815],[-0.003125,-0.3148148148148148],[-0.00625,-0.3037037037037037],[-0.007291666666666667,-0.29074074074074074],[-0.010416666666666666,-0.2777777777777778],[-0.0125,-0.26296296296296295],[-0.0125,-0.25925925925925924],[-0.0125,-0.2574074074074074],[-0.0125,-0.25555555555555554],[-0.014583333333333334,-0.2537037037037037],[-0.014583333333333334,-0.25],[-0.015625,-0.25],[-0.017708333333333333,-0.24814814814814815],[-0.020833333333333332,-0.2462962962962963],[-0.025,-0.24444444444444444],[-0.030208333333333334,-0.24259259259259258],[-0.036458333333333336,-0.2351851851851852],[-0.041666666666666664,-0.22962962962962963],[-0.041666666666666664,-0.22962962962962963],[-0.041666666666666664,-0.22962962962962963],[-0.041666666666666664,-0.22962962962962963],[-0.041666666666666664,-0.22962962962962963],[-0.041666666666666664,-0.22592592592592592],[-0.041666666666666664,-0.21666666666666667],[-0.041666666666666664,-0.2],[-0.041666666666666664,-0.17777777777777778],[-0.041666666666666664,-0.15555555555555556],[-0.03958333333333333,-0.12037037037037036],[-0.0375,-0.09074074074074075],[-0.034375,-0.053703703703703705],[-0.030208333333333334,0.014814814814814815],[-0.028125,0.044444444444444446],[-0.027083333333333334,0.2074074074074074],[-0.027083333333333334,0.2740740740740741],[-0.027083333333333334,0.32037037037037036],[-0.027083333333333334,0.35],[-0.027083333333333334,0.37222222222222223],[-0.027083333333333334,0.3907407407407407],[-0.025,0.4074074074074074],[-0.022916666666666665,0.4203703703703704],[-0.021875,0.42777777777777776],[-0.019791666666666666,0.4351851851851852],[-0.01875,0.4388888888888889],[-0.01875,0.44074074074074077],[-0.017708333333333333,0.4444444444444444],[-0.017708333333333333,0.4462962962962963],[-0.016666666666666666,0.44814814814814813],[-0.016666666666666666,0.45185185185185184],[-0.016666666666666666,0.4537037037037037],[-0.016666666666666666,0.45740740740740743],[-0.015625,0.46111111111111114],[-0.015625,0.4648148148148148],[-0.013541666666666667,0.4703703703703704],[-0.013541666666666667,0.4740740740740741],[-0.013541666666666667,0.48148148148148145],[-0.013541666666666667,0.48518518518518516],[-0.0125,0.4888888888888889],[-0.010416666666666666,0.4962962962962963],[-0.009375,0.5],[-0.009375,0.5],[-0.009375,0.5018518518518519],[-0.009375,0.5018518518518519],[-0.009375,0.5018518518518519],[-0.009375,0.5055555555555555],[-0.009375,0.5074074074074074],[-0.009375,0.5074074074074074],[-0.009375,0.5074074074074074],[-0.009375,0.5074074074074074],[-0.009375,0.5074074074074074],[-0.009375,0.5074074074074074],[-0.009375,0.5074074074074074],[-0.009375,0.5074074074074074],[-0.009375,0.5074074074074074],[-0.009375,0.5074074074074074],[-0.009375,0.5074074074074074],[-0.009375,0.5074074074074074],[-0.009375,0.5074074074074074],[-0.009375,0.5074074074074074],[-0.009375,0.5074074074074074],[-0.009375,0.5074074074074074],[-0.009375,0.5074074074074074],[-0.009375,0.5074074074074074],[-0.009375,0.5074074074074074],[-0.009375,0.5074074074074074],[-0.009375,0.5074074074074074],[-0.009375,0.5074074074074074],[-0.009375,0.5074074074074074],[-0.009375,0.5074074074074074],[-0.009375,0.5074074074074074],[-0.009375,0.5074074074074074],[-0.009375,0.5074074074074074],[-0.009375,0.5074074074074074],[-0.009375,0.5074074074074074],[-0.009375,0.5074074074074074],[-0.009375,0.5074074074074074],[-0.009375,0.5074074074074074],[-0.009375,0.5074074074074074],[-0.009375,0.5074074074074074],[-0.009375,0.5074074074074074],[-0.009375,0.5074074074074074],[-0.009375,0.5074074074074074],[-0.009375,0.5074074074074074],[-0.009375,0.5074074074074074],[-0.009375,0.5074074074074074],[-0.009375,0.5074074074074074],[-0.009375,0.5074074074074074],[-0.009375,0.5074074074074074],[-0.008333333333333333,0.5074074074074074],[-0.005208333333333333,0.5074074074074074],[0.00625,0.5018518518518519],[0.026041666666666668,0.48703703703703705],[0.04479166666666667,0.4777777777777778],[0.06041666666666667,0.4740740740740741],[0.06875,0.4722222222222222],[0.07083333333333333,0.4703703703703704],[0.07083333333333333,0.4703703703703704],[0.07083333333333333,0.4703703703703704],[0.07083333333333333,0.4703703703703704],[0.07083333333333333,0.4703703703703704],[0.07083333333333333,0.4703703703703704],[0.07083333333333333,0.4703703703703704],[0.07083333333333333,0.4703703703703704],[0.07083333333333333,0.4703703703703704],[0.07083333333333333,0.4703703703703704],[0.07083333333333333,0.4703703703703704],[0.07083333333333333,0.4703703703703704],[0.07083333333333333,0.4703703703703704],[0.07083333333333333,0.4703703703703704],[0.07083333333333333,0.4703703703703704],[0.07083333333333333,0.4703703703703704],[0.07083333333333333,0.4703703703703704],[0.07083333333333333,0.4703703703703704],[0.07083333333333333,0.4648148148148148]]","[[-0.08489583333333334,0.02240740740740745],[-0.08489583333333334,0.02240740740740745],[-0.07552083333333333,0.028518518518518478],[-0.06614583333333333,0.03462962962962971],[-0.04010416666666667,-0.01574074074074074],[-0.0359375,0.007962962962962878],[0.011562500000000024,-0.03333333333333333],[0.059062500000000046,-0.07462962962962966],[0.09927083333333328,-0.11351851851851855],[0.11427083333333338,-0.102962962962963],[0.12239583333333333,-0.08703703703703704],[0.11218750000000005,-0.08296296296296299],[0.10229166666666671,-0.08870370370370366],[0.06802083333333328,-0.07240740740740745],[0.017083333333333308,0.0003703703703704546],[0.03343750000000002,0.0257407407407407],[0.022395833333333334,0.10055555555555547],[0.017604166666666643,0.13555555555555565],[-0.016354166666666715,0.2162962962962962],[-0.021875,0.24685185185185177],[-0.012395833333333309,0.2351851851851852],[-0.024583333333333356,0.23648148148148157],[-0.06958333333333329,0.20481481481481487],[-0.07979166666666669,0.12740740740740733],[-0.06833333333333336,0.0742592592592593],[-0.06833333333333336,0.0742592592592593],[-0.16031249999999997,0.07703703703703708],[-0.16031249999999997,0.07703703703703708],[-0.2578125,0.06666666666666667],[-0.2578125,0.06666666666666667],[-0.36447916666666663,0.15092592592592594],[-0.36447916666666663,0.15092592592592594],[-0.42218749999999994,0.15703703703703695],[-0.42218749999999994,0.15703703703703695],[-0.4946875,0.13537037037037042],[-0.5858333333333333,0.19074074074074074],[-0.5858333333333333,0.19074074074074074],[-0.6646875,0.2625925925925925],[-0.6933333333333334,0.32462962962962955],[-0.6361458333333334,0.4359259259259259],[-0.6361458333333334,0.4359259259259259],[-0.6089583333333334,0.46703703703703714],[-0.6089583333333334,0.46703703703703714],[-0.5189583333333333,0.45925925925925926],[-0.4188541666666667,0.5162962962962963],[-0.31531250000000005,0.5264814814814814],[-0.27458333333333335,0.5557407407407408],[-0.2101041666666667,0.6003703703703704],[-0.14510416666666662,0.6212962962962963],[-0.0655208333333333,0.5918518518518519],[0.02364583333333338,0.6270370370370371],[0.016562499999999977,0.6366666666666666],[0.03093750000000005,0.7175925925925926],[0.03093750000000005,0.7175925925925926],[0.041875000000000044,0.8118518518518518],[0.041875000000000044,0.8118518518518518],[0.022812499999999975,0.7624074074074075],[0.020624999999999952,0.7416666666666667],[0.03718750000000005,0.727037037037037],[0.021145833333333287,0.7514814814814814],[-0.022500000000000023,0.7516666666666666],[-0.036666666666666715,0.7574074074074074],[-0.09312499999999997,0.7709259259259258],[-0.1546875,0.7759259259259259],[-0.18364583333333329,0.7405555555555555],[-0.2107291666666666,0.7081481481481481],[-0.22166666666666662,0.7142592592592594],[-0.25,0.6837037037037038],[-0.2811458333333333,0.6592592592592592],[-0.25843750000000004,0.5994444444444446],[-0.23656250000000004,0.5862962962962963],[-0.24416666666666664,0.5675925925925925],[-0.22010416666666663,0.5568518518518519],[-0.22010416666666663,0.5568518518518519],[-0.18354166666666671,0.4890740740740741],[-0.20052083333333334,0.4579629629629629],[-0.20052083333333334,0.4579629629629629],[-0.2265625,0.4183333333333333],[-0.2265625,0.4183333333333333],[-0.23635416666666664,0.4207407407407408],[-0.24906250000000002,0.4699999999999999],[-0.1898958333333333,0.5322222222222222],[-0.1716666666666666,0.5625925925925925],[-0.14677083333333332,0.5625925925925925],[-0.12041666666666669,0.5738888888888889],[-0.07281249999999997,0.5275925925925925],[-0.05322916666666669,0.5383333333333334],[0.009895833333333333,0.5218518518518518],[0.05260416666666667,0.5477777777777777],[0.10145833333333343,0.6048148148148148],[0.15322916666666658,0.615],[0.18583333333333343,0.6007407407407407],[0.1790625000000001,0.5800000000000001],[0.19114583333333332,0.5479629629629629],[0.24562499999999995,0.4696296296296297],[0.2626041666666666,0.4246296296296295],[0.3082291666666668,0.39351851851851855],[0.3181250000000001,0.377962962962963],[0.3165625000000001,0.3333333333333333],[0.30739583333333326,0.3161111111111112],[0.3256249999999999,0.2898148148148148],[0.32447916666666665,0.2581481481481481],[0.3650000000000001,0.2716666666666668],[0.38406250000000003,0.29685185185185176],[0.35927083333333343,0.35703703703703693],[0.35875000000000007,0.4101851851851852],[0.35875000000000007,0.4101851851851852],[0.3451041666666666,0.46333333333333343],[0.31791666666666674,0.5005555555555554],[0.3341666666666666,0.5109259259259259],[0.3790625000000001,0.5088888888888888],[0.3567708333333333,0.5083333333333333],[0.33927083333333335,0.4474074074074075],[0.3414583333333333,0.4014814814814814],[0.3889583333333334,0.3727777777777777],[0.4243750000000001,0.337037037037037],[0.42687499999999995,0.3088888888888888],[0.4432291666666667,0.28648148148148156],[0.49895833333333334,0.29499999999999993],[0.5503125,0.32259259259259265],[0.535625,0.2777777777777778],[0.5607291666666666,0.24055555555555552],[0.5248958333333335,0.2662962962962962],[0.47374999999999995,0.277962962962963],[0.4096874999999999,0.2766666666666666],[0.4096874999999999,0.2766666666666666],[0.3577083333333334,0.2824074074074074],[0.32083333333333336,0.30999999999999994],[0.25062499999999993,0.31814814814814807],[0.18645833333333334,0.3453703703703704],[0.14447916666666671,0.35796296296296287],[0.08239583333333324,0.4403703703703703],[0.028958333333333287,0.4668518518518519],[0.05416666666666667,0.5505555555555555],[0.0696875000000001,0.6446296296296297],[0.1056250000000001,0.7092592592592593],[0.12156250000000005,0.7594444444444445],[0.06416666666666669,0.8],[0.03135416666666669,0.8488888888888888],[0.02020833333333331,0.837037037037037],[-0.051250000000000046,0.8670370370370372],[-0.07072916666666665,0.865],[-0.09906250000000003,0.8842592592592593],[-0.1498958333333333,0.8437037037037037],[-0.16156250000000003,0.8014814814814814],[-0.16156250000000003,0.8014814814814814],[-0.20104166666666667,0.7396296296296296],[-0.20104166666666667,0.7396296296296296],[-0.2055208333333333,0.7066666666666667],[-0.2055208333333333,0.7066666666666667],[-0.16177083333333328,0.6679629629629631],[-0.16177083333333328,0.6679629629629631],[-0.09333333333333335,0.552962962962963],[-0.09333333333333335,0.552962962962963],[-0.09489583333333336,0.477962962962963],[-0.09489583333333336,0.477962962962963],[-0.035208333333333286,0.4227777777777777],[0.011979166666666667,0.2655555555555555],[0.04239583333333338,0.230925925925926],[0.04239583333333338,0.230925925925926],[0.07958333333333342,0.19296296296296306],[0.08114583333333343,0.10314814814814824],[0.06041666666666667,0.02388888888888885],[0.024687500000000046,-0.06981481481481479],[0.028750000000000022,-0.14870370370370373],[0.008124999999999953,-0.15129629629629626],[0.009375,-0.1492592592592593],[-0.0125,-0.19425925925925921],[-0.05437500000000005,-0.12777777777777777],[-0.07927083333333336,-0.1492592592592593],[-0.07749999999999997,-0.1264814814814815],[-0.06875,-0.05888888888888891],[-0.035208333333333286,-0.022037037037036994],[-0.035208333333333286,-0.022037037037036994],[-0.0016666666666666904,0.014814814814814815],[0.00927083333333331,0.10925925925925926],[0.02020833333333331,0.2037037037037037],[-0.004166666666666667,0.21944444444444444],[-0.012812499999999952,0.20500000000000007],[0.022395833333333334,0.21388888888888888],[0.057604166666666616,0.22277777777777769],[0.0743750000000001,0.23462962962962972],[0.06489583333333329,0.15333333333333324],[0.06135416666666664,0.18888888888888888],[0.0578125,0.22444444444444453],[0.06531250000000005,0.14129629629629623],[0.05604166666666662,0.08203703703703695],[0.07666666666666658,0.08351851851851856],[0.09927083333333328,0.09092592592592597],[0.08885416666666662,0.03481481481481473],[0.07770833333333324,-0.052962962962963],[0.0515625,-0.18462962962962962],[0.0515625,-0.18462962962962962],[0.03093750000000005,-0.2101851851851852],[0.022395833333333334,-0.28648148148148145],[0.013854166666666619,-0.36277777777777775],[-0.018020833333333285,-0.3285185185185185],[-0.03312499999999995,-0.3181481481481482],[-0.05385416666666672,-0.35240740740740745],[-0.05385416666666672,-0.35240740740740745],[-0.0751041666666667,-0.3864814814814815],[-0.06239583333333331,-0.3496296296296296],[-0.025833333333333285,-0.3124074074074074],[-0.019270833333333334,-0.26425925925925925],[-0.01895833333333338,-0.24888888888888885],[0.013125000000000024,-0.28592592592592586],[0.002708333333333357,-0.28203703703703703],[0.03999999999999997,-0.3346296296296296],[0.07729166666666672,-0.38722222222222225],[0.12427083333333329,-0.3725925925925926],[0.12291666666666666,-0.387037037037037],[0.11645833333333329,-0.4242592592592593],[0.06114583333333338,-0.41888888888888887],[0.04604166666666672,-0.4566666666666667],[0.057395833333333354,-0.48333333333333334],[0.012916666666666642,-0.4703703703703704],[0.00302083333333331,-0.5031481481481481],[-0.05770833333333331,-0.5281481481481481],[-0.10895833333333335,-0.5442592592592592],[-0.1642708333333334,-0.582962962962963],[-0.1794791666666666,-0.5948148148148148],[-0.20187499999999994,-0.6240740740740741],[-0.209375,-0.6287037037037037],[-0.19333333333333336,-0.62],[-0.17677083333333338,-0.6025925925925926],[-0.17437499999999997,-0.6455555555555555],[-0.1640625,-0.6837037037037037],[-0.1282291666666667,-0.6783333333333333],[-0.10187499999999995,-0.6818518518518518],[-0.05614583333333331,-0.7005555555555556],[-0.03447916666666669,-0.6866666666666666],[-0.012812499999999952,-0.6727777777777778],[-0.004375000000000047,-0.6972222222222222],[-0.0296875,-0.7027777777777777],[-0.0234375,-0.7185185185185186],[-0.005729166666666666,-0.6185185185185185],[-0.0046875,-0.6057407407407408],[-0.01229166666666662,-0.659074074074074],[-0.02677083333333338,-0.6881481481481482],[-0.07385416666666664,-0.7053703703703703],[-0.10177083333333338,-0.6766666666666666],[-0.13062499999999996,-0.6577777777777778],[-0.12416666666666672,-0.6427777777777778],[-0.11895833333333337,-0.6509259259259259],[-0.17572916666666671,-0.6542592592592593],[-0.23177083333333334,-0.7533333333333333],[-0.2404166666666666,-0.7688888888888888],[-0.24906250000000002,-0.7844444444444445],[-0.2508333333333333,-0.8242592592592592],[-0.23083333333333336,-0.8281481481481481],[-0.21489583333333329,-0.8842592592592593],[-0.18843749999999998,-0.9024074074074074],[-0.17145833333333335,-0.9009259259259259],[-0.16854166666666662,-0.9275925925925925],[-0.15135416666666662,-0.9551851851851851],[-0.11791666666666671,-0.9355555555555556],[-0.13177083333333334,-0.9475925925925925],[-0.13333333333333333,-0.8777777777777778],[-0.12281249999999998,-0.78],[-0.11697916666666662,-0.7288888888888889],[-0.10093749999999997,-0.6816666666666668],[-0.11343749999999998,-0.669074074074074],[-0.10729166666666666,-0.6716666666666666],[-0.08791666666666664,-0.6270370370370371],[-0.041666666666666664,-0.5740740740740741],[-0.041666666666666664,-0.5740740740740741],[-0.000833333333333286,-0.5261111111111112],[-0.000833333333333286,-0.5261111111111112],[0.01885416666666669,-0.4087037037037037],[0.01885416666666669,-0.4087037037037037],[0.024374999999999977,-0.3992592592592593],[0.024374999999999977,-0.3992592592592593],[0.007291666666666667,-0.2748148148148148],[0.007291666666666667,-0.2748148148148148],[-0.019791666666666666,-0.06370370370370367],[-0.011458333333333333,0.12851851851851848],[0.01583333333333338,0.3272222222222223],[0.000833333333333286,0.40611111111111103]]","[[-0.08489583333333334,0.02240740740740745,0.00020000000017716957],[-0.08489583333333334,0.02240740740740745,0.041700000000176374],[-0.07552083333333333,0.028518518518518478,0.04670000000018604],[-0.06614583333333333,0.03462962962962971,0.06120000000018422],[-0.04010416666666667,-0.01574074074074074,0.07670000000018717],[-0.0359375,0.007962962962962878,0.09329999999981453],[0.011562500000000024,-0.03333333333333333,0.10999999999999943],[0.059062500000000046,-0.07462962962962966,0.12859999999962213],[0.09927083333333328,-0.11351851851851855,0.14339999999943132],[0.11427083333333338,-0.102962962962963,0.1599999999999966],[0.12239583333333333,-0.08703703703703704,0.1767000000001815],[0.11218750000000005,-0.08296296296296299,0.1944999999999908],[0.10229166666666671,-0.08870370370370366,0.20999999999999375],[0.06802083333333328,-0.07240740740740745,0.2278999999994369],[0.017083333333333308,0.0003703703703704546,0.24450000000000216],[0.03343750000000002,0.0257407407407407,0.2599999999999909],[0.022395833333333334,0.10055555555555547,0.2767000000001758],[0.017604166666666643,0.13555555555555565,0.293399999999437],[-0.016354166666666715,0.2162962962962962,0.3100000000000023],[-0.021875,0.24685185185185177,0.3267000000001872],[-0.012395833333333309,0.2351851851851852,0.34329999999981453],[-0.024583333333333356,0.23648148148148157,0.35999999999999943],[-0.06958333333333329,0.20481481481481487,0.37670000000018433],[-0.07979166666666669,0.12740740740740733,0.3933999999994313],[-0.06833333333333336,0.0742592592592593,0.41309999999961633],[-0.06833333333333336,0.0742592592592593,0.4267000000001815],[-0.16031249999999997,0.07703703703703708,0.4433999999994427],[-0.16031249999999997,0.07703703703703708,0.4600999999996276],[-0.2578125,0.06666666666666667,0.47670000000017865],[-0.2578125,0.06666666666666667,0.49339999999943984],[-0.36447916666666663,0.15092592592592594,0.5099999999999909],[-0.36447916666666663,0.15092592592592594,0.5267000000001758],[-0.42218749999999994,0.15703703703703695,0.543399999999437],[-0.42218749999999994,0.15703703703703695,0.5600999999996219],[-0.4946875,0.13537037037037042,0.5767000000001872],[-0.5858333333333333,0.19074074074074074,0.5959999999999894],[-0.5858333333333333,0.19074074074074074,0.6103999999994301],[-0.6646875,0.2625925925925925,0.6267000000001843],[-0.6933333333333334,0.32462962962962955,0.6465999999996228],[-0.6361458333333334,0.4359259259259259,0.6662000000001882],[-0.6361458333333334,0.4359259259259259,0.676899999999435],[-0.6089583333333334,0.46703703703703714,0.6935999999996199],[-0.6089583333333334,0.46703703703703714,0.7102000000001851],[-0.5189583333333333,0.45925925925925926,0.7295000000000016],[-0.4188541666666667,0.5162962962962963,0.7434999999999974],[-0.31531250000000005,0.5264814814814814,0.7602000000001823],[-0.27458333333333335,0.5557407407407408,0.7767999999998096],[-0.2101041666666667,0.6003703703703704,0.7952999999998127],[-0.14510416666666662,0.6212962962962963,0.8102000000001794],[-0.0655208333333333,0.5918518518518519,0.8282000000001801],[0.02364583333333338,0.6270370370370371,0.8433999999994342],[0.016562499999999977,0.6366666666666666,0.8622000000001862],[0.03093750000000005,0.7175925925925926,0.876799999999804],[0.03093750000000005,0.7175925925925926,0.8935999999996227],[0.041875000000000044,0.8118518518518518,0.9133999999994415],[0.041875000000000044,0.8118518518518518,0.926899999999435],[0.022812499999999975,0.7624074074074075,0.9435000000000002],[0.020624999999999952,0.7416666666666667,0.9633999999994387],[0.03718750000000005,0.727037037037037,0.9769999999999897],[0.021145833333333287,0.7514814814814814,0.9934999999999974],[-0.022500000000000023,0.7516666666666666,1.0100999999996247],[-0.036666666666666715,0.7574074074074074,1.0300999999996208],[-0.09312499999999997,0.7709259259259258,1.0462999999998033],[-0.1546875,0.7759259259259259,1.0620999999996172],[-0.18364583333333329,0.7405555555555555,1.0768999999994406],[-0.2107291666666666,0.7081481481481481,1.0959999999999894],[-0.22166666666666662,0.7142592592592594,1.110099999999619],[-0.25,0.6837037037037038,1.129599999999627],[-0.2811458333333333,0.6592592592592592,1.1467000000001804],[-0.25843750000000004,0.5994444444444446,1.1615999999996234],[-0.23656250000000004,0.5862962962962963,1.1767999999998153],[-0.24416666666666664,0.5675925925925925,1.1935000000000002],[-0.22010416666666663,0.5568518518518519,1.2137000000001876],[-0.22010416666666663,0.5568518518518519,1.2268999999994321],[-0.18354166666666671,0.4890740740740741,1.2434999999999974],[-0.20052083333333334,0.4579629629629629,1.264899999999443],[-0.20052083333333334,0.4579629629629629,1.288200000000188],[-0.2265625,0.4183333333333333,1.3013999999994326],[-0.2265625,0.4183333333333333,1.310099999999622],[-0.23635416666666664,0.4207407407407408,1.328599999999625],[-0.24906250000000002,0.4699999999999999,1.3435999999996255],[-0.1898958333333333,0.5322222222222222,1.3602000000001766],[-0.1716666666666666,0.5625925925925925,1.376799999999804],[-0.14677083333333332,0.5625925925925925,1.3950999999996156],[-0.12041666666666669,0.5738888888888889,1.410200000000188],[-0.07281249999999997,0.5275925925925925,1.4287999999998107],[-0.05322916666666669,0.5383333333333334,1.4435000000000002],[0.009895833333333333,0.5218518518518518,1.461799999999812],[0.05260416666666667,0.5477777777777777,1.4767999999998125],[0.10145833333333343,0.6048148148148148,1.4933999999994398],[0.15322916666666658,0.615,1.512399999999431],[0.18583333333333343,0.6007407407407407,1.5285999999996278],[0.1790625000000001,0.5800000000000001,1.5435999999996284],[0.19114583333333332,0.5479629629629629,1.561599999999629],[0.24562499999999995,0.4696296296296297,1.5767999999998068],[0.2626041666666666,0.4246296296296295,1.5932999999998145],[0.3082291666666668,0.39351851851851855,1.610099999999619],[0.3181250000000001,0.377962962962963,1.6297000000001844],[0.3165625000000001,0.3333333333333333,1.6457000000001756],[0.30739583333333326,0.3161111111111112,1.6600999999996162],[0.3256249999999999,0.2898148148148148,1.6767999999998153],[0.32447916666666665,0.2581481481481481,1.6935000000000002],[0.3650000000000001,0.2716666666666668,1.7133999999994387],[0.38406250000000003,0.29685185185185176,1.727499999999992],[0.35927083333333343,0.35703703703703693,1.743599999999617],[0.35875000000000007,0.4101851851851852,1.7600999999996247],[0.35875000000000007,0.4101851851851852,1.778499999999994],[0.3451041666666666,0.46333333333333343,1.7934999999999945],[0.31791666666666674,0.5005555555555554,1.8102000000001794],[0.3341666666666666,0.5109259259259259,1.828899999999436],[0.3790625000000001,0.5088888888888888,1.8434999999999917],[0.3567708333333333,0.5083333333333333,1.8599999999999994],[0.33927083333333335,0.4474074074074075,1.8767000000001843],[0.3414583333333333,0.4014814814814814,1.8933999999994313],[0.3889583333333334,0.3727777777777777,1.9100999999996162],[0.4243750000000001,0.337037037037037,1.9290999999996217],[0.42687499999999995,0.3088888888888888,1.9435000000000002],[0.4432291666666667,0.28648148148148156,1.9602000000001851],[0.49895833333333334,0.29499999999999993,1.9767999999998125],[0.5503125,0.32259259259259265,1.9949999999999903],[0.535625,0.2777777777777778,2.0100999999996247],[0.5607291666666666,0.24055555555555552,2.0267999999998096],[0.5248958333333335,0.2662962962962962,2.0434999999999945],[0.47374999999999995,0.277962962962963,2.0617000000001866],[0.4096874999999999,0.2766666666666666,2.076799999999807],[0.4096874999999999,0.2766666666666666,2.093399999999434],[0.3577083333333334,0.2824074074074074,2.1102000000001766],[0.32083333333333336,0.30999999999999994,2.129200000000182],[0.25062499999999993,0.31814814814814807,2.1433999999994313],[0.18645833333333334,0.3453703703703704,2.160200000000188],[0.14447916666666671,0.35796296296296287,2.1767999999998153],[0.08239583333333324,0.4403703703703703,2.195099999999627],[0.028958333333333287,0.4668518518518519,2.2100999999996276],[0.05416666666666667,0.5505555555555555,2.2288999999994417],[0.0696875000000001,0.6446296296296297,2.24339999999944],[0.1056250000000001,0.7092592592592593,2.2617000000001752],[0.12156250000000005,0.7594444444444445,2.2768999999994435],[0.06416666666666669,0.8,2.2934999999999945],[0.03135416666666669,0.8488888888888888,2.3122999999998086],[0.02020833333333331,0.837037037037037,2.327099999999618],[-0.051250000000000046,0.8670370370370372,2.3434999999999917],[-0.07072916666666665,0.865,2.3620999999996286],[-0.09906250000000003,0.8842592592592593,2.376799999999804],[-0.1498958333333333,0.8437037037037037,2.393499999999989],[-0.16156250000000003,0.8014814814814814,2.410099999999616],[-0.16156250000000003,0.8014814814814814,2.4307000000001864],[-0.20104166666666667,0.7396296296296296,2.44359999999962],[-0.20104166666666667,0.7396296296296296,2.460200000000185],[-0.2055208333333333,0.7066666666666667,2.4813999999994394],[-0.2055208333333333,0.7066666666666667,2.49339999999944],[-0.16177083333333328,0.6679629629629631,2.5100999999996247],[-0.16177083333333328,0.6679629629629631,2.530599999999623],[-0.09333333333333335,0.552962962962963,2.543700000000186],[-0.09333333333333335,0.552962962962963,2.560099999999622],[-0.09489583333333336,0.477962962962963,2.5832000000001756],[-0.09489583333333336,0.477962962962963,2.593399999999434],[-0.035208333333333286,0.4227777777777777,2.610099999999619],[0.011979166666666667,0.2655555555555555,2.629899999999438],[0.04239583333333338,0.230925925925926,2.6445999999996275],[0.04239583333333338,0.230925925925926,2.660099999999616],[0.07958333333333342,0.19296296296296306,2.676899999999435],[0.08114583333333343,0.10314814814814824,2.6957999999998066],[0.06041666666666667,0.02388888888888885,2.710200000000185],[0.024687500000000046,-0.06981481481481479,2.7299999999999898],[0.028750000000000022,-0.14870370370370373,2.7443999999994304],[0.008124999999999953,-0.15129629629629626,2.7604999999999933],[0.009375,-0.1492592592592593,2.776700000000176],[-0.0125,-0.19425925925925921,2.795799999999815],[-0.05437500000000005,-0.12777777777777777,2.8102000000001794],[-0.07927083333333336,-0.1492592592592593,2.828899999999436],[-0.07749999999999997,-0.1264814814814815,2.843399999999434],[-0.06875,-0.05888888888888891,2.862200000000186],[-0.035208333333333286,-0.022037037037036994,2.876799999999804],[-0.035208333333333286,-0.022037037037036994,2.8933999999994313],[-0.0016666666666666904,0.014814814814814815,2.913499999999999],[0.00927083333333331,0.10925925925925926,2.9293999999994327],[0.02020833333333331,0.2037037037037037,2.9433999999994427],[-0.004166666666666667,0.21944444444444444,2.9628999999994363],[-0.012812499999999952,0.20500000000000007,2.9769999999999897],[0.022395833333333334,0.21388888888888888,2.9934999999999974],[0.057604166666666616,0.22277777777777769,3.0100999999996247],[0.0743750000000001,0.23462962962962972,3.0287000000001854],[0.06489583333333329,0.15333333333333324,3.043399999999437],[0.06135416666666664,0.18888888888888888,3.060099999999622],[0.0578125,0.22444444444444453,3.076799999999807],[0.06531250000000005,0.14129629629629623,3.0957000000001784],[0.05604166666666662,0.08203703703703695,3.1102000000001766],[0.07666666666666658,0.08351851851851856,3.128299999999811],[0.09927083333333328,0.09092592592592597,3.146799999999814],[0.08885416666666662,0.03481481481481473,3.161399999999432],[0.07770833333333324,-0.052962962962963,3.1767000000001815],[0.0515625,-0.18462962962962962,3.198099999999627],[0.0515625,-0.18462962962962962,3.2100999999996276],[0.03093750000000005,-0.2101851851851852,3.2267999999998125],[0.022395833333333334,-0.28648148148148145,3.24339999999944],[0.013854166666666619,-0.36277777777777775,3.261899999999443],[-0.018020833333333285,-0.3285185185185185,3.276700000000176],[-0.03312499999999995,-0.3181481481481482,3.2934999999999945],[-0.05385416666666672,-0.35240740740740745,3.314099999999627],[-0.05385416666666672,-0.35240740740740745,3.326799999999807],[-0.0751041666666667,-0.3864814814814815,3.343399999999434],[-0.06239583333333331,-0.3496296296296296,3.360099999999619],[-0.025833333333333285,-0.3124074074074074,3.3800999999996293],[-0.019270833333333334,-0.26425925925925925,3.3950999999996156],[-0.01895833333333338,-0.24888888888888885,3.4099999999999966],[0.013125000000000024,-0.28592592592592586,3.4288999999994303],[0.002708333333333357,-0.28203703703703703,3.443299999999809],[0.03999999999999997,-0.3346296296296296,3.459899999999436],[0.07729166666666672,-0.38722222222222225,3.4767000000001786],[0.12427083333333329,-0.3725925925925926,3.4970999999996195],[0.12291666666666666,-0.387037037037037,3.5128999999994335],[0.11645833333333329,-0.4242592592592593,3.5300999999996208],[0.06114583333333338,-0.41888888888888887,3.544599999999619],[0.04604166666666672,-0.4566666666666667,3.5610999999996267],[0.057395833333333354,-0.48333333333333334,3.576700000000187],[0.012916666666666642,-0.4703703703703704,3.5932999999998145],[0.00302083333333331,-0.5031481481481481,3.6099999999999994],[-0.05770833333333331,-0.5281481481481481,3.629299999999816],[-0.10895833333333335,-0.5442592592592592,3.6444999999999936],[-0.1642708333333334,-0.582962962962963,3.659899999999439],[-0.1794791666666666,-0.5948148148148148,3.676599999999624],[-0.20187499999999994,-0.6240740740740741,3.693299999999809],[-0.209375,-0.6287037037037037,3.7099999999999937],[-0.19333333333333336,-0.62,3.7295000000000016],[-0.17677083333333338,-0.6025925925925926,3.743299999999806],[-0.17437499999999997,-0.6455555555555555,3.7598999999994334],[-0.1640625,-0.6837037037037037,3.776700000000176],[-0.1282291666666667,-0.6783333333333333,3.7950000000000017],[-0.10187499999999995,-0.6818518518518518,3.8100000000000023],[-0.05614583333333331,-0.7005555555555556,3.8277999999998116],[-0.03447916666666669,-0.6866666666666666,3.8468999999994367],[-0.012812499999999952,-0.6727777777777778,3.8612000000001814],[-0.004375000000000047,-0.6972222222222222,3.876599999999627],[-0.0296875,-0.7027777777777777,3.8932999999998117],[-0.0234375,-0.7185185185185186,3.9099999999999966],[-0.005729166666666666,-0.6185185185185185,3.929200000000179],[-0.0046875,-0.6057407407407408,3.943299999999809],[-0.01229166666666662,-0.659074074074074,3.9599999999999937],[-0.02677083333333338,-0.6881481481481482,3.976599999999621],[-0.07385416666666664,-0.7053703703703703,3.99339999999944],[-0.10177083333333338,-0.6766666666666666,4.009999999999991],[-0.13062499999999996,-0.6577777777777778,4.026599999999618],[-0.12416666666666672,-0.6427777777777778,4.043299999999803],[-0.11895833333333337,-0.6509259259259259,4.060000000000002],[-0.17572916666666671,-0.6542592592592593,4.07659999999963],[-0.23177083333333334,-0.7533333333333333,4.0932999999998145],[-0.2404166666666666,-0.7688888888888888,4.109999999999999],[-0.24906250000000002,-0.7844444444444445,4.126599999999627],[-0.2508333333333333,-0.8242592592592592,4.143299999999812],[-0.23083333333333336,-0.8281481481481481,4.159999999999997],[-0.21489583333333329,-0.8842592592592593,4.176599999999624],[-0.18843749999999998,-0.9024074074074074,4.193299999999809],[-0.17145833333333335,-0.9009259259259259,4.212299999999814],[-0.16854166666666662,-0.9275925925925925,4.228700000000188],[-0.15135416666666662,-0.9551851851851851,4.243499999999997],[-0.11791666666666671,-0.9355555555555556,4.260099999999625],[-0.13177083333333334,-0.9475925925925925,4.278700000000185],[-0.13333333333333333,-0.8777777777777778,4.293399999999437],[-0.12281249999999998,-0.78,4.310299999999813],[-0.11697916666666662,-0.7288888888888889,4.32959999999963],[-0.10093749999999997,-0.6816666666666668,4.344599999999616],[-0.11343749999999998,-0.669074074074074,4.359999999999999],[-0.10729166666666666,-0.6716666666666666,4.376599999999627],[-0.08791666666666664,-0.6270370370370371,4.393299999999812],[-0.041666666666666664,-0.5740740740740741,4.409999999999997],[-0.041666666666666664,-0.5740740740740741,4.4267000000001815],[-0.000833333333333286,-0.5261111111111112,4.443299999999809],[-0.000833333333333286,-0.5261111111111112,4.459899999999436],[0.01885416666666669,-0.4087037037037037,4.476599999999621],[0.01885416666666669,-0.4087037037037037,4.493299999999806],[0.024374999999999977,-0.3992592592592593,4.509899999999433],[0.024374999999999977,-0.3992592592592593,4.526700000000176],[0.007291666666666667,-0.2748148148148148,4.543299999999803],[0.007291666666666667,-0.2748148148148148,4.560000000000002],[-0.019791666666666666,-0.06370370370370367,4.57659999999963],[-0.011458333333333333,0.12851851851851848,4.596799999999803],[0.01583333333333338,0.3272222222222223,4.611299999999815],[0.000833333333333286,0.40611111111111103,4.629599999999627]]","[0.00020000000017716957,0.041700000000176374,0.04670000000018604,0.06120000000018422,0.07670000000018717,0.09329999999981453,0.10999999999999943,0.12859999999962213,0.14339999999943132,0.1599999999999966,0.1767000000001815,0.1944999999999908,0.20999999999999375,0.2278999999994369,0.24450000000000216,0.2599999999999909,0.2767000000001758,0.293399999999437,0.3100000000000023,0.3267000000001872,0.34329999999981453,0.35999999999999943,0.37670000000018433,0.3933999999994313,0.41309999999961633,0.4267000000001815,0.4433999999994427,0.4600999999996276,0.47670000000017865,0.49339999999943984,0.5099999999999909,0.5267000000001758,0.543399999999437,0.5600999999996219,0.5767000000001872,0.5959999999999894,0.6103999999994301,0.6267000000001843,0.6465999999996228,0.6662000000001882,0.676899999999435,0.6935999999996199,0.7102000000001851,0.7295000000000016,0.7434999999999974,0.7602000000001823,0.7767999999998096,0.7952999999998127,0.8102000000001794,0.8282000000001801,0.8433999999994342,0.8622000000001862,0.876799999999804,0.8935999999996227,0.9133999999994415,0.926899999999435,0.9435000000000002,0.9633999999994387,0.9769999999999897,0.9934999999999974,1.0100999999996247,1.0300999999996208,1.0462999999998033,1.0620999999996172,1.0768999999994406,1.0959999999999894,1.110099999999619,1.129599999999627,1.1467000000001804,1.1615999999996234,1.1767999999998153,1.1935000000000002,1.2137000000001876,1.2268999999994321,1.2434999999999974,1.264899999999443,1.288200000000188,1.3013999999994326,1.310099999999622,1.328599999999625,1.3435999999996255,1.3602000000001766,1.376799999999804,1.3950999999996156,1.410200000000188,1.4287999999998107,1.4435000000000002,1.461799999999812,1.4767999999998125,1.4933999999994398,1.512399999999431,1.5285999999996278,1.5435999999996284,1.561599999999629,1.5767999999998068,1.5932999999998145,1.610099999999619,1.6297000000001844,1.6457000000001756,1.6600999999996162,1.6767999999998153,1.6935000000000002,1.7133999999994387,1.727499999999992,1.743599999999617,1.7600999999996247,1.778499999999994,1.7934999999999945,1.8102000000001794,1.828899999999436,1.8434999999999917,1.8599999999999994,1.8767000000001843,1.8933999999994313,1.9100999999996162,1.9290999999996217,1.9435000000000002,1.9602000000001851,1.9767999999998125,1.9949999999999903,2.0100999999996247,2.0267999999998096,2.0434999999999945,2.0617000000001866,2.076799999999807,2.093399999999434,2.1102000000001766,2.129200000000182,2.1433999999994313,2.160200000000188,2.1767999999998153,2.195099999999627,2.2100999999996276,2.2288999999994417,2.24339999999944,2.2617000000001752,2.2768999999994435,2.2934999999999945,2.3122999999998086,2.327099999999618,2.3434999999999917,2.3620999999996286,2.376799999999804,2.393499999999989,2.410099999999616,2.4307000000001864,2.44359999999962,2.460200000000185,2.4813999999994394,2.49339999999944,2.5100999999996247,2.530599999999623,2.543700000000186,2.560099999999622,2.5832000000001756,2.593399999999434,2.610099999999619,2.629899999999438,2.6445999999996275,2.660099999999616,2.676899999999435,2.6957999999998066,2.710200000000185,2.7299999999999898,2.7443999999994304,2.7604999999999933,2.776700000000176,2.795799999999815,2.8102000000001794,2.828899999999436,2.843399999999434,2.862200000000186,2.876799999999804,2.8933999999994313,2.913499999999999,2.9293999999994327,2.9433999999994427,2.9628999999994363,2.9769999999999897,2.9934999999999974,3.0100999999996247,3.0287000000001854,3.043399999999437,3.060099999999622,3.076799999999807,3.0957000000001784,3.1102000000001766,3.128299999999811,3.146799999999814,3.161399999999432,3.1767000000001815,3.198099999999627,3.2100999999996276,3.2267999999998125,3.24339999999944,3.261899999999443,3.276700000000176,3.2934999999999945,3.314099999999627,3.326799999999807,3.343399999999434,3.360099999999619,3.3800999999996293,3.3950999999996156,3.4099999999999966,3.4288999999994303,3.443299999999809,3.459899999999436,3.4767000000001786,3.4970999999996195,3.5128999999994335,3.5300999999996208,3.544599999999619,3.5610999999996267,3.576700000000187,3.5932999999998145,3.6099999999999994,3.629299999999816,3.6444999999999936,3.659899999999439,3.676599999999624,3.693299999999809,3.7099999999999937,3.7295000000000016,3.743299999999806,3.7598999999994334,3.776700000000176,3.7950000000000017,3.8100000000000023,3.8277999999998116,3.8468999999994367,3.8612000000001814,3.876599999999627,3.8932999999998117,3.9099999999999966,3.929200000000179,3.943299999999809,3.9599999999999937,3.976599999999621,3.99339999999944,4.009999999999991,4.026599999999618,4.043299999999803,4.060000000000002,4.07659999999963,4.0932999999998145,4.109999999999999,4.126599999999627,4.143299999999812,4.159999999999997,4.176599999999624,4.193299999999809,4.212299999999814,4.228700000000188,4.243499999999997,4.260099999999625,4.278700000000185,4.293399999999437,4.310299999999813,4.32959999999963,4.344599999999616,4.359999999999999,4.376599999999627,4.393299999999812,4.409999999999997,4.4267000000001815,4.443299999999809,4.459899999999436,4.476599999999621,4.493299999999806,4.509899999999433,4.526700000000176,4.543299999999803,4.560000000000002,4.57659999999963,4.596799999999803,4.611299999999815,4.629599999999627]","[1733210817573,1733210817607,1733210817613,1733210817627,1733210817642,1733210817659,1733210817676,1733210817694,1733210817709,1733210817726,1733210817742,1733210817760,1733210817776,1733210817794,1733210817810,1733210817826,1733210817842,1733210817859,1733210817876,1733210817892,1733210817909,1733210817926,1733210817942,1733210817959,1733210817979,1733210817992,1733210818009,1733210818026,1733210818042,1733210818059,1733210818076,1733210818093,1733210818109,1733210818126,1733210818142,1733210818162,1733210818176,1733210818192,1733210818212,1733210818232,1733210818243,1733210818259,1733210818276,1733210818295,1733210818309,1733210818326,1733210818343,1733210818361,1733210818376,1733210818394,1733210818409,1733210818428,1733210818443,1733210818459,1733210818479,1733210818493,1733210818509,1733210818529,1733210818543,1733210818559,1733210818576,1733210818596,1733210818612,1733210818628,1733210818643,1733210818662,1733210818676,1733210818695,1733210818712,1733210818727,1733210818743,1733210818759,1733210818780,1733210818793,1733210818809,1733210818831,1733210818854,1733210818867,1733210818876,1733210818894,1733210818909,1733210818926,1733210818943,1733210818961,1733210818976,1733210818995,1733210819009,1733210819027,1733210819043,1733210819059,1733210819078,1733210819094,1733210819109,1733210819127,1733210819143,1733210819159,1733210819176,1733210819195,1733210819211,1733210819226,1733210819243,1733210819259,1733210819279,1733210819293,1733210819309,1733210819326,1733210819344,1733210819359,1733210819376,1733210819395,1733210819409,1733210819426,1733210819442,1733210819459,1733210819476,1733210819495,1733210819509,1733210819526,1733210819543,1733210819561,1733210819576,1733210819593,1733210819609,1733210819627,1733210819643,1733210819659,1733210819676,1733210819695,1733210819709,1733210819726,1733210819743,1733210819761,1733210819776,1733210819795,1733210819809,1733210819828,1733210819843,1733210819859,1733210819878,1733210819893,1733210819909,1733210819928,1733210819943,1733210819959,1733210819976,1733210819996,1733210820009,1733210820026,1733210820047,1733210820059,1733210820076,1733210820096,1733210820109,1733210820126,1733210820149,1733210820159,1733210820176,1733210820196,1733210820210,1733210820226,1733210820243,1733210820262,1733210820276,1733210820296,1733210820310,1733210820326,1733210820342,1733210820362,1733210820376,1733210820395,1733210820409,1733210820428,1733210820443,1733210820459,1733210820479,1733210820495,1733210820509,1733210820529,1733210820543,1733210820559,1733210820576,1733210820594,1733210820609,1733210820626,1733210820643,1733210820661,1733210820676,1733210820694,1733210820713,1733210820727,1733210820742,1733210820764,1733210820776,1733210820793,1733210820809,1733210820828,1733210820843,1733210820859,1733210820880,1733210820893,1733210820909,1733210820926,1733210820946,1733210820961,1733210820976,1733210820995,1733210821009,1733210821026,1733210821043,1733210821063,1733210821079,1733210821096,1733210821110,1733210821127,1733210821142,1733210821159,1733210821176,1733210821195,1733210821210,1733210821226,1733210821242,1733210821259,1733210821276,1733210821295,1733210821309,1733210821326,1733210821342,1733210821361,1733210821376,1733210821394,1733210821413,1733210821427,1733210821442,1733210821459,1733210821476,1733210821495,1733210821509,1733210821526,1733210821542,1733210821559,1733210821576,1733210821592,1733210821609,1733210821626,1733210821642,1733210821659,1733210821676,1733210821692,1733210821709,1733210821726,1733210821742,1733210821759,1733210821778,1733210821794,1733210821809,1733210821826,1733210821844,1733210821859,1733210821876,1733210821895,1733210821910,1733210821926,1733210821942,1733210821959,1733210821976,1733210821992,1733210822009,1733210822026,1733210822042,1733210822059,1733210822076,1733210822092,1733210822109,1733210822126,1733210822142,1733210822163,1733210822177,1733210822195]","[[878.5,552.1],[878.5,552.1],[887.5,555.4],[896.5,558.7],[921.5,531.5],[925.5,544.3],[971.1,522],[1016.7,499.7],[1055.3,478.7],[1069.7,484.4],[1077.5,493],[1067.7,495.2],[1058.2,492.1],[1025.3,500.9],[976.4,540.2],[992.1,553.9],[981.5,594.3],[976.9,613.2],[944.3,656.8],[939,673.3],[948.1,667],[936.4,667.7],[893.2,650.6],[883.4,608.8],[894.4,580.1],[894.4,580.1],[806.1,581.6],[806.1,581.6],[712.5,576],[712.5,576],[610.1,621.5],[610.1,621.5],[554.7,624.8],[554.7,624.8],[485.1,613.1],[397.6,643],[397.6,643],[321.9,681.8],[294.4,715.3],[349.3,775.4],[349.3,775.4],[375.4,792.2],[375.4,792.2],[461.8,788],[557.9,818.8],[657.3,824.3],[696.4,840.1],[758.3,864.2],[820.7,875.5],[897.1,859.6],[982.7,878.6],[975.9,883.8],[989.7,927.5],[989.7,927.5],[1000.2,978.4],[1000.2,978.4],[981.9,951.7],[979.8,940.5],[995.7,932.6],[980.3,945.8],[938.4,945.9],[924.8,949],[870.6,956.3],[811.5,959],[783.7,939.9],[757.7,922.4],[747.2,925.7],[720,909.2],[690.1,896],[711.9,863.7],[732.9,856.6],[725.6,846.5],[748.7,840.7],[748.7,840.7],[783.8,804.1],[767.5,787.3],[767.5,787.3],[742.5,765.9],[742.5,765.9],[733.1,767.2],[720.9,793.8],[777.7,827.4],[795.2,843.8],[819.1,843.8],[844.4,849.9],[890.1,824.9],[908.9,830.7],[969.5,821.8],[1010.5,835.8],[1057.4,866.6],[1107.1,872.1],[1138.4,864.4],[1131.9,853.2],[1143.5,835.9],[1195.8,793.6],[1212.1,769.3],[1255.9,752.5],[1265.4,744.1],[1263.9,720],[1255.1,710.7],[1272.6,696.5],[1271.5,679.4],[1310.4,686.7],[1328.7,700.3],[1304.9,732.8],[1304.4,761.5],[1304.4,761.5],[1291.3,790.2],[1265.2,810.3],[1280.8,815.9],[1323.9,814.8],[1302.5,814.5],[1285.7,781.6],[1287.8,756.8],[1333.4,741.3],[1367.4,722],[1369.8,706.8],[1385.5,694.7],[1439,699.3],[1488.3,714.2],[1474.2,690],[1498.3,669.9],[1463.9,683.8],[1414.8,690.1],[1353.3,689.4],[1353.3,689.4],[1303.4,692.5],[1268,707.4],[1200.6,711.8],[1139,726.5],[1098.7,733.3],[1039.1,777.8],[987.8,792.1],[1012,837.3],[1026.9,888.1],[1061.4,923],[1076.7,950.1],[1021.6,972],[990.1,998.4],[979.4,992],[910.8,1008.2],[892.1,1007.1],[864.9,1017.5],[816.1,995.6],[804.9,972.8],[804.9,972.8],[767,939.4],[767,939.4],[762.7,921.6],[762.7,921.6],[804.7,900.7],[804.7,900.7],[870.4,838.6],[870.4,838.6],[868.9,798.1],[868.9,798.1],[926.2,768.3],[971.5,683.4],[1000.7,664.7],[1000.7,664.7],[1036.4,644.2],[1037.9,595.7],[1018,552.9],[983.7,502.3],[987.6,459.7],[967.8,458.3],[969,459.4],[948,435.1],[907.8,471],[883.9,459.4],[885.6,471.7],[894,508.2],[926.2,528.1],[926.2,528.1],[958.4,548],[968.9,599],[979.4,650],[956,658.5],[947.7,650.7],[981.5,655.5],[1015.3,660.3],[1031.4,666.7],[1022.3,622.8],[1018.9,642],[1015.5,661.2],[1022.7,616.3],[1013.8,584.3],[1033.6,585.1],[1055.3,589.1],[1045.3,558.8],[1034.6,511.4],[1009.5,440.3],[1009.5,440.3],[989.7,426.5],[981.5,385.3],[973.3,344.1],[942.7,362.6],[928.2,368.2],[908.3,349.7],[908.3,349.7],[887.9,331.3],[900.1,351.2],[935.2,371.3],[941.5,397.3],[941.8,405.6],[972.6,385.6],[962.6,387.7],[998.4,359.3],[1034.2,330.9],[1079.3,338.8],[1078,331],[1071.8,310.9],[1018.7,313.8],[1004.2,293.4],[1015.1,279],[972.4,286],[962.9,268.3],[904.6,254.8],[855.4,246.1],[802.3,225.2],[787.7,218.8],[766.2,203],[759,200.5],[774.4,205.2],[790.3,214.6],[792.6,191.4],[802.5,170.8],[836.9,173.7],[862.2,171.8],[906.1,161.7],[926.9,169.2],[947.7,176.7],[955.8,163.5],[931.5,160.5],[937.5,152],[954.5,206],[955.5,212.9],[948.2,184.1],[934.3,168.4],[889.1,159.1],[862.3,174.6],[834.6,184.8],[840.8,192.9],[845.8,188.5],[791.3,186.7],[737.5,133.2],[729.2,124.8],[720.9,116.4],[719.2,94.9],[738.4,92.8],[753.7,62.5],[779.1,52.7],[795.4,53.5],[798.2,39.1],[814.7,24.2],[846.8,34.8],[833.5,28.3],[832,66],[842.1,118.8],[847.7,146.4],[863.1,171.9],[851.1,178.7],[857,177.3],[875.6,201.4],[920,230],[920,230],[959.2,255.9],[959.2,255.9],[978.1,319.3],[978.1,319.3],[983.4,324.4],[983.4,324.4],[967,391.6],[967,391.6],[941,505.6],[949,609.4],[975.2,716.7],[960.8,759.3]]","[0,0.5333]","[0.5333,0.5333]","[-0.5333,-0.5333]","[-0.5333,0]","[0,-0.5333]","[0.5333,-0.5333]","[0,0]","[0.5333,0]",0,0,0,0,1,3,Monitor,11,9,9,1
