inst1_resp.keys,inst1_resp.rt,calibrationMouse.x,calibrationMouse.y,calibrationMouse.leftButton,calibrationMouse.midButton,calibrationMouse.rightButton,calibrationClick.x,calibrationClick.y,calibrationClick.leftButton,calibrationClick.midButton,calibrationClick.rightButton,calibrationClick.clicked_name,trialsc.thisRepN,trialsc.thisTrialN,trialsc.thisN,trialsc.thisIndex,trialsc.ran,calibration_x,calibration_y,participant,session,date,expName,psychopyVersion,OS,frameRate,ScreenRes_pixels,Camera_pixels,mouse_2.x,mouse_2.y,mouse_2.leftButton,mouse_2.midButton,mouse_2.rightButton,mouse_2.time,mouse_2.clicked_name,mouse.x,mouse.y,mouse.leftButton,mouse.midButton,mouse.rightButton,mouse.time,mouse.clicked_name,Choice,Trial,TrialDuration,MOUSE_GAZE,ET_GAZE,ET_GAZE_x_T,time,unixTime,ET_GAZE_NF,Loc_Option1_label,Loc_Option2_label,Loc_Cost_label,Loc_Qual_label,Loc_Option1_cost,Loc_Option2_cost,Loc_Option1_quality,Loc_Option2_quality,trials.thisRepN,trials.thisTrialN,trials.thisN,trials.thisIndex,trials.ran,Block,Device,cost1,qual1,cost2,qual2
space,2.6913,-1,-0.998148148,1,0,0,-0.672916667,-0.32037037,1,0,0,calibration_square,0,0,0,1,1,-0.67,-0.33,35,001,2024-12-02_17h45.48.924,Attention_exp_legacy,2023.1.0,Win32,59.88023952,,,,,,,,,,,,,,,,,,,,,,,,,,,,,,,,,,,,,,,,,,,,
,,,,,,,-0.010416667,0.675925926,1,0,0,,0,1,1,13,1,0,0.67,35,001,2024-12-02_17h45.48.924,Attention_exp_legacy,2023.1.0,Win32,59.88023952,,,,,,,,,,,,,,,,,,,,,,,,,,,,,,,,,,,,,,,,,,,,
,,,,,,,-0.675,-0.672222222,1,0,0,calibration_square,0,2,2,0,1,-0.67,-0.67,35,001,2024-12-02_17h45.48.924,Attention_exp_legacy,2023.1.0,Win32,59.88023952,,,,,,,,,,,,,,,,,,,,,,,,,,,,,,,,,,,,,,,,,,,,
,,,,,,,0.663541667,0.674074074,1,0,0,calibration_square,0,3,3,19,1,0.67,0.67,35,001,2024-12-02_17h45.48.924,Attention_exp_legacy,2023.1.0,Win32,59.88023952,,,,,,,,,,,,,,,,,,,,,,,,,,,,,,,,,,,,,,,,,,,,
,,,,,,,0.330208333,-0.331481481,1,0,0,calibration_square,0,4,4,15,1,0.33,-0.33,35,001,2024-12-02_17h45.48.924,Attention_exp_legacy,2023.1.0,Win32,59.88023952,,,,,,,,,,,,,,,,,,,,,,,,,,,,,,,,,,,,,,,,,,,,
,,,,,,,-0.001041667,0.333333333,1,0,0,calibration_square,0,5,5,12,1,0,0.33,35,001,2024-12-02_17h45.48.924,Attention_exp_legacy,2023.1.0,Win32,59.88023952,,,,,,,,,,,,,,,,,,,,,,,,,,,,,,,,,,,,,,,,,,,,
,,,,,,,0.3375,-0.67037037,1,0,0,calibration_square,0,6,6,14,1,0.33,-0.67,35,001,2024-12-02_17h45.48.924,Attention_exp_legacy,2023.1.0,Win32,59.88023952,,,,,,,,,,,,,,,,,,,,,,,,,,,,,,,,,,,,,,,,,,,,
,,,,,,,0.3375,0.014814815,1,0,0,,0,7,7,16,1,0.33,0,35,001,2024-12-02_17h45.48.924,Attention_exp_legacy,2023.1.0,Win32,59.88023952,,,,,,,,,,,,,,,,,,,,,,,,,,,,,,,,,,,,,,,,,,,,
,,,,,,,-0.340625,0,1,0,0,,0,8,8,6,1,-0.33,0,35,001,2024-12-02_17h45.48.924,Attention_exp_legacy,2023.1.0,Win32,59.88023952,,,,,,,,,,,,,,,,,,,,,,,,,,,,,,,,,,,,,,,,,,,,
,,,,,,,0.666666667,-0.666666667,1,0,0,calibration_square,0,9,9,20,1,0.67,-0.67,35,001,2024-12-02_17h45.48.924,Attention_exp_legacy,2023.1.0,Win32,59.88023952,,,,,,,,,,,,,,,,,,,,,,,,,,,,,,,,,,,,,,,,,,,,
,,,,,,,0.334375,0.662962963,1,0,0,calibration_square,0,10,10,18,1,0.33,0.67,35,001,2024-12-02_17h45.48.924,Attention_exp_legacy,2023.1.0,Win32,59.88023952,,,,,,,,,,,,,,,,,,,,,,,,,,,,,,,,,,,,,,,,,,,,
,,,,,,,0.329166667,0.331481481,1,0,0,calibration_square,0,11,11,17,1,0.33,0.33,35,001,2024-12-02_17h45.48.924,Attention_exp_legacy,2023.1.0,Win32,59.88023952,,,,,,,,,,,,,,,,,,,,,,,,,,,,,,,,,,,,,,,,,,,,
,,,,,,,-0.332291667,-0.672222222,1,0,0,calibration_square,0,12,12,4,1,-0.33,-0.67,35,001,2024-12-02_17h45.48.924,Attention_exp_legacy,2023.1.0,Win32,59.88023952,,,,,,,,,,,,,,,,,,,,,,,,,,,,,,,,,,,,,,,,,,,,
,,,,,,,-0.329166667,0.681481481,1,0,0,,0,13,13,8,1,-0.33,0.67,35,001,2024-12-02_17h45.48.924,Attention_exp_legacy,2023.1.0,Win32,59.88023952,,,,,,,,,,,,,,,,,,,,,,,,,,,,,,,,,,,,,,,,,,,,
,,,,,,,-0.334375,-0.337037037,1,0,0,calibration_square,0,14,14,5,1,-0.33,-0.33,35,001,2024-12-02_17h45.48.924,Attention_exp_legacy,2023.1.0,Win32,59.88023952,,,,,,,,,,,,,,,,,,,,,,,,,,,,,,,,,,,,,,,,,,,,
,,,,,,,0.004166667,-0.001851852,1,0,0,calibration_square,0,15,15,11,1,0,0,35,001,2024-12-02_17h45.48.924,Attention_exp_legacy,2023.1.0,Win32,59.88023952,,,,,,,,,,,,,,,,,,,,,,,,,,,,,,,,,,,,,,,,,,,,
,,,,,,,-0.002083333,-0.666666667,1,0,0,calibration_square,0,16,16,9,1,0,-0.67,35,001,2024-12-02_17h45.48.924,Attention_exp_legacy,2023.1.0,Win32,59.88023952,,,,,,,,,,,,,,,,,,,,,,,,,,,,,,,,,,,,,,,,,,,,
,,,,,,,-0.673958333,0.340740741,1,0,0,,0,17,17,3,1,-0.67,0.33,35,001,2024-12-02_17h45.48.924,Attention_exp_legacy,2023.1.0,Win32,59.88023952,,,,,,,,,,,,,,,,,,,,,,,,,,,,,,,,,,,,,,,,,,,,
,,,,,,,0.002083333,-0.338888889,1,0,0,calibration_square,0,18,18,10,1,0,-0.33,35,001,2024-12-02_17h45.48.924,Attention_exp_legacy,2023.1.0,Win32,59.88023952,,,,,,,,,,,,,,,,,,,,,,,,,,,,,,,,,,,,,,,,,,,,
,,,,,,,-0.340625,0.333333333,1,0,0,,0,19,19,7,1,-0.33,0.33,35,001,2024-12-02_17h45.48.924,Attention_exp_legacy,2023.1.0,Win32,59.88023952,,,,,,,,,,,,,,,,,,,,,,,,,,,,,,,,,,,,,,,,,,,,
,,,,,,,-0.68125,0.007407407,1,0,0,,0,20,20,2,1,-0.67,0,35,001,2024-12-02_17h45.48.924,Attention_exp_legacy,2023.1.0,Win32,59.88023952,,,,,,,,,,,,,,,,,,,,,,,,,,,,,,,,,,,,,,,,,,,,
,,,,,,,,,,,,,,,,,,,,35,001,2024-12-02_17h45.48.924,Attention_exp_legacy,2023.1.0,Win32,59.88023952,"[1920,1080]","[640,480]",[0.0375],[-0.4962962962962963],[1],[0],[0],[13.246699999999258],"[""StartButton""]",[0.07291666666666667],[0.3314814814814815],[1],[0],[0],[7.940599999997772],"[""Option1_label""]",Option1_label,1,8.9633,"[[0.0375,-0.4962962962962963],[0.0375,-0.4962962962962963],[0.0375,-0.4962962962962963],[0.0375,-0.4962962962962963],[0.0375,-0.4962962962962963],[0.0375,-0.4962962962962963],[0.0375,-0.4962962962962963],[0.0375,-0.4962962962962963],[0.0375,-0.4962962962962963],[0.0375,-0.4962962962962963],[0.0375,-0.4962962962962963],[0.0375,-0.4962962962962963],[0.0375,-0.4962962962962963],[0.0375,-0.4962962962962963],[0.0375,-0.4962962962962963],[0.0375,-0.4962962962962963],[0.0375,-0.4962962962962963],[0.0375,-0.4962962962962963],[0.0375,-0.4962962962962963],[0.0375,-0.4962962962962963],[0.0375,-0.4962962962962963],[0.0375,-0.4962962962962963],[0.0375,-0.4962962962962963],[0.0375,-0.4962962962962963],[0.0375,-0.4962962962962963],[0.0375,-0.4962962962962963],[0.0375,-0.4962962962962963],[0.0375,-0.4962962962962963],[0.0375,-0.4962962962962963],[0.0375,-0.4962962962962963],[0.0375,-0.4962962962962963],[0.0375,-0.4962962962962963],[0.0375,-0.4962962962962963],[0.0375,-0.4962962962962963],[0.0375,-0.4962962962962963],[0.0375,-0.4962962962962963],[0.0375,-0.4962962962962963],[0.0375,-0.4962962962962963],[0.0375,-0.4962962962962963],[0.0375,-0.4962962962962963],[0.0375,-0.4962962962962963],[0.0375,-0.4962962962962963],[0.0375,-0.4962962962962963],[0.0375,-0.4962962962962963],[0.0375,-0.4962962962962963],[0.0375,-0.4962962962962963],[0.0375,-0.4962962962962963],[0.0375,-0.4962962962962963],[0.0375,-0.4962962962962963],[0.0375,-0.4962962962962963],[0.0375,-0.4962962962962963],[0.0375,-0.48518518518518516],[0.03958333333333333,-0.43703703703703706],[0.040625,-0.40925925925925927],[0.041666666666666664,-0.3425925925925926],[0.042708333333333334,-0.26666666666666666],[0.042708333333333334,-0.15],[0.04583333333333333,-0.10740740740740741],[0.04583333333333333,-0.07037037037037037],[0.046875,-0.040740740740740744],[0.04791666666666667,-0.016666666666666666],[0.04791666666666667,-0.001851851851851852],[0.04791666666666667,0.011111111111111112],[0.05,0.022222222222222223],[0.05,0.03333333333333333],[0.05,0.04814814814814815],[0.05,0.08148148148148149],[0.05,0.09444444444444444],[0.05,0.12222222222222222],[0.05,0.15555555555555556],[0.05,0.17222222222222222],[0.05,0.18703703703703703],[0.05,0.19814814814814816],[0.05,0.20925925925925926],[0.05,0.22037037037037038],[0.04895833333333333,0.22962962962962963],[0.04895833333333333,0.24074074074074073],[0.046875,0.25],[0.046875,0.2611111111111111],[0.04583333333333333,0.26851851851851855],[0.04479166666666667,0.2796296296296296],[0.04375,0.29259259259259257],[0.04375,0.29814814814814816],[0.04375,0.30185185185185187],[0.04375,0.30185185185185187],[0.04375,0.30185185185185187],[0.042708333333333334,0.30185185185185187],[0.042708333333333334,0.30185185185185187],[0.042708333333333334,0.3037037037037037],[0.042708333333333334,0.3074074074074074],[0.042708333333333334,0.3074074074074074],[0.042708333333333334,0.3074074074074074],[0.042708333333333334,0.30925925925925923],[0.042708333333333334,0.30925925925925923],[0.042708333333333334,0.30925925925925923],[0.042708333333333334,0.30925925925925923],[0.042708333333333334,0.3111111111111111],[0.042708333333333334,0.31296296296296294],[0.042708333333333334,0.31296296296296294],[0.042708333333333334,0.3148148148148148],[0.042708333333333334,0.3148148148148148],[0.042708333333333334,0.3148148148148148],[0.042708333333333334,0.3148148148148148],[0.042708333333333334,0.3148148148148148],[0.042708333333333334,0.3148148148148148],[0.042708333333333334,0.3148148148148148],[0.042708333333333334,0.3148148148148148],[0.042708333333333334,0.3148148148148148],[0.042708333333333334,0.3148148148148148],[0.042708333333333334,0.3148148148148148],[0.042708333333333334,0.3148148148148148],[0.042708333333333334,0.3148148148148148],[0.042708333333333334,0.3148148148148148],[0.042708333333333334,0.3148148148148148],[0.042708333333333334,0.3148148148148148],[0.042708333333333334,0.3148148148148148],[0.042708333333333334,0.3148148148148148],[0.042708333333333334,0.3148148148148148],[0.042708333333333334,0.3148148148148148],[0.042708333333333334,0.3148148148148148],[0.042708333333333334,0.3148148148148148],[0.042708333333333334,0.3148148148148148],[0.042708333333333334,0.3148148148148148],[0.042708333333333334,0.3148148148148148],[0.042708333333333334,0.3148148148148148],[0.042708333333333334,0.3148148148148148],[0.042708333333333334,0.3148148148148148],[0.042708333333333334,0.3148148148148148],[0.042708333333333334,0.3148148148148148],[0.042708333333333334,0.3148148148148148],[0.042708333333333334,0.3148148148148148],[0.042708333333333334,0.3148148148148148],[0.042708333333333334,0.3148148148148148],[0.042708333333333334,0.3148148148148148],[0.042708333333333334,0.3148148148148148],[0.042708333333333334,0.3148148148148148],[0.042708333333333334,0.3148148148148148],[0.042708333333333334,0.3148148148148148],[0.042708333333333334,0.3148148148148148],[0.042708333333333334,0.3148148148148148],[0.042708333333333334,0.3148148148148148],[0.042708333333333334,0.3148148148148148],[0.042708333333333334,0.3148148148148148],[0.042708333333333334,0.3148148148148148],[0.042708333333333334,0.3148148148148148],[0.042708333333333334,0.3148148148148148],[0.042708333333333334,0.3148148148148148],[0.042708333333333334,0.3148148148148148],[0.042708333333333334,0.3148148148148148],[0.042708333333333334,0.3148148148148148],[0.042708333333333334,0.3148148148148148],[0.042708333333333334,0.3148148148148148],[0.042708333333333334,0.3148148148148148],[0.042708333333333334,0.3148148148148148],[0.042708333333333334,0.3148148148148148],[0.042708333333333334,0.3148148148148148],[0.042708333333333334,0.3148148148148148],[0.042708333333333334,0.3148148148148148],[0.042708333333333334,0.3148148148148148],[0.042708333333333334,0.3148148148148148],[0.042708333333333334,0.3148148148148148],[0.042708333333333334,0.3148148148148148],[0.042708333333333334,0.3148148148148148],[0.042708333333333334,0.3148148148148148],[0.042708333333333334,0.3148148148148148],[0.042708333333333334,0.3148148148148148],[0.042708333333333334,0.3148148148148148],[0.042708333333333334,0.3148148148148148],[0.042708333333333334,0.3148148148148148],[0.042708333333333334,0.3148148148148148],[0.042708333333333334,0.3148148148148148],[0.042708333333333334,0.3148148148148148],[0.042708333333333334,0.3148148148148148],[0.042708333333333334,0.3148148148148148],[0.042708333333333334,0.3148148148148148],[0.042708333333333334,0.3148148148148148],[0.042708333333333334,0.3148148148148148],[0.042708333333333334,0.3148148148148148],[0.042708333333333334,0.3148148148148148],[0.042708333333333334,0.3148148148148148],[0.042708333333333334,0.3148148148148148],[0.042708333333333334,0.3148148148148148],[0.042708333333333334,0.3148148148148148],[0.042708333333333334,0.3148148148148148],[0.042708333333333334,0.3148148148148148],[0.042708333333333334,0.3148148148148148],[0.042708333333333334,0.3148148148148148],[0.042708333333333334,0.3148148148148148],[0.042708333333333334,0.3148148148148148],[0.042708333333333334,0.3148148148148148],[0.042708333333333334,0.3148148148148148],[0.042708333333333334,0.3148148148148148],[0.042708333333333334,0.3148148148148148],[0.042708333333333334,0.3148148148148148],[0.042708333333333334,0.3148148148148148],[0.042708333333333334,0.3148148148148148],[0.042708333333333334,0.3148148148148148],[0.042708333333333334,0.3148148148148148],[0.042708333333333334,0.3148148148148148],[0.042708333333333334,0.3148148148148148],[0.042708333333333334,0.3148148148148148],[0.042708333333333334,0.3148148148148148],[0.042708333333333334,0.3148148148148148],[0.042708333333333334,0.3148148148148148],[0.042708333333333334,0.3148148148148148],[0.042708333333333334,0.3148148148148148],[0.042708333333333334,0.3148148148148148],[0.042708333333333334,0.3148148148148148],[0.042708333333333334,0.3148148148148148],[0.042708333333333334,0.3148148148148148],[0.042708333333333334,0.3148148148148148],[0.042708333333333334,0.3148148148148148],[0.042708333333333334,0.3148148148148148],[0.042708333333333334,0.3148148148148148],[0.042708333333333334,0.3148148148148148],[0.042708333333333334,0.3148148148148148],[0.042708333333333334,0.3148148148148148],[0.042708333333333334,0.3148148148148148],[0.042708333333333334,0.3148148148148148],[0.042708333333333334,0.3148148148148148],[0.042708333333333334,0.3148148148148148],[0.042708333333333334,0.3148148148148148],[0.042708333333333334,0.3148148148148148],[0.042708333333333334,0.3148148148148148],[0.042708333333333334,0.3148148148148148],[0.042708333333333334,0.3148148148148148],[0.042708333333333334,0.3148148148148148],[0.042708333333333334,0.3148148148148148],[0.042708333333333334,0.3148148148148148],[0.042708333333333334,0.3148148148148148],[0.042708333333333334,0.3148148148148148],[0.042708333333333334,0.3148148148148148],[0.042708333333333334,0.3148148148148148],[0.042708333333333334,0.3148148148148148],[0.042708333333333334,0.3148148148148148],[0.042708333333333334,0.3148148148148148],[0.042708333333333334,0.3148148148148148],[0.042708333333333334,0.3148148148148148],[0.042708333333333334,0.3148148148148148],[0.042708333333333334,0.3148148148148148],[0.042708333333333334,0.3148148148148148],[0.042708333333333334,0.3148148148148148],[0.042708333333333334,0.3148148148148148],[0.042708333333333334,0.3148148148148148],[0.042708333333333334,0.3148148148148148],[0.042708333333333334,0.3148148148148148],[0.042708333333333334,0.3148148148148148],[0.042708333333333334,0.3148148148148148],[0.042708333333333334,0.3148148148148148],[0.042708333333333334,0.3148148148148148],[0.042708333333333334,0.3148148148148148],[0.042708333333333334,0.3148148148148148],[0.042708333333333334,0.3148148148148148],[0.042708333333333334,0.3148148148148148],[0.042708333333333334,0.3148148148148148],[0.042708333333333334,0.3148148148148148],[0.042708333333333334,0.3148148148148148],[0.042708333333333334,0.3148148148148148],[0.042708333333333334,0.3148148148148148],[0.042708333333333334,0.3148148148148148],[0.042708333333333334,0.3148148148148148],[0.042708333333333334,0.3148148148148148],[0.042708333333333334,0.3148148148148148],[0.042708333333333334,0.3148148148148148],[0.042708333333333334,0.3148148148148148],[0.042708333333333334,0.3148148148148148],[0.042708333333333334,0.3148148148148148],[0.042708333333333334,0.3148148148148148],[0.042708333333333334,0.3148148148148148],[0.042708333333333334,0.3148148148148148],[0.042708333333333334,0.3148148148148148],[0.042708333333333334,0.3148148148148148],[0.042708333333333334,0.3148148148148148],[0.042708333333333334,0.3148148148148148],[0.042708333333333334,0.3148148148148148],[0.042708333333333334,0.3148148148148148],[0.042708333333333334,0.3148148148148148],[0.042708333333333334,0.3148148148148148],[0.042708333333333334,0.3148148148148148],[0.042708333333333334,0.3148148148148148],[0.04375,0.31666666666666665],[0.052083333333333336,0.31666666666666665],[0.06354166666666666,0.32222222222222224],[0.08020833333333334,0.32222222222222224],[0.10520833333333333,0.32222222222222224],[0.14375,0.32222222222222224],[0.16770833333333332,0.32222222222222224],[0.18958333333333333,0.31851851851851853],[0.21145833333333333,0.3148148148148148],[0.22604166666666667,0.30925925925925923],[0.23958333333333334,0.30925925925925923],[0.25,0.30925925925925923],[0.2708333333333333,0.30925925925925923],[0.27395833333333336,0.30925925925925923],[0.28125,0.30925925925925923],[0.28958333333333336,0.30925925925925923],[0.30520833333333336,0.30925925925925923],[0.31354166666666666,0.30925925925925923],[0.31979166666666664,0.30925925925925923],[0.32395833333333335,0.30925925925925923],[0.325,0.30925925925925923],[0.325,0.30925925925925923],[0.32708333333333334,0.30925925925925923],[0.328125,0.30925925925925923],[0.328125,0.30925925925925923],[0.32916666666666666,0.30925925925925923],[0.32916666666666666,0.30925925925925923],[0.32916666666666666,0.30925925925925923],[0.32916666666666666,0.30925925925925923],[0.32916666666666666,0.30925925925925923],[0.32916666666666666,0.30925925925925923],[0.32916666666666666,0.30925925925925923],[0.32916666666666666,0.30925925925925923],[0.32916666666666666,0.30925925925925923],[0.32916666666666666,0.30925925925925923],[0.32916666666666666,0.30925925925925923],[0.32916666666666666,0.30925925925925923],[0.32916666666666666,0.30925925925925923],[0.32916666666666666,0.30925925925925923],[0.32916666666666666,0.30925925925925923],[0.32916666666666666,0.30925925925925923],[0.32916666666666666,0.30925925925925923],[0.32916666666666666,0.30925925925925923],[0.32916666666666666,0.30925925925925923],[0.32916666666666666,0.30925925925925923],[0.32916666666666666,0.30925925925925923],[0.32916666666666666,0.30925925925925923],[0.32916666666666666,0.30925925925925923],[0.32916666666666666,0.30925925925925923],[0.32916666666666666,0.30925925925925923],[0.32916666666666666,0.30925925925925923],[0.32916666666666666,0.30925925925925923],[0.32916666666666666,0.30925925925925923],[0.32916666666666666,0.30925925925925923],[0.32916666666666666,0.30925925925925923],[0.32916666666666666,0.30925925925925923],[0.32916666666666666,0.30925925925925923],[0.32916666666666666,0.30925925925925923],[0.32916666666666666,0.30925925925925923],[0.32916666666666666,0.30925925925925923],[0.32916666666666666,0.30925925925925923],[0.32916666666666666,0.30925925925925923],[0.32916666666666666,0.30925925925925923],[0.32916666666666666,0.30925925925925923],[0.32916666666666666,0.30925925925925923],[0.32916666666666666,0.30925925925925923],[0.32916666666666666,0.30925925925925923],[0.32916666666666666,0.30925925925925923],[0.32916666666666666,0.30925925925925923],[0.32916666666666666,0.30925925925925923],[0.32916666666666666,0.30925925925925923],[0.32916666666666666,0.30925925925925923],[0.32916666666666666,0.30925925925925923],[0.32916666666666666,0.30925925925925923],[0.32916666666666666,0.30925925925925923],[0.32916666666666666,0.30925925925925923],[0.32916666666666666,0.30925925925925923],[0.32916666666666666,0.30925925925925923],[0.32916666666666666,0.30925925925925923],[0.32916666666666666,0.30925925925925923],[0.32916666666666666,0.30925925925925923],[0.32916666666666666,0.30925925925925923],[0.32916666666666666,0.30925925925925923],[0.32916666666666666,0.30925925925925923],[0.32916666666666666,0.30925925925925923],[0.32916666666666666,0.30925925925925923],[0.32916666666666666,0.30925925925925923],[0.32916666666666666,0.30925925925925923],[0.32916666666666666,0.30925925925925923],[0.32916666666666666,0.30925925925925923],[0.32916666666666666,0.30925925925925923],[0.32916666666666666,0.30925925925925923],[0.32916666666666666,0.30925925925925923],[0.32916666666666666,0.30925925925925923],[0.32916666666666666,0.30925925925925923],[0.32916666666666666,0.30925925925925923],[0.32916666666666666,0.30925925925925923],[0.32916666666666666,0.30925925925925923],[0.32916666666666666,0.30925925925925923],[0.32916666666666666,0.30925925925925923],[0.32916666666666666,0.30925925925925923],[0.32916666666666666,0.30925925925925923],[0.32916666666666666,0.30925925925925923],[0.32916666666666666,0.30925925925925923],[0.32916666666666666,0.30925925925925923],[0.32916666666666666,0.30925925925925923],[0.32916666666666666,0.30925925925925923],[0.32916666666666666,0.30925925925925923],[0.32916666666666666,0.30925925925925923],[0.32916666666666666,0.30925925925925923],[0.32916666666666666,0.30925925925925923],[0.32916666666666666,0.30925925925925923],[0.32916666666666666,0.30925925925925923],[0.32916666666666666,0.30925925925925923],[0.32916666666666666,0.30925925925925923],[0.32916666666666666,0.30925925925925923],[0.32916666666666666,0.30925925925925923],[0.32916666666666666,0.30925925925925923],[0.32916666666666666,0.30925925925925923],[0.32916666666666666,0.30925925925925923],[0.32916666666666666,0.30925925925925923],[0.32916666666666666,0.30925925925925923],[0.32916666666666666,0.30925925925925923],[0.32916666666666666,0.30925925925925923],[0.32916666666666666,0.30925925925925923],[0.32916666666666666,0.30925925925925923],[0.32916666666666666,0.30925925925925923],[0.32916666666666666,0.30925925925925923],[0.32916666666666666,0.30925925925925923],[0.32916666666666666,0.30925925925925923],[0.32916666666666666,0.30925925925925923],[0.32916666666666666,0.30925925925925923],[0.32916666666666666,0.30925925925925923],[0.32916666666666666,0.30925925925925923],[0.32916666666666666,0.30925925925925923],[0.32916666666666666,0.30925925925925923],[0.32916666666666666,0.30925925925925923],[0.32916666666666666,0.30925925925925923],[0.32916666666666666,0.30925925925925923],[0.32916666666666666,0.30925925925925923],[0.32916666666666666,0.30925925925925923],[0.32916666666666666,0.30925925925925923],[0.32916666666666666,0.30925925925925923],[0.32916666666666666,0.30925925925925923],[0.32916666666666666,0.30925925925925923],[0.32916666666666666,0.30925925925925923],[0.32916666666666666,0.30925925925925923],[0.32916666666666666,0.30925925925925923],[0.32916666666666666,0.30925925925925923],[0.32916666666666666,0.30925925925925923],[0.32916666666666666,0.30925925925925923],[0.32916666666666666,0.30925925925925923],[0.32916666666666666,0.30925925925925923],[0.32916666666666666,0.30925925925925923],[0.32916666666666666,0.30925925925925923],[0.32916666666666666,0.30925925925925923],[0.32916666666666666,0.30925925925925923],[0.32916666666666666,0.30925925925925923],[0.32916666666666666,0.30925925925925923],[0.32916666666666666,0.30925925925925923],[0.32916666666666666,0.30925925925925923],[0.32916666666666666,0.30925925925925923],[0.328125,0.30925925925925923],[0.32708333333333334,0.30925925925925923],[0.325,0.30925925925925923],[0.321875,0.30925925925925923],[0.315625,0.30925925925925923],[0.3072916666666667,0.30925925925925923],[0.2989583333333333,0.31296296296296294],[0.28541666666666665,0.3148148148148148],[0.2708333333333333,0.31851851851851853],[0.2552083333333333,0.32222222222222224],[0.23854166666666668,0.32222222222222224],[0.209375,0.32407407407407407],[0.190625,0.32407407407407407],[0.175,0.32407407407407407],[0.16458333333333333,0.32407407407407407],[0.15520833333333334,0.32407407407407407],[0.146875,0.32407407407407407],[0.13958333333333334,0.32407407407407407],[0.13229166666666667,0.32407407407407407],[0.12291666666666666,0.32407407407407407],[0.11979166666666667,0.32407407407407407],[0.11354166666666667,0.32407407407407407],[0.10833333333333334,0.32407407407407407],[0.09791666666666667,0.32407407407407407],[0.090625,0.3277777777777778],[0.084375,0.3277777777777778],[0.08020833333333334,0.3296296296296296],[0.07604166666666666,0.3296296296296296],[0.07395833333333333,0.3314814814814815],[0.07291666666666667,0.3314814814814815],[0.07291666666666667,0.3314814814814815],[0.07291666666666667,0.3314814814814815],[0.07291666666666667,0.3314814814814815],[0.07291666666666667,0.3314814814814815],[0.07291666666666667,0.3314814814814815],[0.07291666666666667,0.3314814814814815],[0.07291666666666667,0.3314814814814815],[0.07291666666666667,0.3314814814814815],[0.07291666666666667,0.3314814814814815],[0.07291666666666667,0.3314814814814815],[0.07291666666666667,0.3314814814814815],[0.07291666666666667,0.3314814814814815],[0.07291666666666667,0.3314814814814815],[0.07291666666666667,0.3314814814814815],[0.07291666666666667,0.3314814814814815],[0.07291666666666667,0.3314814814814815],[0.07291666666666667,0.3314814814814815],[0.07291666666666667,0.3314814814814815],[0.07291666666666667,0.3314814814814815],[0.07291666666666667,0.3314814814814815],[0.07291666666666667,0.3314814814814815],[0.07291666666666667,0.3314814814814815],[0.07291666666666667,0.3314814814814815],[0.07291666666666667,0.3314814814814815],[0.07291666666666667,0.3314814814814815],[0.07291666666666667,0.3314814814814815],[0.07291666666666667,0.3314814814814815],[0.07291666666666667,0.3314814814814815],[0.07291666666666667,0.3314814814814815],[0.07291666666666667,0.3314814814814815],[0.07291666666666667,0.3314814814814815],[0.07291666666666667,0.3314814814814815],[0.07291666666666667,0.3314814814814815],[0.07291666666666667,0.3314814814814815],[0.07291666666666667,0.3314814814814815],[0.07291666666666667,0.3314814814814815],[0.07291666666666667,0.3314814814814815],[0.07291666666666667,0.3314814814814815],[0.07291666666666667,0.3314814814814815],[0.07291666666666667,0.3314814814814815],[0.07291666666666667,0.3314814814814815],[0.07291666666666667,0.3314814814814815],[0.07291666666666667,0.3314814814814815],[0.07291666666666667,0.3314814814814815],[0.07291666666666667,0.3314814814814815],[0.07291666666666667,0.3314814814814815],[0.07291666666666667,0.3314814814814815],[0.07291666666666667,0.3314814814814815],[0.07291666666666667,0.3314814814814815],[0.07291666666666667,0.3314814814814815],[0.07291666666666667,0.3314814814814815],[0.07291666666666667,0.3314814814814815],[0.07291666666666667,0.3314814814814815],[0.07291666666666667,0.3314814814814815],[0.07291666666666667,0.3314814814814815],[0.07291666666666667,0.3314814814814815],[0.07291666666666667,0.3314814814814815],[0.07291666666666667,0.3314814814814815],[0.07291666666666667,0.3314814814814815],[0.07291666666666667,0.3314814814814815],[0.07291666666666667,0.3314814814814815],[0.07291666666666667,0.3314814814814815],[0.07291666666666667,0.3314814814814815],[0.07291666666666667,0.3314814814814815],[0.07291666666666667,0.3314814814814815],[0.07291666666666667,0.3314814814814815]]","[[-0.13145833333333337,0.36277777777777775],[-0.13145833333333337,0.36277777777777775],[-0.10114583333333335,0.3301851851851851],[-0.10604166666666662,0.3427777777777778],[-0.15510416666666665,0.3772222222222223],[-0.121875,0.33499999999999996],[-0.08135416666666669,0.2861111111111111],[-0.08135416666666669,0.2861111111111111],[-0.13812500000000003,0.25870370370370377],[-0.13812500000000003,0.25870370370370377],[-0.19489583333333335,0.23129629629629625],[-0.19489583333333335,0.23129629629629625],[-0.21385416666666662,0.14425925925925923],[-0.21083333333333332,0.10111111111111115],[-0.2608333333333333,0.10166666666666663],[-0.2608333333333333,0.10166666666666663],[-0.2894791666666666,0.13648148148148156],[-0.24645833333333336,0.05981481481481473],[-0.20145833333333332,-0.007962962962962878],[-0.2179166666666667,0.044999999999999915],[-0.234375,0.09796296296296292],[-0.21281249999999996,0.09148148148148144],[-0.19125000000000003,0.08499999999999996],[-0.2367708333333333,0.14388888888888898],[-0.2907291666666667,0.1655555555555555],[-0.2891666666666667,0.15703703703703695],[-0.2595833333333334,0.13444444444444448],[-0.29260416666666667,0.15759259259259265],[-0.325625,0.18074074074074079],[-0.31187499999999996,0.15629629629629627],[-0.32010416666666663,0.11037037037037041],[-0.30270833333333336,0.1264814814814814],[-0.30354166666666665,0.12259259259259268],[-0.2772916666666667,0.07518518518518523],[-0.2391666666666667,0.04981481481481477],[-0.23572916666666663,0.05962962962962971],[-0.27749999999999997,0.03981481481481482],[-0.29312499999999997,0.04055555555555551],[-0.2851041666666667,0.06481481481481481],[-0.29010416666666666,0.07833333333333325],[-0.28406250000000005,0.08129629629629626],[-0.2828125,0.11870370370370374],[-0.2664583333333333,0.07962962962962963],[-0.25593750000000004,0.12462962962962955],[-0.23812500000000003,0.1411111111111112],[-0.23218749999999996,0.13481481481481472],[-0.18104166666666663,0.1581481481481481],[-0.11635416666666672,0.1449999999999999],[-0.07531249999999995,0.10833333333333334],[-0.08916666666666669,0.04981481481481477],[-0.09208333333333331,0.023333333333333376],[-0.08197916666666671,-0.053703703703703705],[-0.03947916666666664,0.044999999999999915],[-0.03854166666666667,0.038703703703703664],[-0.05677083333333333,0.03888888888888889],[-0.015312500000000047,0.08055555555555556],[-0.011979166666666667,0.08925925925925934],[-0.022187499999999954,0.13444444444444448],[-0.06593749999999995,0.1896296296296296],[-0.05354166666666664,0.23981481481481481],[-0.06385416666666661,0.2803703703703703],[-0.09010416666666667,0.3101851851851852],[-0.13385416666666666,0.27018518518518514],[-0.10656249999999995,0.24666666666666676],[-0.07927083333333336,0.22314814814814815],[-0.12749999999999997,0.17888888888888893],[-0.12687499999999996,0.14740740740740746],[-0.13989583333333327,0.16222222222222227],[-0.12291666666666666,0.17296296296296293],[-0.12208333333333338,0.1668518518518519],[-0.07562500000000003,0.15092592592592594],[-0.04864583333333338,0.20796296296296288],[-0.036145833333333384,0.18462962962962973],[-0.06458333333333334,0.22314814814814815],[-0.06072916666666662,0.18981481481481483],[-0.033958333333333354,0.1844444444444445],[-0.017916666666666713,0.1992592592592593],[-0.029270833333333357,0.18203703703703694],[-0.03708333333333336,0.1588888888888888],[-0.016354166666666715,0.11018518518518519],[-0.03156249999999995,0.11481481481481481],[-0.013020833333333334,0.00851851851851856],[0.00791666666666669,-0.007777777777777862],[0.04614583333333329,-0.08148148148148149],[0.019166666666666644,-0.07629629629629628],[-0.02385416666666664,-0.10203703703703708],[-0.05791666666666669,-0.08592592592592588],[-0.05562499999999997,-0.14000000000000004],[-0.05333333333333338,-0.1940740740740741],[-0.06291666666666665,-0.15481481481481485],[-0.057083333333333285,-0.18870370370370365],[-0.0672916666666667,-0.17166666666666663],[-0.0672916666666667,-0.17166666666666663],[-0.07395833333333333,-0.17981481481481484],[-0.07395833333333333,-0.17981481481481484],[-0.07093750000000003,-0.21333333333333332],[-0.018437500000000048,-0.24148148148148144],[0.0359375,-0.2518518518518518],[0.07510416666666657,-0.2983333333333334],[0.08739583333333342,-0.3138888888888889],[0.109375,-0.31574074074074077],[0.13239583333333324,-0.3742592592592593],[0.11895833333333337,-0.3705555555555556],[0.14895833333333333,-0.42000000000000004],[0.17572916666666671,-0.4633333333333333],[0.19281249999999991,-0.4812962962962963],[0.16958333333333328,-0.4885185185185185],[0.14447916666666671,-0.5135185185185185],[0.11895833333333337,-0.5787037037037037],[0.125,-0.6188888888888888],[0.12760416666666666,-0.6518518518518519],[0.11104166666666657,-0.6594444444444445],[0.09677083333333343,-0.6707407407407407],[0.08760416666666657,-0.6885185185185185],[0.07843749999999995,-0.7062962962962962],[0.044270833333333336,-0.6761111111111111],[-0.007708333333333309,-0.6255555555555555],[-0.007708333333333309,-0.6255555555555555],[-0.014687500000000023,-0.6401851851851852],[-0.027604166666666666,-0.6055555555555555],[-0.020729166666666642,-0.5937037037037037],[-0.04104166666666664,-0.545],[-0.020833333333333332,-0.5435185185185185],[0.003958333333333286,-0.5146296296296295],[-0.018020833333333285,-0.4390740740740741],[-0.06156250000000003,-0.36870370370370376],[-0.07145833333333336,-0.375],[-0.07145833333333336,-0.375],[-0.011666666666666714,-0.4166666666666667],[0.003125,-0.3931481481481482],[0.003125,-0.3931481481481482],[0.01427083333333338,-0.37537037037037035],[0.01427083333333338,-0.37537037037037035],[-0.00604166666666662,-0.3331481481481481],[-0.00604166666666662,-0.3331481481481481],[-0.020937500000000022,-0.3381481481481482],[-0.06770833333333333,-0.3042592592592593],[-0.06770833333333333,-0.3042592592592593],[-0.08562500000000005,-0.32333333333333336],[-0.11385416666666662,-0.34500000000000003],[-0.1319791666666667,-0.33777777777777773],[-0.13947916666666665,-0.33648148148148144],[-0.1751041666666667,-0.34333333333333327],[-0.1970833333333334,-0.3290740740740741],[-0.19822916666666662,-0.33555555555555555],[-0.21583333333333338,-0.3394444444444445],[-0.20062500000000003,-0.3538888888888889],[-0.2280208333333333,-0.37166666666666665],[-0.2570833333333333,-0.3831481481481481],[-0.2522916666666667,-0.38722222222222225],[-0.23697916666666666,-0.40777777777777774],[-0.20677083333333332,-0.40703703703703703],[-0.21499999999999997,-0.3857407407407408],[-0.23687499999999997,-0.38555555555555554],[-0.2491666666666667,-0.34685185185185186],[-0.23333333333333334,-0.3124074074074074],[-0.24125000000000002,-0.23055555555555557],[-0.19145833333333329,-0.18944444444444447],[-0.16239583333333332,-0.14055555555555552],[-0.15687500000000001,-0.09648148148148153],[-0.14874999999999997,-0.06259259259259262],[-0.17770833333333336,0.025185185185185227],[-0.18020833333333333,0.10925925925925926],[-0.1592708333333333,0.17074074074074083],[-0.13125,0.22666666666666663],[-0.1609375,0.22148148148148153],[-0.18416666666666662,0.16888888888888898],[-0.23041666666666671,0.17166666666666675],[-0.2738541666666666,0.18629629629629635],[-0.3015625,0.19092592592592597],[-0.33093750000000005,0.1985185185185186],[-0.3857291666666666,0.19425925925925921],[-0.42854166666666665,0.17314814814814813],[-0.45343749999999994,0.1425925925925926],[-0.4995833333333334,0.09074074074074075],[-0.46802083333333333,0.08555555555555563],[-0.43645833333333334,0.08037037037037033],[-0.40562499999999996,0.07222222222222222],[-0.3715625000000001,0.04296296296296305],[-0.33968750000000003,0.03888888888888889],[-0.3164583333333333,0.01962962962962967],[-0.2648958333333333,-0.02833333333333325],[-0.20093749999999996,-0.06555555555555552],[-0.17833333333333337,-0.07074074074074072],[-0.18635416666666665,-0.049074074074074076],[-0.15510416666666665,-0.057777777777777754],[-0.14781249999999999,-0.08574074074074076],[-0.1453125,-0.07259259259259257],[-0.128125,-0.05796296296296299],[-0.09187500000000005,-0.07481481481481478],[-0.04697916666666669,-0.0764814814814815],[-0.04375,-0.06740740740740736],[-0.04677083333333331,-0.06518518518518517],[-0.03083333333333336,-0.04388888888888897],[0.01906249999999995,-0.07592592592592592],[0.0034374999999999527,-0.08222222222222218],[-0.02354166666666669,-0.03555555555555564],[-0.012395833333333309,-0.04129629629629621],[-0.0012500000000000473,-0.047037037037036995],[-0.0003124999999999526,-0.03222222222222218],[0.0006250000000000236,-0.017407407407407365],[0.043229166666666666,-0.013333333333333417],[0.05499999999999995,-0.02296296296296292],[0.04781249999999997,-0.051666666666666625],[0.012187500000000047,-0.05888888888888891],[-0.0171875,-0.047037037037036995],[-0.011979166666666667,-0.06740740740740736],[-0.04010416666666667,-0.0764814814814815],[-0.06177083333333329,-0.04333333333333329],[-0.13239583333333335,-0.01629629629629621],[-0.20302083333333332,0.010740740740740657],[-0.26499999999999996,0.0492592592592593],[-0.30229166666666674,0.09759259259259268],[-0.29270833333333335,0.1338888888888888],[-0.25802083333333337,0.17518518518518522],[-0.25718749999999996,0.17685185185185184],[-0.255625,0.17703703703703708],[-0.24968750000000003,0.16722222222222213],[-0.26114583333333335,0.09499999999999992],[-0.2526041666666667,0.05055555555555547],[-0.24406249999999996,0.006111111111111027],[-0.2101041666666667,-0.07518518518518523],[-0.17614583333333336,-0.15648148148148147],[-0.20864583333333328,-0.18555555555555553],[-0.21875,-0.20481481481481487],[-0.19500000000000003,-0.1844444444444445],[-0.17541666666666664,-0.2037037037037037],[-0.16020833333333329,-0.21296296296296297],[-0.13770833333333338,-0.19592592592592595],[-0.10864583333333329,-0.20481481481481487],[-0.07104166666666671,-0.20777777777777776],[-0.06749999999999995,-0.1853703703703704],[-0.06604166666666664,-0.17777777777777778],[-0.08677083333333328,-0.20018518518518522],[-0.12989583333333338,-0.2324074074074074],[-0.17052083333333337,-0.22611111111111115],[-0.20697916666666671,-0.1801851851851852],[-0.20697916666666671,-0.1801851851851852],[-0.23041666666666671,-0.15111111111111114],[-0.2421875,-0.17296296296296293],[-0.2539583333333333,-0.1948148148148148],[-0.2759375,-0.1581481481481481],[-0.28937499999999994,-0.14611111111111108],[-0.3459375,-0.0824074074074074],[-0.3607291666666666,-0.028888888888888933],[-0.3745833333333334,0.03185185185185194],[-0.39093749999999994,0.054074074074074156],[-0.3819791666666667,0.054259259259259174],[-0.3819791666666667,0.054259259259259174],[-0.38604166666666667,0.0712962962962963],[-0.38604166666666667,0.0712962962962963],[-0.39812500000000006,0.13851851851851843],[-0.4522916666666667,0.22351851851851862],[-0.4522916666666667,0.22351851851851862],[-0.45677083333333335,0.2418518518518519],[-0.45677083333333335,0.2418518518518519],[-0.4717708333333333,0.26222222222222225],[-0.443125,0.24611111111111106],[-0.443125,0.24611111111111106],[-0.4144791666666666,0.2300000000000001],[-0.4084375,0.18981481481481483],[-0.41437499999999994,0.18574074074074065],[-0.42697916666666663,0.1935185185185185],[-0.45,0.20851851851851855],[-0.47302083333333333,0.21814814814814806],[-0.45510416666666664,0.20777777777777787],[-0.4786458333333333,0.17685185185185184],[-0.5013541666666667,0.1764814814814814],[-0.5225000000000001,0.1757407407407407],[-0.5214583333333334,0.16629629629629622],[-0.49875,0.1737037037037036],[-0.49322916666666666,0.15981481481481474],[-0.49302083333333335,0.15166666666666662],[-0.48239583333333336,0.13629629629629633],[-0.4751041666666667,0.1766666666666666],[-0.4666666666666667,0.2192592592592592],[-0.4423958333333334,0.23592592592592587],[-0.4169791666666666,0.24462962962962967],[-0.38875000000000004,0.27685185185185185],[-0.3827083333333333,0.3177777777777778],[-0.33093750000000005,0.3431481481481481],[-0.3145833333333333,0.3303703703703703],[-0.29093749999999996,0.3037037037037037],[-0.28572916666666665,0.28166666666666673],[-0.28885416666666663,0.18925925925925935],[-0.24468749999999997,0.1081481481481481],[-0.21364583333333337,0.0257407407407407],[-0.16656249999999997,-0.062407407407407384],[-0.12093750000000002,-0.15129629629629626],[-0.10541666666666671,-0.18611111111111112],[-0.13562500000000005,-0.20537037037037034],[-0.09333333333333335,-0.2227777777777778],[-0.04624999999999998,-0.2507407407407407],[0.013229166666666714,-0.25685185185185183],[0.084375,-0.24833333333333338],[0.08614583333333338,-0.26962962962962966],[0.1109375,-0.2390740740740741],[0.1196875000000001,-0.20277777777777778],[0.06958333333333329,-0.12981481481481486],[0.07947916666666661,-0.09648148148148153],[0.08937499999999995,-0.06314814814814819],[0.09135416666666671,-0.008333333333333333],[0.051145833333333356,0.06722222222222214],[0.029791666666666692,0.07185185185185176],[0.008437500000000023,0.0764814814814814],[0.05927083333333331,0.04407407407407399],[0.03125,0.10092592592592593],[0.05572916666666667,0.06314814814814819],[0.13770833333333338,-0.034074074074074034],[0.16739583333333338,-0.14759259259259258],[0.16739583333333338,-0.14759259259259258],[0.1970833333333334,-0.2611111111111111],[0.1970833333333334,-0.2611111111111111],[0.21572916666666658,-0.3566666666666667],[0.2390625,-0.4522222222222222],[0.24270833333333333,-0.44592592592592595],[0.24635416666666668,-0.4396296296296296],[0.2211458333333333,-0.40259259259259256],[0.23239583333333325,-0.45611111111111113],[0.17583333333333329,-0.3990740740740741],[0.11927083333333334,-0.34203703703703703],[0.08510416666666672,-0.2831481481481481],[0.11104166666666657,-0.2983333333333334],[0.14802083333333324,-0.3314814814814815],[0.16604166666666675,-0.28888888888888886],[0.19093749999999995,-0.3037037037037037],[0.19822916666666662,-0.31666666666666665],[0.24229166666666657,-0.3514814814814815],[0.21489583333333329,-0.32981481481481484],[0.2257291666666667,-0.30537037037037035],[0.228125,-0.29796296296296293],[0.19583333333333333,-0.2601851851851852],[0.10343749999999995,-0.14833333333333337],[0.023958333333333335,-0.038703703703703664],[-0.004166666666666667,-0.036666666666666584],[-0.050416666666666644,-0.0012962962962963806],[-0.07906249999999998,0.03222222222222218],[-0.14645833333333336,0.07925925925925917],[-0.13229166666666667,0.06925925925925921],[-0.15187499999999995,0.032777777777777864],[-0.16302083333333334,0.013333333333333417],[-0.12427083333333329,-0.01314814814814819],[-0.11364583333333336,-0.025],[-0.06218750000000005,-0.04018518518518527],[-0.03104166666666662,-0.015370370370370286],[-0.0018749999999999527,0.006666666666666709],[-0.018333333333333358,-0.005370370370370328],[-0.05447916666666662,0.024814814814814772],[-0.12479166666666662,0.1316666666666667],[-0.18541666666666667,0.25314814814814823],[-0.2311458333333333,0.3394444444444444],[-0.2920833333333333,0.4024074074074073],[-0.2803125,0.4038888888888889],[-0.33229166666666665,0.4107407407407407],[-0.3842708333333333,0.41759259259259257],[-0.3928125,0.36018518518518516],[-0.35614583333333333,0.3292592592592592],[-0.35614583333333333,0.3292592592592592],[-0.306875,0.31203703703703706],[-0.26156250000000003,0.23962962962962958],[-0.21510416666666668,0.1603703703703704],[-0.16802083333333329,0.11037037037037041],[-0.13729166666666662,0.05388888888888893],[-0.1814583333333334,0.09203703703703713],[-0.215625,0.13037037037037033],[-0.2976041666666667,0.17759259259259255],[-0.4310416666666666,0.27388888888888885],[-0.5314583333333334,0.365925925925926],[-0.5314583333333334,0.365925925925926],[-0.6440625,0.4351851851851852],[-0.6440625,0.4351851851851852],[-0.6998958333333333,0.47018518518518515],[-0.6998958333333333,0.47018518518518515],[-0.7929166666666667,0.5325925925925926],[-0.7929166666666667,0.5325925925925926],[-0.894375,0.6094444444444445],[-0.894375,0.6094444444444445],[-0.9447916666666667,0.6311111111111111],[-0.9466666666666667,0.6259259259259259],[-0.935,0.6346296296296298],[-0.8755208333333333,0.6344444444444445],[-0.8379166666666666,0.6346296296296298],[-0.8329166666666666,0.6466666666666667],[-0.7796875,0.6670370370370371],[-0.7451041666666666,0.7001851851851852],[-0.6521875,0.7235185185185186],[-0.5663541666666667,0.7383333333333334],[-0.515,0.8057407407407408],[-0.515,0.8057407407407408],[-0.46520833333333333,0.8392592592592594],[-0.4470833333333334,0.8738888888888888],[-0.41729166666666667,0.8544444444444445],[-0.368125,0.8562962962962962],[-0.2945833333333333,0.8398148148148148],[-0.23958333333333334,0.8231481481481482],[-0.18458333333333338,0.8064814814814815],[-0.18135416666666668,0.7572222222222221],[-0.22062499999999996,0.7353703703703705],[-0.2247916666666666,0.7262962962962963],[-0.2569791666666667,0.7088888888888888],[-0.2546875,0.6757407407407408],[-0.26760416666666664,0.7344444444444445],[-0.24989583333333332,0.7561111111111111],[-0.26927083333333335,0.7738888888888888],[-0.31833333333333336,0.7835185185185186],[-0.3264583333333333,0.774074074074074],[-0.3039583333333333,0.7796296296296297],[-0.2657291666666667,0.7655555555555555],[-0.23447916666666668,0.7379629629629629],[-0.21281249999999996,0.7262962962962963],[-0.20750000000000005,0.7153703703703703],[-0.20187499999999994,0.7107407407407407],[-0.19624999999999998,0.706111111111111],[-0.1811458333333333,0.6824074074074075],[-0.16604166666666664,0.6587037037037038],[-0.21749999999999994,0.6653703703703703],[-0.26895833333333335,0.672037037037037],[-0.2670833333333333,0.6840740740740741],[-0.3225,0.696111111111111],[-0.35697916666666674,0.7135185185185184],[-0.3958333333333333,0.7485185185185186],[-0.4314583333333334,0.7394444444444443],[-0.45249999999999996,0.6968518518518517],[-0.4978125,0.7096296296296297],[-0.543125,0.7224074074074075],[-0.5363541666666667,0.6992592592592592],[-0.5295833333333333,0.6761111111111111],[-0.5611458333333333,0.6216666666666667],[-0.5637500000000001,0.5770370370370371],[-0.5339583333333333,0.5270370370370371],[-0.5126041666666666,0.46222222222222226],[-0.52125,0.3949999999999999],[-0.5316666666666666,0.3707407407407408],[-0.5527083333333334,0.3253703703703705],[-0.57375,0.2800000000000001],[-0.5779166666666666,0.24740740740740744],[-0.5820833333333333,0.21481481481481482],[-0.5706249999999999,0.18185185185185193],[-0.5763541666666666,0.1618518518518518],[-0.6040625,0.1625925925925925],[-0.6189583333333334,0.16055555555555565],[-0.6038541666666667,0.1609259259259259],[-0.5982291666666666,0.1527777777777778],[-0.5982291666666666,0.1527777777777778],[-0.501875,0.08907407407407411],[-0.4055208333333333,0.025370370370370456],[-0.353125,-0.01648148148148144],[-0.28229166666666666,-0.0735185185185185],[-0.21531250000000005,-0.11203703703703703],[-0.13479166666666664,-0.13944444444444445],[-0.09635416666666667,-0.1522222222222222],[-0.0140625,-0.18481481481481485],[0.06822916666666666,-0.21740740740740735],[0.17416666666666672,-0.27259259259259255],[0.19145833333333329,-0.2646296296296296],[0.19802083333333323,-0.2462962962962963],[0.20520833333333333,-0.23796296296296296],[0.21885416666666657,-0.22259259259259256],[0.21291666666666675,-0.20925925925925926],[0.19760416666666672,-0.2094444444444445],[0.21395833333333342,-0.23962962962962958],[0.2195833333333333,-0.2887037037037037],[0.22520833333333337,-0.33777777777777773],[0.18489583333333334,-0.3611111111111111],[0.1806250000000001,-0.38499999999999995],[0.18125,-0.39537037037037037],[0.20041666666666677,-0.42666666666666664],[0.1946875000000001,-0.4498148148148148],[0.21041666666666667,-0.48629629629629634],[0.23322916666666677,-0.5142592592592592],[0.2560416666666666,-0.5422222222222223],[0.19562499999999997,-0.49296296296296294],[0.1671875,-0.4655555555555555],[0.16666666666666666,-0.4257407407407407],[0.16614583333333333,-0.3859259259259259],[0.18302083333333338,-0.41092592592592586],[0.18135416666666657,-0.41500000000000004],[0.16437499999999997,-0.392037037037037],[0.14552083333333338,-0.3537037037037037],[0.1640625,-0.3648148148148148],[0.18260416666666662,-0.37592592592592594],[0.2497916666666666,-0.40981481481481485],[0.24989583333333343,-0.41],[0.23885416666666662,-0.40370370370370373],[0.22781250000000006,-0.39740740740740743],[0.2359375,-0.3942592592592592],[0.24406249999999996,-0.3911111111111111],[0.24406249999999996,-0.3911111111111111],[0.21583333333333338,-0.41222222222222227],[0.18760416666666657,-0.43333333333333335],[0.18760416666666657,-0.43333333333333335],[0.16708333333333342,-0.42388888888888887],[0.15239583333333329,-0.41148148148148145],[0.15239583333333329,-0.41148148148148145],[0.16135416666666677,-0.40925925925925927],[0.16020833333333329,-0.43203703703703705],[0.16020833333333329,-0.43203703703703705],[0.16124999999999995,-0.4777777777777778],[0.16124999999999995,-0.4777777777777778],[0.11979166666666667,-0.5061111111111112],[0.08125,-0.49166666666666664],[0.02791666666666662,-0.47759259259259257],[0.026250000000000048,-0.4662962962962963],[0.018229166666666668,-0.41462962962962957],[-0.028958333333333287,-0.36314814814814816],[-0.022500000000000023,-0.3514814814814815],[-0.03822916666666672,-0.3453703703703704],[0.04770833333333328,-0.28129629629629627],[0.1336458333333333,-0.21722222222222223],[0.21135416666666676,-0.12000000000000002],[0.25541666666666674,-0.021481481481481525],[0.3323958333333332,0.06407407407407412],[0.409375,0.14962962962962956],[0.49270833333333336,0.1948148148148149],[0.5543750000000001,0.24166666666666667],[0.5364583333333334,0.3538888888888889],[0.5042708333333332,0.4946296296296297],[0.415625,0.5905555555555555],[0.35604166666666665,0.6361111111111111],[0.3471874999999999,0.6311111111111111],[0.33406250000000004,0.6318518518518519],[0.27614583333333326,0.6875925925925925],[0.24083333333333337,0.7229629629629629],[0.1803124999999999,0.7457407407407408],[0.11958333333333329,0.8042592592592592],[0.07770833333333324,0.730925925925926],[0.04593750000000003,0.6290740740740741],[0.013437499999999976,0.537962962962963],[-0.05166666666666669,0.4946296296296297],[-0.12625000000000006,0.4372222222222223],[-0.12625000000000006,0.4372222222222223],[-0.19656250000000006,0.37407407407407406],[-0.23687499999999997,0.26851851851851855],[-0.3026041666666667,0.2074074074074074],[-0.3441666666666666,0.16629629629629622],[-0.3884375,0.06962962962962967],[-0.41770833333333335,0.04814814814814815],[-0.4565624999999999,0.05481481481481486]]","[[-0.13145833333333337,0.36277777777777775,0.000199999999253464],[-0.13145833333333337,0.36277777777777775,0.036400000002231536],[-0.10114583333333335,0.3301851851851851,0.047400000002227216],[-0.10604166666666662,0.3427777777777778,0.06619999999925597],[-0.15510416666666665,0.3772222222222223,0.07930000000074244],[-0.121875,0.33499999999999996,0.09540000000222904],[-0.08135416666666669,0.2861111111111111,0.11199999999999477],[-0.08135416666666669,0.2861111111111111,0.1288000000007372],[-0.13812500000000003,0.25870370370370377,0.1454999999999984],[-0.13812500000000003,0.25870370370370377,0.1621000000014874],[-0.19489583333333335,0.23129629629629625,0.17869999999925312],[-0.19489583333333335,0.23129629629629625,0.19540000000223756],[-0.21385416666666662,0.14425925925925923,0.21210000000148455],[-0.21083333333333332,0.10111111111111115,0.2338000000007412],[-0.2608333333333333,0.10166666666666663,0.25069999999925585],[-0.2608333333333333,0.10166666666666663,0.2621999999992539],[-0.2894791666666666,0.13648148148148156,0.2788000000007429],[-0.24645833333333336,0.05981481481481473,0.2988000000007389],[-0.20145833333333332,-0.007962962962962878,0.31319999999925585],[-0.2179166666666667,0.044999999999999915,0.3286999999992588],[-0.234375,0.09796296296296292,0.34540000000222904],[-0.21281249999999996,0.09148148148148144,0.363100000001495],[-0.19125000000000003,0.08499999999999996,0.3814000000022304],[-0.2367708333333333,0.14388888888888898,0.3954000000022404],[-0.2907291666666667,0.1655555555555555,0.41200000000000614],[-0.2891666666666667,0.15703703703703695,0.4286999999992531],[-0.2595833333333334,0.13444444444444448,0.4453000000007421],[-0.29260416666666667,0.15759259259259265,0.46210000000148455],[-0.325625,0.18074074074074079,0.4821999999992528],[-0.31187499999999996,0.15629629629629627,0.49610000000149057],[-0.32010416666666663,0.11037037037037041,0.5121000000014959],[-0.30270833333333336,0.1264814814814814,0.5286999999992474],[-0.30354166666666665,0.12259259259259268,0.5454000000022319],[-0.2772916666666667,0.07518518518518523,0.5621000000014931],[-0.2391666666666667,0.04981481481481477,0.5788000000007401],[-0.23572916666666663,0.05962962962962971,0.595400000002229],[-0.27749999999999997,0.03981481481481482,0.6119999999999948],[-0.29312499999999997,0.04055555555555551,0.628699999999256],[-0.2851041666666667,0.06481481481481481,0.6454000000022404],[-0.29010416666666666,0.07833333333333325,0.6621000000014874],[-0.28406250000000005,0.08129629629629626,0.6786999999992531],[-0.2828125,0.11870370370370374,0.6963000000007469],[-0.2664583333333333,0.07962962962962963,0.7121000000014845],[-0.25593750000000004,0.12462962962962955,0.7288000000007457],[-0.23812500000000003,0.1411111111111112,0.7454000000022347],[-0.23218749999999996,0.13481481481481472,0.7631000000014865],[-0.18104166666666663,0.1581481481481481,0.7786999999992474],[-0.11635416666666672,0.1449999999999999,0.7954000000022319],[-0.07531249999999995,0.10833333333333334,0.8119999999999976],[-0.08916666666666669,0.04981481481481477,0.8286999999992588],[-0.09208333333333331,0.023333333333333376,0.8491999999992572],[-0.08197916666666671,-0.053703703703703705,0.8669000000022322],[-0.03947916666666664,0.044999999999999915,0.8829999999999956],[-0.03854166666666667,0.038703703703703664,0.8974000000022357],[-0.05677083333333333,0.03888888888888889,0.9124999999999943],[-0.015312500000000047,0.08055555555555556,0.9316000000014952],[-0.011979166666666667,0.08925925925925934,0.949300000000747],[-0.022187499999999954,0.13444444444444448,0.9668000000007453],[-0.06593749999999995,0.1896296296296296,0.9846999999992505],[-0.05354166666666664,0.23981481481481481,0.9986000000014883],[-0.06385416666666661,0.2803703703703703,1.0125000000000028],[-0.09010416666666667,0.3101851851851852,1.0289999999999964],[-0.13385416666666666,0.27018518518518514,1.0496999999992482],[-0.10656249999999995,0.24666666666666676,1.0651999999992512],[-0.07927083333333336,0.22314814814814815,1.079199999999247],[-0.12749999999999997,0.17888888888888893,1.0991999999992572],[-0.12687499999999996,0.14740740740740746,1.1146999999992602],[-0.13989583333333327,0.16222222222222227,1.1296999999992607],[-0.12291666666666666,0.17296296296296293,1.1454999999999984],[-0.12208333333333338,0.1668518518518519,1.1676999999992574],[-0.07562500000000003,0.15092592592592594,1.1825000000000045],[-0.04864583333333338,0.20796296296296288,1.1978000000007398],[-0.036145833333333384,0.18462962962962973,1.2125000000000057],[-0.06458333333333334,0.22314814814814815,1.231400000002239],[-0.06072916666666662,0.18981481481481483,1.2456999999992604],[-0.033958333333333354,0.1844444444444445,1.2624000000022306],[-0.017916666666666713,0.1992592592592593,1.2843000000007407],[-0.029270833333333357,0.18203703703703694,1.2983000000007507],[-0.03708333333333336,0.1588888888888888,1.313999999999993],[-0.016354166666666715,0.11018518518518519,1.329499999999996],[-0.03156249999999995,0.11481481481481481,1.3489000000022315],[-0.013020833333333334,0.00851851851851856,1.3644999999999925],[0.00791666666666669,-0.007777777777777862,1.3791999999992584],[0.04614583333333329,-0.08148148148148149,1.3981000000014916],[0.019166666666666644,-0.07629629629629628,1.4120000000000061],[-0.02385416666666664,-0.10203703703703708,1.4286999999992531],[-0.05791666666666669,-0.08592592592592588,1.4488000000007446],[-0.05562499999999997,-0.14000000000000004,1.4639999999999986],[-0.05333333333333338,-0.1940740740740741,1.4795000000000016],[-0.06291666666666665,-0.15481481481481485,1.4991000000014907],[-0.057083333333333285,-0.18870370370370365,1.5131000000014865],[-0.0672916666666667,-0.17166666666666663,1.5331000000014825],[-0.0672916666666667,-0.17166666666666663,1.5626999999992535],[-0.07395833333333333,-0.17981481481481484,1.5694000000022328],[-0.07395833333333333,-0.17981481481481484,1.5786999999992588],[-0.07093750000000003,-0.21333333333333332,1.595400000002229],[-0.018437500000000048,-0.24148148148148144,1.6141000000014856],[0.0359375,-0.2518518518518518,1.6289000000022327],[0.07510416666666657,-0.2983333333333334,1.645300000000745],[0.08739583333333342,-0.3138888888888889,1.6643000000007504],[0.109375,-0.31574074074074077,1.6786999999992531],[0.13239583333333324,-0.3742592592592593,1.6954000000022376],[0.11895833333333337,-0.3705555555555556,1.7121000000014845],[0.14895833333333333,-0.42000000000000004,1.7288000000007457],[0.17572916666666671,-0.4633333333333333,1.7454999999999927],[0.19281249999999991,-0.4812962962962963,1.762199999999254],[0.16958333333333328,-0.4885185185185185,1.7786999999992474],[0.14447916666666671,-0.5135185185185185,1.7954000000022319],[0.11895833333333337,-0.5787037037037037,1.812100000001493],[0.125,-0.6188888888888888,1.8286999999992588],[0.12760416666666666,-0.6518518518518519,1.8453000000007478],[0.11104166666666657,-0.6594444444444445,1.8619999999999948],[0.09677083333333343,-0.6707407407407407,1.878699999999256],[0.08760416666666657,-0.6885185185185185,1.895300000000745],[0.07843749999999995,-0.7062962962962962,1.9121000000014874],[0.044270833333333336,-0.6761111111111111,1.9286999999992531],[-0.007708333333333309,-0.6255555555555555,1.945999999999998],[-0.007708333333333309,-0.6255555555555555,1.9621999999992568],[-0.014687500000000023,-0.6401851851851852,1.9788000000007457],[-0.027604166666666666,-0.6055555555555555,1.9954999999999927],[-0.020729166666666642,-0.5937037037037037,2.0120000000000005],[-0.04104166666666664,-0.545,2.0286999999992474],[-0.020833333333333332,-0.5435185185185185,2.0456999999992576],[0.003958333333333286,-0.5146296296296295,2.062100000001493],[-0.018020833333333285,-0.4390740740740741,2.082100000001489],[-0.06156250000000003,-0.36870370370370376,2.0978000000007455],[-0.07145833333333336,-0.375,2.1119999999999948],[-0.07145833333333336,-0.375,2.128800000000737],[-0.011666666666666714,-0.4166666666666667,2.1454000000022404],[0.003125,-0.3931481481481482,2.1628000000007432],[0.003125,-0.3931481481481482,2.178699999999253],[0.01427083333333338,-0.37537037037037035,2.1954999999999956],[0.01427083333333338,-0.37537037037037035,2.2120000000000033],[-0.00604166666666662,-0.3331481481481481,2.2288000000007457],[-0.00604166666666662,-0.3331481481481481,2.2453000000007393],[-0.020937500000000022,-0.3381481481481482,2.262199999999254],[-0.06770833333333333,-0.3042592592592593,2.2834000000022314],[-0.06770833333333333,-0.3042592592592593,2.295400000002232],[-0.08562500000000005,-0.32333333333333336,2.312100000001493],[-0.11385416666666662,-0.34500000000000003,2.328699999999259],[-0.1319791666666667,-0.33777777777777773,2.345400000002229],[-0.13947916666666665,-0.33648148148148144,2.3626000000014926],[-0.1751041666666667,-0.34333333333333327,2.378699999999256],[-0.1970833333333334,-0.3290740740740741,2.395300000000745],[-0.19822916666666662,-0.33555555555555555,2.4121000000014874],[-0.21583333333333338,-0.3394444444444445,2.428699999999253],[-0.20062500000000003,-0.3538888888888889,2.445300000000742],[-0.2280208333333333,-0.37166666666666665,2.4621000000014845],[-0.2570833333333333,-0.3831481481481481,2.4788000000007457],[-0.2522916666666667,-0.38722222222222225,2.4953000000007393],[-0.23697916666666666,-0.40777777777777774,2.5120000000000005],[-0.20677083333333332,-0.40703703703703703,2.5286999999992474],[-0.21499999999999997,-0.3857407407407408,2.545400000002232],[-0.23687499999999997,-0.38555555555555554,2.562100000001493],[-0.2491666666666667,-0.34685185185185186,2.5786000000014866],[-0.23333333333333334,-0.3124074074074074,2.595400000002229],[-0.24125000000000002,-0.23055555555555557,2.6119999999999948],[-0.19145833333333329,-0.18944444444444447,2.6286000000014837],[-0.16239583333333332,-0.14055555555555552,2.645300000000745],[-0.15687500000000001,-0.09648148148148153,2.6621000000014874],[-0.14874999999999997,-0.06259259259259262,2.678699999999253],[-0.17770833333333336,0.025185185185185227,2.6954000000022376],[-0.18020833333333333,0.10925925925925926,2.7121000000014845],[-0.1592708333333333,0.17074074074074083,2.7286000000014923],[-0.13125,0.22666666666666663,2.7453000000007393],[-0.1609375,0.22148148148148153,2.7631999999992587],[-0.18416666666666662,0.16888888888888898,2.7786999999992474],[-0.23041666666666671,0.17166666666666675,2.7953000000007506],[-0.2738541666666666,0.18629629629629635,2.8119999999999976],[-0.3015625,0.19092592592592597,2.828699999999259],[-0.33093750000000005,0.1985185185185186,2.845400000002229],[-0.3857291666666666,0.19425925925925921,2.8621000000014902],[-0.42854166666666665,0.17314814814814813,2.8786000000014837],[-0.45343749999999994,0.1425925925925926,2.895300000000745],[-0.4995833333333334,0.09074074074074075,2.912000000000006],[-0.46802083333333333,0.08555555555555563,2.9288000000007486],[-0.43645833333333334,0.08037037037037033,2.9461999999992514],[-0.40562499999999996,0.07222222222222222,2.965600000001487],[-0.3715625000000001,0.04296296296296305,2.9794000000022294],[-0.33968750000000003,0.03888888888888889,2.9954000000022347],[-0.3164583333333333,0.01962962962962967,3.0120000000000005],[-0.2648958333333333,-0.02833333333333325,3.028800000000743],[-0.20093749999999996,-0.06555555555555552,3.045400000002232],[-0.17833333333333337,-0.07074074074074072,3.062100000001493],[-0.18635416666666665,-0.049074074074074076,3.078699999999259],[-0.15510416666666665,-0.057777777777777754,3.095300000000748],[-0.14781249999999999,-0.08574074074074076,3.1121000000014902],[-0.1453125,-0.07259259259259257,3.128699999999256],[-0.128125,-0.05796296296296299,3.145300000000745],[-0.09187500000000005,-0.07481481481481478,3.1621000000014874],[-0.04697916666666669,-0.0764814814814815,3.1791999999992555],[-0.04375,-0.06740740740740736,3.195300000000742],[-0.04677083333333331,-0.06518518518518517,3.2121000000014845],[-0.03083333333333336,-0.04388888888888897,3.2286999999992503],[0.01906249999999995,-0.07592592592592592,3.2454000000022347],[0.0034374999999999527,-0.08222222222222218,3.2620000000000005],[-0.02354166666666669,-0.03555555555555564,3.2786999999992474],[-0.012395833333333309,-0.04129629629629621,3.295400000002232],[-0.0012500000000000473,-0.047037037037036995,3.3119999999999976],[-0.0003124999999999526,-0.03222222222222218,3.328699999999259],[0.0006250000000000236,-0.017407407407407365,3.345300000000748],[0.043229166666666666,-0.013333333333333417,3.3621000000014902],[0.05499999999999995,-0.02296296296296292,3.378800000000737],[0.04781249999999997,-0.051666666666666625,3.3954999999999984],[0.012187500000000047,-0.05888888888888891,3.412000000000006],[-0.0171875,-0.047037037037036995,3.428699999999253],[-0.011979166666666667,-0.06740740740740736,3.445300000000742],[-0.04010416666666667,-0.0764814814814815,3.462900000002236],[-0.06177083333333329,-0.04333333333333329,3.478999999999999],[-0.13239583333333335,-0.01629629629629621,3.4953000000007393],[-0.20302083333333332,0.010740740740740657,3.5120000000000005],[-0.26499999999999996,0.0492592592592593,3.5286999999992474],[-0.30229166666666674,0.09759259259259268,3.545400000002232],[-0.29270833333333335,0.1338888888888888,3.562100000001493],[-0.25802083333333337,0.17518518518518522,3.578699999999259],[-0.25718749999999996,0.17685185185185184,3.595400000002229],[-0.255625,0.17703703703703708,3.6119999999999948],[-0.24968750000000003,0.16722222222222213,3.628699999999256],[-0.26114583333333335,0.09499999999999992,3.6454000000022404],[-0.2526041666666667,0.05055555555555547,3.662000000000006],[-0.24406249999999996,0.006111111111111027,3.679300000000751],[-0.2101041666666667,-0.07518518518518523,3.695300000000742],[-0.17614583333333336,-0.15648148148148147,3.7120000000000033],[-0.20864583333333328,-0.18555555555555553,3.7286999999992503],[-0.21875,-0.20481481481481487,3.7454999999999927],[-0.19500000000000003,-0.1844444444444445,3.7620000000000005],[-0.17541666666666664,-0.2037037037037037,3.7786999999992474],[-0.16020833333333329,-0.21296296296296297,3.795400000002232],[-0.13770833333333338,-0.19592592592592595,3.8119999999999976],[-0.10864583333333329,-0.20481481481481487,3.828699999999259],[-0.07104166666666671,-0.20777777777777776,3.845300000000748],[-0.06749999999999995,-0.1853703703703704,3.8621000000014902],[-0.06604166666666664,-0.17777777777777778,3.878699999999256],[-0.08677083333333328,-0.20018518518518522,3.8959000000022286],[-0.12989583333333338,-0.2324074074074074,3.912000000000006],[-0.17052083333333337,-0.22611111111111115,3.928699999999253],[-0.20697916666666671,-0.1801851851851852,3.9458000000007445],[-0.20697916666666671,-0.1801851851851852,3.9621000000014845],[-0.23041666666666671,-0.15111111111111114,3.9786999999992503],[-0.2421875,-0.17296296296296293,3.9953000000007393],[-0.2539583333333333,-0.1948148148148148,4.0120000000000005],[-0.2759375,-0.1581481481481481,4.028699999999247],[-0.28937499999999994,-0.14611111111111108,4.045300000000751],[-0.3459375,-0.0824074074074074,4.063100000001484],[-0.3607291666666666,-0.028888888888888933,4.078699999999259],[-0.3745833333333334,0.03185185185185194,4.095400000002229],[-0.39093749999999994,0.054074074074074156,4.111999999999995],[-0.3819791666666667,0.054259259259259174,4.132100000001486],[-0.3819791666666667,0.054259259259259174,4.145300000000745],[-0.38604166666666667,0.0712962962962963,4.162100000001487],[-0.38604166666666667,0.0712962962962963,4.178600000001495],[-0.39812500000000006,0.13851851851851843,4.195400000002238],[-0.4522916666666667,0.22351851851851862,4.21280000000074],[-0.4522916666666667,0.22351851851851862,4.22869999999925],[-0.45677083333333335,0.2418518518518519,4.245400000002235],[-0.45677083333333335,0.2418518518518519,4.262100000001496],[-0.4717708333333333,0.26222222222222225,4.278699999999247],[-0.443125,0.24611111111111106,4.299400000002237],[-0.443125,0.24611111111111106,4.311999999999998],[-0.4144791666666666,0.2300000000000001,4.328600000001487],[-0.4084375,0.18981481481481483,4.345400000002229],[-0.41437499999999994,0.18574074074074065,4.36210000000149],[-0.42697916666666663,0.1935185185185185,4.378600000001484],[-0.45,0.20851851851851855,4.39540000000224],[-0.47302083333333333,0.21814814814814806,4.412000000000006],[-0.45510416666666664,0.20777777777777787,4.428600000001495],[-0.4786458333333333,0.17685185185185184,4.445600000001491],[-0.5013541666666667,0.1764814814814814,4.4621000000014845],[-0.5225000000000001,0.1757407407407407,4.478600000001492],[-0.5214583333333334,0.16629629629629622,4.495400000002235],[-0.49875,0.1737037037037036,4.511900000002228],[-0.49322916666666666,0.15981481481481474,4.528699999999247],[-0.49302083333333335,0.15166666666666662,4.545300000000751],[-0.48239583333333336,0.13629629629629633,4.561999999999998],[-0.4751041666666667,0.1766666666666666,4.578699999999259],[-0.4666666666666667,0.2192592592592592,4.595300000000748],[-0.4423958333333334,0.23592592592592587,4.611999999999995],[-0.4169791666666666,0.24462962962962967,4.628699999999256],[-0.38875000000000004,0.27685185185185185,4.645300000000745],[-0.3827083333333333,0.3177777777777778,4.662000000000006],[-0.33093750000000005,0.3431481481481481,4.682600000001486],[-0.3145833333333333,0.3303703703703703,4.696699999999254],[-0.29093749999999996,0.3037037037037037,4.713199999999247],[-0.28572916666666665,0.28166666666666673,4.728800000000746],[-0.28885416666666663,0.18925925925925935,4.748000000000005],[-0.24468749999999997,0.1081481481481481,4.762400000002231],[-0.21364583333333337,0.0257407407407407,4.778800000000743],[-0.16656249999999997,-0.062407407407407384,4.795500000000004],[-0.12093750000000002,-0.15129629629629626,4.814499999999995],[-0.10541666666666671,-0.18611111111111112,4.82880000000074],[-0.13562500000000005,-0.20537037037037034,4.848699999999255],[-0.09333333333333335,-0.2227777777777778,4.8681000000014905],[-0.04624999999999998,-0.2507407407407407,4.881900000002233],[0.013229166666666714,-0.25685185185185183,4.896500000000003],[0.084375,-0.24833333333333338,4.91219999999926],[0.08614583333333338,-0.26962962962962966,4.9325000000000045],[0.1109375,-0.2390740740740741,4.949300000000747],[0.1196875000000001,-0.20277777777777778,4.965900000002236],[0.06958333333333329,-0.12981481481481486,4.983499999999992],[0.07947916666666661,-0.09648148148148153,4.998100000001486],[0.08937499999999995,-0.06314814814814819,5.012199999999254],[0.09135416666666671,-0.008333333333333333,5.028699999999247],[0.051145833333333356,0.06722222222222214,5.049400000002237],[0.029791666666666692,0.07185185185185176,5.0655],[0.008437500000000023,0.0764814814814814,5.080500000000001],[0.05927083333333331,0.04407407407407399,5.099500000000006],[0.03125,0.10092592592592593,5.114300000000739],[0.05572916666666667,0.06314814814814819,5.129000000000005],[0.13770833333333338,-0.034074074074074034,5.145300000000745],[0.16739583333333338,-0.14759259259259258,5.16619999999925],[0.16739583333333338,-0.14759259259259258,5.184300000000746],[0.1970833333333334,-0.2611111111111111,5.200699999999259],[0.1970833333333334,-0.2611111111111111,5.212000000000003],[0.21572916666666658,-0.3566666666666667,5.22869999999925],[0.2390625,-0.4522222222222222,5.245300000000739],[0.24270833333333333,-0.44592592592592595,5.265199999999254],[0.24635416666666668,-0.4396296296296296,5.278900000002238],[0.2211458333333333,-0.40259259259259256,5.295400000002232],[0.23239583333333325,-0.45611111111111113,5.314699999999249],[0.17583333333333329,-0.3990740740740741,5.328600000001487],[0.11927083333333334,-0.34203703703703703,5.345300000000748],[0.08510416666666672,-0.2831481481481481,5.361999999999995],[0.11104166666666657,-0.2983333333333334,5.378600000001484],[0.14802083333333324,-0.3314814814814815,5.395300000000745],[0.16604166666666675,-0.28888888888888886,5.411900000002234],[0.19093749999999995,-0.3037037037037037,5.428600000001495],[0.19822916666666662,-0.31666666666666665,5.445300000000742],[0.24229166666666657,-0.3514814814814815,5.463199999999247],[0.21489583333333329,-0.32981481481481484,5.478800000000746],[0.2257291666666667,-0.30537037037037035,5.495300000000739],[0.228125,-0.29796296296296293,5.5120000000000005],[0.19583333333333333,-0.2601851851851852,5.528600000001489],[0.10343749999999995,-0.14833333333333337,5.545300000000751],[0.023958333333333335,-0.038703703703703664,5.562100000001493],[-0.004166666666666667,-0.036666666666666584,5.579199999999247],[-0.050416666666666644,-0.0012962962962963806,5.595300000000748],[-0.07906249999999998,0.03222222222222218,5.611999999999995],[-0.14645833333333336,0.07925925925925917,5.628699999999256],[-0.13229166666666667,0.06925925925925921,5.645300000000745],[-0.15187499999999995,0.032777777777777864,5.662100000001487],[-0.16302083333333334,0.013333333333333417,5.678699999999253],[-0.12427083333333329,-0.01314814814814819,5.695300000000742],[-0.11364583333333336,-0.025,5.712000000000003],[-0.06218750000000005,-0.04018518518518527,5.728800000000746],[-0.03104166666666662,-0.015370370370370286,5.745300000000739],[-0.0018749999999999527,0.006666666666666709,5.762100000001496],[-0.018333333333333358,-0.005370370370370328,5.778699999999247],[-0.05447916666666662,0.024814814814814772,5.795300000000751],[-0.12479166666666662,0.1316666666666667,5.81190000000224],[-0.18541666666666667,0.25314814814814823,5.828699999999259],[-0.2311458333333333,0.3394444444444444,5.845300000000748],[-0.2920833333333333,0.4024074074074073,5.861999999999995],[-0.2803125,0.4038888888888889,5.878699999999256],[-0.33229166666666665,0.4107407407407407,5.895300000000745],[-0.3842708333333333,0.41759259259259257,5.912000000000006],[-0.3928125,0.36018518518518516,5.928600000001495],[-0.35614583333333333,0.3292592592592592,5.94590000000224],[-0.35614583333333333,0.3292592592592592,5.9621000000014845],[-0.306875,0.31203703703703706,5.97869999999925],[-0.26156250000000003,0.23962962962962958,5.995300000000739],[-0.21510416666666668,0.1603703703703704,6.0120000000000005],[-0.16802083333333329,0.11037037037037041,6.028699999999247],[-0.13729166666666662,0.05388888888888893,6.045400000002232],[-0.1814583333333334,0.09203703703703713,6.062199999999251],[-0.215625,0.13037037037037033,6.078699999999259],[-0.2976041666666667,0.17759259259259255,6.095300000000748],[-0.4310416666666666,0.27388888888888885,6.111999999999995],[-0.5314583333333334,0.365925925925926,6.133100000001491],[-0.5314583333333334,0.365925925925926,6.145300000000745],[-0.6440625,0.4351851851851852,6.162000000000006],[-0.6440625,0.4351851851851852,6.178699999999253],[-0.6998958333333333,0.47018518518518515,6.195400000002238],[-0.6998958333333333,0.47018518518518515,6.212000000000003],[-0.7929166666666667,0.5325925925925926,6.22869999999925],[-0.7929166666666667,0.5325925925925926,6.245300000000739],[-0.894375,0.6094444444444445,6.262100000001496],[-0.894375,0.6094444444444445,6.278600000001489],[-0.9447916666666667,0.6311111111111111,6.295400000002232],[-0.9466666666666667,0.6259259259259259,6.3126999999992535],[-0.935,0.6346296296296298,6.328600000001487],[-0.8755208333333333,0.6344444444444445,6.345300000000748],[-0.8379166666666666,0.6346296296296298,6.3629999999999995],[-0.8329166666666666,0.6466666666666667,6.378699999999256],[-0.7796875,0.6670370370370371,6.395300000000745],[-0.7451041666666666,0.7001851851851852,6.411900000002234],[-0.6521875,0.7235185185185186,6.428699999999253],[-0.5663541666666667,0.7383333333333334,6.445300000000742],[-0.515,0.8057407407407408,6.4621000000014845],[-0.515,0.8057407407407408,6.478600000001492],[-0.46520833333333333,0.8392592592592594,6.495300000000739],[-0.4470833333333334,0.8738888888888888,6.5120000000000005],[-0.41729166666666667,0.8544444444444445,6.528699999999247],[-0.368125,0.8562962962962962,6.545300000000751],[-0.2945833333333333,0.8398148148148148,6.566400000002233],[-0.23958333333333334,0.8231481481481482,6.581300000000738],[-0.18458333333333338,0.8064814814814815,6.595500000000001],[-0.18135416666666668,0.7572222222222221,6.611900000002237],[-0.22062499999999996,0.7353703703703705,6.629100000001486],[-0.2247916666666666,0.7262962962962963,6.6451999999992495],[-0.2569791666666667,0.7088888888888888,6.662900000002239],[-0.2546875,0.6757407407407408,6.678600000001495],[-0.26760416666666664,0.7344444444444445,6.695300000000742],[-0.24989583333333332,0.7561111111111111,6.712000000000003],[-0.26927083333333335,0.7738888888888888,6.729500000000002],[-0.31833333333333336,0.7835185185185186,6.745300000000739],[-0.3264583333333333,0.774074074074074,6.764300000000745],[-0.3039583333333333,0.7796296296296297,6.779100000001492],[-0.2657291666666667,0.7655555555555555,6.795300000000751],[-0.23447916666666668,0.7379629629629629,6.81190000000224],[-0.21281249999999996,0.7262962962962963,6.829100000001489],[-0.20750000000000005,0.7153703703703703,6.845199999999252],[-0.20187499999999994,0.7107407407407407,6.86210000000149],[-0.19624999999999998,0.706111111111111,6.8799000000022374],[-0.1811458333333333,0.6824074074074075,6.895600000001494],[-0.16604166666666664,0.6587037037037038,6.912000000000006],[-0.21749999999999994,0.6653703703703703,6.928699999999253],[-0.26895833333333335,0.672037037037037,6.945999999999998],[-0.2670833333333333,0.6840740740740741,6.967300000000748],[-0.3225,0.696111111111111,6.982100000001495],[-0.35697916666666674,0.7135185185185184,6.996300000000744],[-0.3958333333333333,0.7485185185185186,7.0120000000000005],[-0.4314583333333334,0.7394444444444443,7.028699999999247],[-0.45249999999999996,0.6968518518518517,7.045300000000751],[-0.4978125,0.7096296296296297,7.063000000000002],[-0.543125,0.7224074074074075,7.078600000001487],[-0.5363541666666667,0.6992592592592592,7.095300000000748],[-0.5295833333333333,0.6761111111111111,7.111999999999995],[-0.5611458333333333,0.6216666666666667,7.128600000001484],[-0.5637500000000001,0.5770370370370371,7.1451999999992495],[-0.5339583333333333,0.5270370370370371,7.162000000000006],[-0.5126041666666666,0.46222222222222226,7.178699999999253],[-0.52125,0.3949999999999999,7.195300000000742],[-0.5316666666666666,0.3707407407407408,7.212000000000003],[-0.5527083333333334,0.3253703703703705,7.22869999999925],[-0.57375,0.2800000000000001,7.245400000002235],[-0.5779166666666666,0.24740740740740744,7.2620000000000005],[-0.5820833333333333,0.21481481481481482,7.278600000001489],[-0.5706249999999999,0.18185185185185193,7.295300000000751],[-0.5763541666666666,0.1618518518518518,7.311999999999998],[-0.6040625,0.1625925925925925,7.32880000000074],[-0.6189583333333334,0.16055555555555565,7.345300000000748],[-0.6038541666666667,0.1609259259259259,7.363199999999253],[-0.5982291666666666,0.1527777777777778,7.382699999999261],[-0.5982291666666666,0.1527777777777778,7.39540000000224],[-0.501875,0.08907407407407411,7.41219999999926],[-0.4055208333333333,0.025370370370370456,7.428800000000749],[-0.353125,-0.01648148148148144,7.448300000000742],[-0.28229166666666666,-0.0735185185185185,7.462900000002236],[-0.21531250000000005,-0.11203703703703703,7.478900000002241],[-0.13479166666666664,-0.13944444444444445,7.495400000002235],[-0.09635416666666667,-0.1522222222222222,7.515000000000001],[-0.0140625,-0.18481481481481485,7.528699999999247],[0.06822916666666666,-0.21740740740740735,7.545600000001485],[0.17416666666666672,-0.27259259259259255,7.566500000000005],[0.19145833333333329,-0.2646296296296296,7.580900000002231],[0.19802083333333323,-0.2462962962962963,7.595400000002229],[0.20520833333333333,-0.23796296296296296,7.61210000000149],[0.21885416666666657,-0.22259259259259256,7.63230000000074],[0.21291666666666675,-0.20925925925925926,7.647699999999247],[0.19760416666666672,-0.2094444444444445,7.6636000000014945],[0.21395833333333342,-0.23962962962962958,7.682000000000002],[0.2195833333333333,-0.2887037037037037,7.698100000001489],[0.22520833333333337,-0.33777777777777773,7.712199999999257],[0.18489583333333334,-0.3611111111111111,7.728800000000746],[0.1806250000000001,-0.38499999999999995,7.749100000001491],[0.18125,-0.39537037037037037,7.764199999999249],[0.20041666666666677,-0.42666666666666664,7.779600000001494],[0.1946875000000001,-0.4498148148148148,7.795400000002232],[0.21041666666666667,-0.48629629629629634,7.814699999999249],[0.23322916666666677,-0.5142592592592592,7.830100000001494],[0.2560416666666666,-0.5422222222222223,7.847999999999999],[0.19562499999999997,-0.49296296296296294,7.867100000001486],[0.1671875,-0.4655555555555555,7.882900000002238],[0.16666666666666666,-0.4257407407407407,7.897800000000743],[0.16614583333333333,-0.3859259259259259,7.912400000002236],[0.18302083333333338,-0.41092592592592586,7.928600000001495],[0.18135416666666657,-0.41500000000000004,7.947199999999256],[0.16437499999999997,-0.392037037037037,7.966100000001489],[0.14552083333333338,-0.3537037037037037,7.981400000002239],[0.1640625,-0.3648148148148148,7.995300000000739],[0.18260416666666662,-0.37592592592592594,8.011900000002228],[0.2497916666666666,-0.40981481481481485,8.029300000000745],[0.24989583333333343,-0.41,8.045199999999255],[0.23885416666666662,-0.40370370370370373,8.064999999999998],[0.22781250000000006,-0.39740740740740743,8.079199999999247],[0.2359375,-0.3942592592592592,8.095600000001482],[0.24406249999999996,-0.3911111111111111,8.117800000000742],[0.24406249999999996,-0.3911111111111111,8.128600000001484],[0.21583333333333338,-0.41222222222222227,8.145300000000745],[0.18760416666666657,-0.43333333333333335,8.168999999999997],[0.18760416666666657,-0.43333333333333335,8.178600000001495],[0.16708333333333342,-0.42388888888888887,8.195300000000742],[0.15239583333333329,-0.41148148148148145,8.21269999999926],[0.15239583333333329,-0.41148148148148145,8.22869999999925],[0.16135416666666677,-0.40925925925925927,8.24530000000074],[0.16020833333333329,-0.43203703703703705,8.26630000000074],[0.16020833333333329,-0.43203703703703705,8.27860000000149],[0.16124999999999995,-0.4777777777777778,8.29530000000075],[0.16124999999999995,-0.4777777777777778,8.311999999999998],[0.11979166666666667,-0.5061111111111112,8.328699999999259],[0.08125,-0.49166666666666664,8.345300000000748],[0.02791666666666662,-0.47759259259259257,8.36510000000149],[0.026250000000000048,-0.4662962962962963,8.380800000000747],[0.018229166666666668,-0.41462962962962957,8.397800000000743],[-0.028958333333333287,-0.36314814814814816,8.412800000000743],[-0.022500000000000023,-0.3514814814814815,8.42980000000074],[-0.03822916666666672,-0.3453703703703704,8.445300000000742],[0.04770833333333328,-0.28129629629629627,8.462000000000003],[0.1336458333333333,-0.21722222222222223,8.483600000001488],[0.21135416666666676,-0.12000000000000002,8.498000000000005],[0.25541666666666674,-0.021481481481481525,8.511900000002228],[0.3323958333333332,0.06407407407407412,8.52860000000149],[0.409375,0.14962962962962956,8.54530000000075],[0.49270833333333336,0.1948148148148149,8.561999999999998],[0.5543750000000001,0.24166666666666667,8.578600000001487],[0.5364583333333334,0.3538888888888889,8.595400000002229],[0.5042708333333332,0.4946296296296297,8.611999999999995],[0.415625,0.5905555555555555,8.629199999999258],[0.35604166666666665,0.6361111111111111,8.645300000000745],[0.3471874999999999,0.6311111111111111,8.662000000000006],[0.33406250000000004,0.6318518518518519,8.678600000001495],[0.27614583333333326,0.6875925925925925,8.69590000000224],[0.24083333333333337,0.7229629629629629,8.712000000000003],[0.1803124999999999,0.7457407407407408,8.728499999999997],[0.11958333333333329,0.8042592592592592,8.745199999999258],[0.07770833333333324,0.730925925925926,8.761900000002228],[0.04593750000000003,0.6290740740740741,8.77860000000149],[0.013437499999999976,0.537962962962963,8.79530000000075],[-0.05166666666666669,0.4946296296296297,8.81190000000224],[-0.12625000000000006,0.4372222222222223,8.829600000001491],[-0.12625000000000006,0.4372222222222223,8.848199999999252],[-0.19656250000000006,0.37407407407407406,8.865499999999997],[-0.23687499999999997,0.26851851851851855,8.879100000001486],[-0.3026041666666667,0.2074074074074074,8.896100000001496],[-0.3441666666666666,0.16629629629629622,8.911900000002234],[-0.3884375,0.06962962962962967,8.928600000001495],[-0.41770833333333335,0.04814814814814815,8.946199999999251],[-0.4565624999999999,0.05481481481481486,8.963300000000743]]","[0.000199999999253464,0.036400000002231536,0.047400000002227216,0.06619999999925597,0.07930000000074244,0.09540000000222904,0.11199999999999477,0.1288000000007372,0.1454999999999984,0.1621000000014874,0.17869999999925312,0.19540000000223756,0.21210000000148455,0.2338000000007412,0.25069999999925585,0.2621999999992539,0.2788000000007429,0.2988000000007389,0.31319999999925585,0.3286999999992588,0.34540000000222904,0.363100000001495,0.3814000000022304,0.3954000000022404,0.41200000000000614,0.4286999999992531,0.4453000000007421,0.46210000000148455,0.4821999999992528,0.49610000000149057,0.5121000000014959,0.5286999999992474,0.5454000000022319,0.5621000000014931,0.5788000000007401,0.595400000002229,0.6119999999999948,0.628699999999256,0.6454000000022404,0.6621000000014874,0.6786999999992531,0.6963000000007469,0.7121000000014845,0.7288000000007457,0.7454000000022347,0.7631000000014865,0.7786999999992474,0.7954000000022319,0.8119999999999976,0.8286999999992588,0.8491999999992572,0.8669000000022322,0.8829999999999956,0.8974000000022357,0.9124999999999943,0.9316000000014952,0.949300000000747,0.9668000000007453,0.9846999999992505,0.9986000000014883,1.0125000000000028,1.0289999999999964,1.0496999999992482,1.0651999999992512,1.079199999999247,1.0991999999992572,1.1146999999992602,1.1296999999992607,1.1454999999999984,1.1676999999992574,1.1825000000000045,1.1978000000007398,1.2125000000000057,1.231400000002239,1.2456999999992604,1.2624000000022306,1.2843000000007407,1.2983000000007507,1.313999999999993,1.329499999999996,1.3489000000022315,1.3644999999999925,1.3791999999992584,1.3981000000014916,1.4120000000000061,1.4286999999992531,1.4488000000007446,1.4639999999999986,1.4795000000000016,1.4991000000014907,1.5131000000014865,1.5331000000014825,1.5626999999992535,1.5694000000022328,1.5786999999992588,1.595400000002229,1.6141000000014856,1.6289000000022327,1.645300000000745,1.6643000000007504,1.6786999999992531,1.6954000000022376,1.7121000000014845,1.7288000000007457,1.7454999999999927,1.762199999999254,1.7786999999992474,1.7954000000022319,1.812100000001493,1.8286999999992588,1.8453000000007478,1.8619999999999948,1.878699999999256,1.895300000000745,1.9121000000014874,1.9286999999992531,1.945999999999998,1.9621999999992568,1.9788000000007457,1.9954999999999927,2.0120000000000005,2.0286999999992474,2.0456999999992576,2.062100000001493,2.082100000001489,2.0978000000007455,2.1119999999999948,2.128800000000737,2.1454000000022404,2.1628000000007432,2.178699999999253,2.1954999999999956,2.2120000000000033,2.2288000000007457,2.2453000000007393,2.262199999999254,2.2834000000022314,2.295400000002232,2.312100000001493,2.328699999999259,2.345400000002229,2.3626000000014926,2.378699999999256,2.395300000000745,2.4121000000014874,2.428699999999253,2.445300000000742,2.4621000000014845,2.4788000000007457,2.4953000000007393,2.5120000000000005,2.5286999999992474,2.545400000002232,2.562100000001493,2.5786000000014866,2.595400000002229,2.6119999999999948,2.6286000000014837,2.645300000000745,2.6621000000014874,2.678699999999253,2.6954000000022376,2.7121000000014845,2.7286000000014923,2.7453000000007393,2.7631999999992587,2.7786999999992474,2.7953000000007506,2.8119999999999976,2.828699999999259,2.845400000002229,2.8621000000014902,2.8786000000014837,2.895300000000745,2.912000000000006,2.9288000000007486,2.9461999999992514,2.965600000001487,2.9794000000022294,2.9954000000022347,3.0120000000000005,3.028800000000743,3.045400000002232,3.062100000001493,3.078699999999259,3.095300000000748,3.1121000000014902,3.128699999999256,3.145300000000745,3.1621000000014874,3.1791999999992555,3.195300000000742,3.2121000000014845,3.2286999999992503,3.2454000000022347,3.2620000000000005,3.2786999999992474,3.295400000002232,3.3119999999999976,3.328699999999259,3.345300000000748,3.3621000000014902,3.378800000000737,3.3954999999999984,3.412000000000006,3.428699999999253,3.445300000000742,3.462900000002236,3.478999999999999,3.4953000000007393,3.5120000000000005,3.5286999999992474,3.545400000002232,3.562100000001493,3.578699999999259,3.595400000002229,3.6119999999999948,3.628699999999256,3.6454000000022404,3.662000000000006,3.679300000000751,3.695300000000742,3.7120000000000033,3.7286999999992503,3.7454999999999927,3.7620000000000005,3.7786999999992474,3.795400000002232,3.8119999999999976,3.828699999999259,3.845300000000748,3.8621000000014902,3.878699999999256,3.8959000000022286,3.912000000000006,3.928699999999253,3.9458000000007445,3.9621000000014845,3.9786999999992503,3.9953000000007393,4.0120000000000005,4.028699999999247,4.045300000000751,4.063100000001484,4.078699999999259,4.095400000002229,4.111999999999995,4.132100000001486,4.145300000000745,4.162100000001487,4.178600000001495,4.195400000002238,4.21280000000074,4.22869999999925,4.245400000002235,4.262100000001496,4.278699999999247,4.299400000002237,4.311999999999998,4.328600000001487,4.345400000002229,4.36210000000149,4.378600000001484,4.39540000000224,4.412000000000006,4.428600000001495,4.445600000001491,4.4621000000014845,4.478600000001492,4.495400000002235,4.511900000002228,4.528699999999247,4.545300000000751,4.561999999999998,4.578699999999259,4.595300000000748,4.611999999999995,4.628699999999256,4.645300000000745,4.662000000000006,4.682600000001486,4.696699999999254,4.713199999999247,4.728800000000746,4.748000000000005,4.762400000002231,4.778800000000743,4.795500000000004,4.814499999999995,4.82880000000074,4.848699999999255,4.8681000000014905,4.881900000002233,4.896500000000003,4.91219999999926,4.9325000000000045,4.949300000000747,4.965900000002236,4.983499999999992,4.998100000001486,5.012199999999254,5.028699999999247,5.049400000002237,5.0655,5.080500000000001,5.099500000000006,5.114300000000739,5.129000000000005,5.145300000000745,5.16619999999925,5.184300000000746,5.200699999999259,5.212000000000003,5.22869999999925,5.245300000000739,5.265199999999254,5.278900000002238,5.295400000002232,5.314699999999249,5.328600000001487,5.345300000000748,5.361999999999995,5.378600000001484,5.395300000000745,5.411900000002234,5.428600000001495,5.445300000000742,5.463199999999247,5.478800000000746,5.495300000000739,5.5120000000000005,5.528600000001489,5.545300000000751,5.562100000001493,5.579199999999247,5.595300000000748,5.611999999999995,5.628699999999256,5.645300000000745,5.662100000001487,5.678699999999253,5.695300000000742,5.712000000000003,5.728800000000746,5.745300000000739,5.762100000001496,5.778699999999247,5.795300000000751,5.81190000000224,5.828699999999259,5.845300000000748,5.861999999999995,5.878699999999256,5.895300000000745,5.912000000000006,5.928600000001495,5.94590000000224,5.9621000000014845,5.97869999999925,5.995300000000739,6.0120000000000005,6.028699999999247,6.045400000002232,6.062199999999251,6.078699999999259,6.095300000000748,6.111999999999995,6.133100000001491,6.145300000000745,6.162000000000006,6.178699999999253,6.195400000002238,6.212000000000003,6.22869999999925,6.245300000000739,6.262100000001496,6.278600000001489,6.295400000002232,6.3126999999992535,6.328600000001487,6.345300000000748,6.3629999999999995,6.378699999999256,6.395300000000745,6.411900000002234,6.428699999999253,6.445300000000742,6.4621000000014845,6.478600000001492,6.495300000000739,6.5120000000000005,6.528699999999247,6.545300000000751,6.566400000002233,6.581300000000738,6.595500000000001,6.611900000002237,6.629100000001486,6.6451999999992495,6.662900000002239,6.678600000001495,6.695300000000742,6.712000000000003,6.729500000000002,6.745300000000739,6.764300000000745,6.779100000001492,6.795300000000751,6.81190000000224,6.829100000001489,6.845199999999252,6.86210000000149,6.8799000000022374,6.895600000001494,6.912000000000006,6.928699999999253,6.945999999999998,6.967300000000748,6.982100000001495,6.996300000000744,7.0120000000000005,7.028699999999247,7.045300000000751,7.063000000000002,7.078600000001487,7.095300000000748,7.111999999999995,7.128600000001484,7.1451999999992495,7.162000000000006,7.178699999999253,7.195300000000742,7.212000000000003,7.22869999999925,7.245400000002235,7.2620000000000005,7.278600000001489,7.295300000000751,7.311999999999998,7.32880000000074,7.345300000000748,7.363199999999253,7.382699999999261,7.39540000000224,7.41219999999926,7.428800000000749,7.448300000000742,7.462900000002236,7.478900000002241,7.495400000002235,7.515000000000001,7.528699999999247,7.545600000001485,7.566500000000005,7.580900000002231,7.595400000002229,7.61210000000149,7.63230000000074,7.647699999999247,7.6636000000014945,7.682000000000002,7.698100000001489,7.712199999999257,7.728800000000746,7.749100000001491,7.764199999999249,7.779600000001494,7.795400000002232,7.814699999999249,7.830100000001494,7.847999999999999,7.867100000001486,7.882900000002238,7.897800000000743,7.912400000002236,7.928600000001495,7.947199999999256,7.966100000001489,7.981400000002239,7.995300000000739,8.011900000002228,8.029300000000745,8.045199999999255,8.064999999999998,8.079199999999247,8.095600000001482,8.117800000000742,8.128600000001484,8.145300000000745,8.168999999999997,8.178600000001495,8.195300000000742,8.21269999999926,8.22869999999925,8.24530000000074,8.26630000000074,8.27860000000149,8.29530000000075,8.311999999999998,8.328699999999259,8.345300000000748,8.36510000000149,8.380800000000747,8.397800000000743,8.412800000000743,8.42980000000074,8.445300000000742,8.462000000000003,8.483600000001488,8.498000000000005,8.511900000002228,8.52860000000149,8.54530000000075,8.561999999999998,8.578600000001487,8.595400000002229,8.611999999999995,8.629199999999258,8.645300000000745,8.662000000000006,8.678600000001495,8.69590000000224,8.712000000000003,8.728499999999997,8.745199999999258,8.761900000002228,8.77860000000149,8.79530000000075,8.81190000000224,8.829600000001491,8.848199999999252,8.865499999999997,8.879100000001486,8.896100000001496,8.911900000002234,8.928600000001495,8.946199999999251,8.963300000000743]","[1733132812700,1733132812730,1733132812741,1733132812759,1733132812773,1733132812789,1733132812805,1733132812822,1733132812839,1733132812855,1733132812872,1733132812889,1733132812905,1733132812927,1733132812944,1733132812955,1733132812972,1733132812992,1733132813007,1733132813022,1733132813039,1733132813056,1733132813075,1733132813089,1733132813105,1733132813122,1733132813139,1733132813155,1733132813175,1733132813189,1733132813205,1733132813222,1733132813239,1733132813255,1733132813272,1733132813289,1733132813305,1733132813322,1733132813339,1733132813355,1733132813372,1733132813390,1733132813405,1733132813422,1733132813439,1733132813456,1733132813472,1733132813489,1733132813505,1733132813522,1733132813542,1733132813560,1733132813576,1733132813591,1733132813606,1733132813625,1733132813643,1733132813660,1733132813678,1733132813692,1733132813706,1733132813722,1733132813743,1733132813758,1733132813773,1733132813792,1733132813808,1733132813823,1733132813839,1733132813861,1733132813876,1733132813891,1733132813906,1733132813925,1733132813939,1733132813956,1733132813978,1733132813992,1733132814007,1733132814023,1733132814042,1733132814058,1733132814073,1733132814091,1733132814105,1733132814122,1733132814142,1733132814157,1733132814173,1733132814192,1733132814206,1733132814226,1733132814256,1733132814263,1733132814272,1733132814289,1733132814307,1733132814322,1733132814339,1733132814358,1733132814372,1733132814389,1733132814405,1733132814422,1733132814439,1733132814455,1733132814472,1733132814489,1733132814505,1733132814522,1733132814539,1733132814555,1733132814572,1733132814589,1733132814605,1733132814622,1733132814639,1733132814656,1733132814672,1733132814689,1733132814705,1733132814722,1733132814739,1733132814755,1733132814775,1733132814791,1733132814805,1733132814822,1733132814839,1733132814856,1733132814872,1733132814889,1733132814905,1733132814922,1733132814939,1733132814955,1733132814977,1733132814989,1733132815005,1733132815022,1733132815039,1733132815056,1733132815072,1733132815089,1733132815105,1733132815122,1733132815139,1733132815155,1733132815172,1733132815189,1733132815205,1733132815222,1733132815239,1733132815255,1733132815272,1733132815289,1733132815305,1733132815322,1733132815339,1733132815355,1733132815372,1733132815389,1733132815405,1733132815422,1733132815439,1733132815456,1733132815472,1733132815489,1733132815505,1733132815522,1733132815539,1733132815555,1733132815572,1733132815589,1733132815605,1733132815622,1733132815640,1733132815659,1733132815673,1733132815689,1733132815705,1733132815722,1733132815739,1733132815755,1733132815772,1733132815789,1733132815805,1733132815822,1733132815839,1733132815855,1733132815873,1733132815889,1733132815905,1733132815922,1733132815939,1733132815955,1733132815972,1733132815989,1733132816005,1733132816022,1733132816039,1733132816055,1733132816072,1733132816089,1733132816105,1733132816122,1733132816139,1733132816156,1733132816172,1733132816189,1733132816205,1733132816222,1733132816239,1733132816255,1733132816272,1733132816289,1733132816305,1733132816322,1733132816339,1733132816355,1733132816373,1733132816389,1733132816405,1733132816422,1733132816439,1733132816455,1733132816472,1733132816489,1733132816505,1733132816522,1733132816539,1733132816555,1733132816572,1733132816589,1733132816605,1733132816622,1733132816639,1733132816655,1733132816672,1733132816689,1733132816705,1733132816722,1733132816739,1733132816756,1733132816772,1733132816789,1733132816805,1733132816825,1733132816839,1733132816855,1733132816872,1733132816889,1733132816906,1733132816922,1733132816939,1733132816955,1733132816972,1733132816993,1733132817005,1733132817022,1733132817039,1733132817055,1733132817072,1733132817089,1733132817105,1733132817122,1733132817139,1733132817155,1733132817172,1733132817189,1733132817205,1733132817222,1733132817239,1733132817255,1733132817272,1733132817289,1733132817305,1733132817322,1733132817339,1733132817355,1733132817376,1733132817390,1733132817406,1733132817422,1733132817441,1733132817456,1733132817472,1733132817489,1733132817508,1733132817522,1733132817542,1733132817561,1733132817575,1733132817590,1733132817605,1733132817626,1733132817643,1733132817659,1733132817677,1733132817691,1733132817706,1733132817722,1733132817743,1733132817759,1733132817774,1733132817793,1733132817808,1733132817822,1733132817839,1733132817860,1733132817878,1733132817894,1733132817905,1733132817922,1733132817939,1733132817958,1733132817972,1733132817989,1733132818008,1733132818022,1733132818039,1733132818055,1733132818072,1733132818089,1733132818105,1733132818122,1733132818139,1733132818156,1733132818172,1733132818189,1733132818205,1733132818222,1733132818239,1733132818255,1733132818273,1733132818289,1733132818305,1733132818322,1733132818339,1733132818355,1733132818372,1733132818389,1733132818405,1733132818422,1733132818439,1733132818455,1733132818472,1733132818489,1733132818505,1733132818522,1733132818539,1733132818555,1733132818572,1733132818589,1733132818605,1733132818622,1733132818639,1733132818655,1733132818672,1733132818689,1733132818705,1733132818722,1733132818739,1733132818756,1733132818772,1733132818789,1733132818805,1733132818826,1733132818839,1733132818855,1733132818872,1733132818889,1733132818905,1733132818922,1733132818939,1733132818955,1733132818972,1733132818989,1733132819006,1733132819022,1733132819039,1733132819056,1733132819072,1733132819089,1733132819105,1733132819122,1733132819139,1733132819155,1733132819172,1733132819189,1733132819205,1733132819222,1733132819239,1733132819260,1733132819275,1733132819289,1733132819305,1733132819322,1733132819339,1733132819356,1733132819372,1733132819389,1733132819405,1733132819423,1733132819439,1733132819458,1733132819472,1733132819489,1733132819505,1733132819522,1733132819539,1733132819555,1733132819573,1733132819589,1733132819605,1733132819622,1733132819639,1733132819661,1733132819675,1733132819690,1733132819705,1733132819722,1733132819739,1733132819756,1733132819772,1733132819789,1733132819805,1733132819822,1733132819839,1733132819855,1733132819872,1733132819889,1733132819905,1733132819922,1733132819939,1733132819955,1733132819972,1733132819989,1733132820005,1733132820022,1733132820039,1733132820057,1733132820076,1733132820089,1733132820106,1733132820122,1733132820142,1733132820156,1733132820172,1733132820189,1733132820208,1733132820222,1733132820239,1733132820260,1733132820274,1733132820289,1733132820305,1733132820326,1733132820341,1733132820357,1733132820375,1733132820391,1733132820406,1733132820422,1733132820442,1733132820458,1733132820473,1733132820489,1733132820508,1733132820523,1733132820541,1733132820560,1733132820576,1733132820591,1733132820606,1733132820622,1733132820641,1733132820659,1733132820675,1733132820689,1733132820705,1733132820723,1733132820739,1733132820758,1733132820772,1733132820789,1733132820811,1733132820822,1733132820839,1733132820862,1733132820872,1733132820889,1733132820906,1733132820922,1733132820939,1733132820960,1733132820972,1733132820989,1733132821005,1733132821022,1733132821039,1733132821058,1733132821074,1733132821091,1733132821106,1733132821123,1733132821139,1733132821155,1733132821177,1733132821191,1733132821205,1733132821222,1733132821239,1733132821255,1733132821272,1733132821289,1733132821305,1733132821323,1733132821339,1733132821355,1733132821372,1733132821389,1733132821405,1733132821422,1733132821439,1733132821455,1733132821472,1733132821489,1733132821505,1733132821523,1733132821541,1733132821559,1733132821572,1733132821589,1733132821605,1733132821622,1733132821640,1733132821657]","[[833.8,735.9],[833.8,735.9],[862.9,718.3],[858.2,725.1],[811.1,743.7],[843,720.9],[881.9,694.5],[881.9,694.5],[827.4,679.7],[827.4,679.7],[772.9,664.9],[772.9,664.9],[754.7,617.9],[757.6,594.6],[709.6,594.9],[709.6,594.9],[682.1,613.7],[723.4,572.3],[766.6,535.7],[750.8,564.3],[735,592.9],[755.7,589.4],[776.4,585.9],[732.7,617.7],[680.9,629.4],[682.4,624.8],[710.8,612.6],[679.1,625.1],[647.4,637.6],[660.6,624.4],[652.7,599.6],[669.4,608.3],[668.6,606.2],[693.8,580.6],[730.4,566.9],[733.7,572.2],[693.6,561.5],[678.6,561.9],[686.3,575],[681.5,582.3],[687.3,583.9],[688.5,604.1],[704.2,583],[714.3,607.3],[731.4,616.2],[737.1,612.8],[786.2,625.4],[848.3,618.3],[887.7,598.5],[874.4,566.9],[871.6,552.6],[881.3,511],[922.1,564.3],[923,560.9],[905.5,561],[945.3,583.5],[948.5,588.2],[938.7,612.6],[896.7,642.4],[908.6,669.5],[898.7,691.4],[873.5,707.5],[831.5,685.9],[857.7,673.2],[883.9,660.5],[837.6,636.6],[838.2,619.6],[825.7,627.6],[842,633.4],[842.8,630.1],[887.4,621.5],[913.3,652.3],[925.3,639.7],[898,660.5],[901.7,642.5],[927.4,639.6],[942.8,647.6],[931.9,638.3],[924.4,625.8],[944.3,599.5],[929.7,602],[947.5,544.6],[967.6,535.8],[1004.3,496],[978.4,498.8],[937.1,484.9],[904.4,493.6],[906.6,464.4],[908.8,435.2],[899.6,456.4],[905.2,438.1],[895.4,447.3],[895.4,447.3],[889,442.9],[889,442.9],[891.9,424.8],[942.3,409.6],[994.5,404],[1032.1,378.9],[1043.9,370.5],[1065,369.5],[1087.1,337.9],[1074.2,339.9],[1103,313.2],[1128.7,289.8],[1145.1,280.1],[1122.8,276.2],[1098.7,262.7],[1074.2,227.5],[1080,205.8],[1082.5,188],[1066.6,183.9],[1052.