inst1_resp.keys,inst1_resp.rt,calibrationMouse.x,calibrationMouse.y,calibrationMouse.leftButton,calibrationMouse.midButton,calibrationMouse.rightButton,calibrationClick.x,calibrationClick.y,calibrationClick.leftButton,calibrationClick.midButton,calibrationClick.rightButton,calibrationClick.clicked_name,trialsc.thisRepN,trialsc.thisTrialN,trialsc.thisN,trialsc.thisIndex,trialsc.ran,calibration_x,calibration_y,participant,session,date,expName,psychopyVersion,OS,frameRate,ScreenRes_pixels,Camera_pixels,mouse_2.x,mouse_2.y,mouse_2.leftButton,mouse_2.midButton,mouse_2.rightButton,mouse_2.time,mouse_2.clicked_name,mouse.x,mouse.y,mouse.leftButton,mouse.midButton,mouse.rightButton,mouse.time,mouse.clicked_name,Choice,Trial,TrialDuration,MOUSE_GAZE,ET_GAZE,ET_GAZE_x_T,time,unixTime,ET_GAZE_NF,Loc_Option1_label,Loc_Option2_label,Loc_Cost_label,Loc_Qual_label,Loc_Option1_cost,Loc_Option2_cost,Loc_Option1_quality,Loc_Option2_quality,trials.thisRepN,trials.thisTrialN,trials.thisN,trials.thisIndex,trials.ran,Block,Device,cost1,qual1,cost2,qual2
space,2.5011,0.215625,-0.131481481,1,0,0,0.008333333,-0.005555556,1,0,0,calibration_square,0,0,0,11,1,0,0,05,001,2024-12-03_13h44.03.653,Attention_exp_legacy,2023.1.0,Win32,59.88023952,,,,,,,,,,,,,,,,,,,,,,,,,,,,,,,,,,,,,,,,,,,,
,,,,,,,-0.677083333,-0.333333333,1,0,0,calibration_square,0,1,1,1,1,-0.67,-0.33,05,001,2024-12-03_13h44.03.653,Attention_exp_legacy,2023.1.0,Win32,59.88023952,,,,,,,,,,,,,,,,,,,,,,,,,,,,,,,,,,,,,,,,,,,,
,,,,,,,0.688541667,0.67037037,1,0,0,,0,2,2,19,1,0.67,0.67,05,001,2024-12-03_13h44.03.653,Attention_exp_legacy,2023.1.0,Win32,59.88023952,,,,,,,,,,,,,,,,,,,,,,,,,,,,,,,,,,,,,,,,,,,,
,,,,,,,-0.677083333,0.324074074,1,0,0,calibration_square,0,3,3,3,1,-0.67,0.33,05,001,2024-12-03_13h44.03.653,Attention_exp_legacy,2023.1.0,Win32,59.88023952,,,,,,,,,,,,,,,,,,,,,,,,,,,,,,,,,,,,,,,,,,,,
,,,,,,,0.338541667,-0.681481481,1,0,0,,0,4,4,14,1,0.33,-0.67,05,001,2024-12-03_13h44.03.653,Attention_exp_legacy,2023.1.0,Win32,59.88023952,,,,,,,,,,,,,,,,,,,,,,,,,,,,,,,,,,,,,,,,,,,,
,,,,,,,-0.007291667,-0.324074074,1,0,0,calibration_square,0,5,5,10,1,0,-0.33,05,001,2024-12-03_13h44.03.653,Attention_exp_legacy,2023.1.0,Win32,59.88023952,,,,,,,,,,,,,,,,,,,,,,,,,,,,,,,,,,,,,,,,,,,,
,,,,,,,0.323958333,-0.325925926,1,0,0,calibration_square,0,6,6,15,1,0.33,-0.33,05,001,2024-12-03_13h44.03.653,Attention_exp_legacy,2023.1.0,Win32,59.88023952,,,,,,,,,,,,,,,,,,,,,,,,,,,,,,,,,,,,,,,,,,,,
,,,,,,,-0.327083333,0.327777778,1,0,0,calibration_square,0,7,7,7,1,-0.33,0.33,05,001,2024-12-03_13h44.03.653,Attention_exp_legacy,2023.1.0,Win32,59.88023952,,,,,,,,,,,,,,,,,,,,,,,,,,,,,,,,,,,,,,,,,,,,
,,,,,,,0.313541667,0.331481481,1,0,0,,0,8,8,17,1,0.33,0.33,05,001,2024-12-03_13h44.03.653,Attention_exp_legacy,2023.1.0,Win32,59.88023952,,,,,,,,,,,,,,,,,,,,,,,,,,,,,,,,,,,,,,,,,,,,
,,,,,,,0.692708333,-0.685185185,1,0,0,,0,9,9,20,1,0.67,-0.67,05,001,2024-12-03_13h44.03.653,Attention_exp_legacy,2023.1.0,Win32,59.88023952,,,,,,,,,,,,,,,,,,,,,,,,,,,,,,,,,,,,,,,,,,,,
,,,,,,,-0.025,0.340740741,1,0,0,,0,10,10,12,1,0,0.33,05,001,2024-12-03_13h44.03.653,Attention_exp_legacy,2023.1.0,Win32,59.88023952,,,,,,,,,,,,,,,,,,,,,,,,,,,,,,,,,,,,,,,,,,,,
,,,,,,,0.015625,-0.661111111,1,0,0,,0,11,11,9,1,0,-0.67,05,001,2024-12-03_13h44.03.653,Attention_exp_legacy,2023.1.0,Win32,59.88023952,,,,,,,,,,,,,,,,,,,,,,,,,,,,,,,,,,,,,,,,,,,,
,,,,,,,0.321875,0.666666667,1,0,0,calibration_square,0,12,12,18,1,0.33,0.67,05,001,2024-12-03_13h44.03.653,Attention_exp_legacy,2023.1.0,Win32,59.88023952,,,,,,,,,,,,,,,,,,,,,,,,,,,,,,,,,,,,,,,,,,,,
,,,,,,,-0.64375,-0.001851852,1,0,0,,0,13,13,2,1,-0.67,0,05,001,2024-12-03_13h44.03.653,Attention_exp_legacy,2023.1.0,Win32,59.88023952,,,,,,,,,,,,,,,,,,,,,,,,,,,,,,,,,,,,,,,,,,,,
,,,,,,,-0.653125,-0.674074074,1,0,0,,0,14,14,0,1,-0.67,-0.67,05,001,2024-12-03_13h44.03.653,Attention_exp_legacy,2023.1.0,Win32,59.88023952,,,,,,,,,,,,,,,,,,,,,,,,,,,,,,,,,,,,,,,,,,,,
,,,,,,,-0.00625,0.685185185,1,0,0,,0,15,15,13,1,0,0.67,05,001,2024-12-03_13h44.03.653,Attention_exp_legacy,2023.1.0,Win32,59.88023952,,,,,,,,,,,,,,,,,,,,,,,,,,,,,,,,,,,,,,,,,,,,
,,,,,,,-0.345833333,-0.368518519,1,0,0,,0,16,16,5,1,-0.33,-0.33,05,001,2024-12-03_13h44.03.653,Attention_exp_legacy,2023.1.0,Win32,59.88023952,,,,,,,,,,,,,,,,,,,,,,,,,,,,,,,,,,,,,,,,,,,,
,,,,,,,-0.335416667,0.65,1,0,0,,0,17,17,8,1,-0.33,0.67,05,001,2024-12-03_13h44.03.653,Attention_exp_legacy,2023.1.0,Win32,59.88023952,,,,,,,,,,,,,,,,,,,,,,,,,,,,,,,,,,,,,,,,,,,,
,,,,,,,-0.3,-0.014814815,1,0,0,,0,18,18,6,1,-0.33,0,05,001,2024-12-03_13h44.03.653,Attention_exp_legacy,2023.1.0,Win32,59.88023952,,,,,,,,,,,,,,,,,,,,,,,,,,,,,,,,,,,,,,,,,,,,
,,,,,,,-0.305208333,-0.692592593,1,0,0,,0,19,19,4,1,-0.33,-0.67,05,001,2024-12-03_13h44.03.653,Attention_exp_legacy,2023.1.0,Win32,59.88023952,,,,,,,,,,,,,,,,,,,,,,,,,,,,,,,,,,,,,,,,,,,,
,,,,,,,0.329166667,0.024074074,1,0,0,,0,20,20,16,1,0.33,0,05,001,2024-12-03_13h44.03.653,Attention_exp_legacy,2023.1.0,Win32,59.88023952,,,,,,,,,,,,,,,,,,,,,,,,,,,,,,,,,,,,,,,,,,,,
,,,,,,,,,,,,,,,,,,,,05,001,2024-12-03_13h44.03.653,Attention_exp_legacy,2023.1.0,Win32,59.88023952,"[1920,1080]","[640,480]",[-0.020833333333333332],[-0.5166666666666667],[1],[0],[0],[3.0104000000059585],"[""StartButton""]","[0.34479166666666666,0.35833333333333334]","[-0.025925925925925925,0.2611111111111111]","[1,1]","[0,0]","[0,0]","[1.3680999999940369,3.3185000000000002]","[""Option2_label""]",Option2_label,1,4.3282,"[[0.296875,0.040740740740740744],[0.296875,0.040740740740740744],[0.296875,0.040740740740740744],[0.296875,0.040740740740740744],[0.296875,0.040740740740740744],[0.296875,0.040740740740740744],[0.296875,0.040740740740740744],[0.296875,0.040740740740740744],[0.296875,0.040740740740740744],[0.296875,0.040740740740740744],[0.296875,0.040740740740740744],[0.296875,0.040740740740740744],[0.296875,0.040740740740740744],[0.296875,0.040740740740740744],[0.296875,0.040740740740740744],[0.296875,0.040740740740740744],[0.296875,0.040740740740740744],[0.296875,0.040740740740740744],[0.296875,0.040740740740740744],[0.296875,0.040740740740740744],[0.296875,0.040740740740740744],[0.296875,0.040740740740740744],[0.296875,0.040740740740740744],[0.296875,0.040740740740740744],[0.296875,0.040740740740740744],[0.296875,0.040740740740740744],[0.296875,0.040740740740740744],[0.296875,0.040740740740740744],[0.296875,0.040740740740740744],[0.296875,0.040740740740740744],[0.296875,0.040740740740740744],[0.296875,0.040740740740740744],[0.296875,0.040740740740740744],[0.296875,0.040740740740740744],[0.29583333333333334,0.040740740740740744],[0.28125,0.03518518518518519],[0.2604166666666667,0.025925925925925925],[0.23958333333333334,0.016666666666666666],[0.21666666666666667,0.012962962962962963],[0.19479166666666667,0.005555555555555556],[0.171875,0.001851851851851852],[0.15,-0.003703703703703704],[0.12916666666666668,-0.007407407407407408],[0.10729166666666666,-0.012962962962962963],[0.084375,-0.018518518518518517],[0.065625,-0.022222222222222223],[0.053125,-0.022222222222222223],[0.04479166666666667,-0.022222222222222223],[0.036458333333333336,-0.022222222222222223],[0.034375,-0.022222222222222223],[0.03333333333333333,-0.022222222222222223],[0.03229166666666667,-0.022222222222222223],[0.03125,-0.022222222222222223],[0.030208333333333334,-0.022222222222222223],[0.030208333333333334,-0.022222222222222223],[0.029166666666666667,-0.022222222222222223],[0.028125,-0.022222222222222223],[0.027083333333333334,-0.022222222222222223],[0.027083333333333334,-0.022222222222222223],[0.027083333333333334,-0.022222222222222223],[0.027083333333333334,-0.022222222222222223],[0.027083333333333334,-0.024074074074074074],[0.027083333333333334,-0.024074074074074074],[0.027083333333333334,-0.025925925925925925],[0.03125,-0.03148148148148148],[0.042708333333333334,-0.03888888888888889],[0.057291666666666664,-0.04814814814814815],[0.07291666666666667,-0.053703703703703705],[0.08958333333333333,-0.05925925925925926],[0.1125,-0.05925925925925926],[0.13645833333333332,-0.05925925925925926],[0.16354166666666667,-0.05740740740740741],[0.215625,-0.05740740740740741],[0.2520833333333333,-0.05],[0.28541666666666665,-0.040740740740740744],[0.3104166666666667,-0.03518518518518519],[0.3302083333333333,-0.03148148148148148],[0.33958333333333335,-0.025925925925925925],[0.34270833333333334,-0.025925925925925925],[0.34375,-0.025925925925925925],[0.34479166666666666,-0.025925925925925925],[0.34479166666666666,-0.025925925925925925],[0.34479166666666666,-0.025925925925925925],[0.34479166666666666,-0.025925925925925925],[0.34479166666666666,-0.025925925925925925],[0.34479166666666666,-0.025925925925925925],[0.34479166666666666,-0.025925925925925925],[0.34479166666666666,-0.025925925925925925],[0.34479166666666666,-0.025925925925925925],[0.34479166666666666,-0.025925925925925925],[0.34479166666666666,-0.025925925925925925],[0.34479166666666666,-0.025925925925925925],[0.34479166666666666,-0.025925925925925925],[0.34479166666666666,-0.025925925925925925],[0.34479166666666666,-0.025925925925925925],[0.34479166666666666,-0.025925925925925925],[0.34479166666666666,-0.025925925925925925],[0.34479166666666666,-0.025925925925925925],[0.34479166666666666,-0.025925925925925925],[0.34791666666666665,-0.020370370370370372],[0.35,-0.003703703703703704],[0.353125,0.027777777777777776],[0.3541666666666667,0.07592592592592592],[0.3541666666666667,0.11666666666666667],[0.3541666666666667,0.14629629629629629],[0.3541666666666667,0.17407407407407408],[0.3541666666666667,0.18703703703703703],[0.3541666666666667,0.19444444444444445],[0.3541666666666667,0.19814814814814816],[0.3541666666666667,0.19814814814814816],[0.3541666666666667,0.19814814814814816],[0.3541666666666667,0.19814814814814816],[0.3541666666666667,0.19814814814814816],[0.3541666666666667,0.19814814814814816],[0.3541666666666667,0.19814814814814816],[0.3541666666666667,0.19814814814814816],[0.3541666666666667,0.19814814814814816],[0.3541666666666667,0.19814814814814816],[0.3541666666666667,0.19814814814814816],[0.35520833333333335,0.2],[0.35520833333333335,0.2],[0.35520833333333335,0.2],[0.35520833333333335,0.2],[0.35520833333333335,0.2],[0.35520833333333335,0.2],[0.35520833333333335,0.2],[0.35520833333333335,0.2],[0.35520833333333335,0.2],[0.35520833333333335,0.2],[0.35520833333333335,0.2],[0.35520833333333335,0.2],[0.35520833333333335,0.2],[0.35520833333333335,0.2],[0.35520833333333335,0.2],[0.35520833333333335,0.2],[0.35520833333333335,0.2],[0.35520833333333335,0.2],[0.35520833333333335,0.2],[0.35520833333333335,0.2],[0.35520833333333335,0.2],[0.35520833333333335,0.2],[0.35520833333333335,0.2],[0.35520833333333335,0.2],[0.35520833333333335,0.2],[0.35520833333333335,0.2],[0.35520833333333335,0.2],[0.35520833333333335,0.2],[0.35520833333333335,0.2],[0.35520833333333335,0.2],[0.35520833333333335,0.2],[0.35520833333333335,0.2],[0.35520833333333335,0.2],[0.35520833333333335,0.2],[0.35520833333333335,0.2],[0.35520833333333335,0.2],[0.35520833333333335,0.2],[0.35520833333333335,0.2],[0.35520833333333335,0.2],[0.35520833333333335,0.2],[0.35520833333333335,0.2],[0.35520833333333335,0.2],[0.35520833333333335,0.2],[0.35520833333333335,0.2],[0.35520833333333335,0.2],[0.35520833333333335,0.2],[0.35520833333333335,0.2],[0.35520833333333335,0.2],[0.35520833333333335,0.2],[0.35520833333333335,0.2],[0.35520833333333335,0.2],[0.35520833333333335,0.2],[0.35520833333333335,0.2],[0.35520833333333335,0.2],[0.35625,0.2],[0.35625,0.19814814814814816],[0.35625,0.19814814814814816],[0.35625,0.19814814814814816],[0.35625,0.19814814814814816],[0.35625,0.19814814814814816],[0.35625,0.19814814814814816],[0.35625,0.19814814814814816],[0.35625,0.19814814814814816],[0.35625,0.19814814814814816],[0.35625,0.19814814814814816],[0.35625,0.19814814814814816],[0.35625,0.19814814814814816],[0.35625,0.19814814814814816],[0.35625,0.19814814814814816],[0.35625,0.19814814814814816],[0.35625,0.19814814814814816],[0.35625,0.19814814814814816],[0.35625,0.19814814814814816],[0.35625,0.21481481481481482],[0.35625,0.22777777777777777],[0.35625,0.2388888888888889],[0.35625,0.24814814814814815],[0.35625,0.25555555555555554],[0.3572916666666667,0.25925925925925924],[0.35833333333333334,0.2611111111111111],[0.35833333333333334,0.2611111111111111],[0.35833333333333334,0.2611111111111111],[0.359375,0.2611111111111111],[0.359375,0.2611111111111111],[0.359375,0.2611111111111111],[0.359375,0.2611111111111111],[0.359375,0.2611111111111111],[0.359375,0.2611111111111111],[0.359375,0.2611111111111111],[0.359375,0.2611111111111111],[0.359375,0.2611111111111111],[0.359375,0.2611111111111111],[0.359375,0.2611111111111111],[0.359375,0.2611111111111111],[0.359375,0.2611111111111111],[0.359375,0.2611111111111111],[0.359375,0.2611111111111111],[0.359375,0.2611111111111111],[0.359375,0.2611111111111111],[0.359375,0.2611111111111111],[0.359375,0.2611111111111111],[0.359375,0.2611111111111111],[0.359375,0.2611111111111111],[0.359375,0.2611111111111111],[0.359375,0.2611111111111111],[0.359375,0.2611111111111111],[0.359375,0.2611111111111111],[0.359375,0.2611111111111111],[0.359375,0.2611111111111111],[0.359375,0.2611111111111111],[0.359375,0.2611111111111111],[0.359375,0.2611111111111111],[0.359375,0.2611111111111111],[0.359375,0.2611111111111111],[0.359375,0.2611111111111111],[0.359375,0.2611111111111111],[0.359375,0.2611111111111111],[0.359375,0.2611111111111111],[0.359375,0.2611111111111111],[0.359375,0.2611111111111111],[0.359375,0.2611111111111111],[0.359375,0.2611111111111111],[0.359375,0.2611111111111111],[0.359375,0.2611111111111111],[0.359375,0.2611111111111111],[0.359375,0.2611111111111111],[0.359375,0.2611111111111111],[0.359375,0.2611111111111111],[0.359375,0.2611111111111111],[0.359375,0.2611111111111111],[0.359375,0.2611111111111111],[0.359375,0.2611111111111111],[0.359375,0.2611111111111111],[0.359375,0.26296296296296295],[0.359375,0.26296296296296295],[0.359375,0.26296296296296295],[0.359375,0.26481481481481484],[0.359375,0.26666666666666666],[0.359375,0.26666666666666666],[0.359375,0.26666666666666666],[0.359375,0.26851851851851855]]","[[-0.019583333333333286,0.012222222222222264],[-0.019583333333333286,0.012222222222222264],[-0.006666666666666643,0.0005555555555554713],[-0.0018749999999999527,-0.0016666666666666245],[-0.0018749999999999527,-0.0016666666666666245],[-0.0007291666666667141,-0.010740740740740657],[-0.0007291666666667141,-0.010740740740740657],[0.00635416666666669,-0.002407407407407323],[0.03708333333333336,0.021481481481481525],[0.03708333333333336,0.021481481481481525],[0.0678124999999999,0.04537037037037037],[0.0678124999999999,0.04537037037037037],[0.06822916666666666,0.03462962962962971],[0.06822916666666666,0.03462962962962971],[0.05322916666666669,0.02166666666666675],[0.04708333333333338,0.01777777777777782],[0.016250000000000025,0.009999999999999959],[-0.000833333333333286,0.0035185185185184764],[-0.013125000000000024,-0.05851851851851856],[-0.025729166666666713,-0.09907407407407408],[-0.025729166666666713,-0.09907407407407408],[-0.06166666666666672,-0.1111111111111111],[-0.12770833333333337,-0.1014814814814815],[-0.19375,-0.09185185185185189],[-0.22364583333333338,-0.07296296296296292],[-0.24447916666666672,-0.04944444444444453],[-0.3138541666666666,-0.03518518518518519],[-0.3502083333333334,-0.01907407407407399],[-0.38656250000000003,-0.002962962962963005],[-0.40729166666666666,0.04296296296296305],[-0.4388541666666666,0.09222222222222214],[-0.44989583333333333,0.0977777777777777],[-0.46041666666666664,0.08722222222222227],[-0.4586458333333333,0.07537037037037045],[-0.47010416666666666,0.09166666666666666],[-0.4109375,0.0816666666666667],[-0.3667708333333334,0.0698148148148149],[-0.33093750000000005,0.059999999999999956],[-0.2851041666666667,0.055740740740740785],[-0.215625,0.04203703703703712],[-0.15218750000000003,0.03759259259259251],[-0.0985416666666667,0.04148148148148144],[-0.024062500000000025,0.01629629629629621],[-0.024062500000000025,0.01629629629629621],[0.03812500000000003,-0.007592592592592635],[0.09385416666666657,-0.016111111111111194],[0.06375000000000004,0.0014814814814813973],[0.08937499999999995,0.01777777777777782],[0.13708333333333325,0.02814814814814823],[0.17479166666666662,0.03296296296296288],[0.1727083333333333,0.06444444444444436],[0.15895833333333323,0.062037037037037036],[0.17062499999999994,0.050370370370370454],[0.15770833333333342,0.06629629629629621],[0.14833333333333343,0.0992592592592593],[0.13510416666666672,0.11666666666666667],[0.14343750000000005,0.13185185185185194],[0.16302083333333334,0.12074074074074083],[0.12885416666666671,0.12259259259259268],[0.11489583333333328,0.11870370370370374],[0.09364583333333343,0.10462962962962963],[0.08552083333333324,0.12370370370370362],[0.05572916666666667,0.12722222222222232],[0.042499999999999954,0.14092592592592595],[0.03093750000000005,0.1331481481481481],[0.022500000000000023,0.10722222222222218],[0.004166666666666667,0.08481481481481473],[-0.01895833333333338,0.08629629629629634],[-0.010312499999999976,0.07629629629629638],[-0.010312499999999976,0.07629629629629638],[-0.03218749999999997,0.07314814814814814],[-0.017812500000000023,0.0551851851851851],[-0.009687499999999953,0.03185185185185194],[-0.000416666666666643,0.022592592592592678],[0.0171875,0.02296296296296292],[0.04635416666666667,0.0242592592592593],[0.07552083333333333,0.02555555555555547],[0.10041666666666677,0.0294444444444444],[0.11239583333333343,0.032777777777777864],[0.1334374999999999,0.03462962962962971],[0.16479166666666673,0.03537037037037041],[0.17687499999999995,0.0257407407407407],[0.19979166666666662,0.012962962962962963],[0.21427083333333338,0.010185185185185186],[0.21947916666666673,-0.0022222222222223064],[0.20791666666666658,-0.011111111111111112],[0.1820833333333333,-0.012962962962962963],[0.17041666666666658,-0.02092592592592584],[0.16854166666666662,-0.0338888888888888],[0.15750000000000006,-0.04092592592592597],[0.13312499999999997,-0.044999999999999915],[0.10593750000000005,-0.030000000000000086],[0.1146874999999999,-0.0242592592592593],[0.1318749999999999,-0.028518518518518478],[0.16447916666666676,-0.027962962962963005],[0.1955208333333334,-0.043703703703703745],[0.24447916666666672,-0.07796296296296301],[0.2934375000000001,-0.11222222222222226],[0.32625000000000004,-0.16148148148148145],[0.35906250000000006,-0.21074074074074076],[0.39479166666666665,-0.20907407407407402],[0.4310416666666666,-0.2035185185185185],[0.4313541666666666,-0.18870370370370365],[0.4422916666666666,-0.19759259259259257],[0.42697916666666674,-0.1940740740740741],[0.4132291666666667,-0.1742592592592593],[0.37739583333333326,-0.1698148148148148],[0.3611458333333334,-0.1566666666666667],[0.34406249999999994,-0.11666666666666667],[0.32697916666666677,-0.07666666666666662],[0.3289583333333333,-0.10333333333333336],[0.3304166666666667,-0.13388888888888892],[0.32864583333333336,-0.17777777777777778],[0.3162499999999999,-0.19796296296296292],[0.3116666666666667,-0.23981481481481481],[0.30979166666666674,-0.27685185185185185],[0.3226041666666667,-0.2566666666666667],[0.32999999999999996,-0.26851851851851855],[0.35697916666666674,-0.2898148148148148],[0.38395833333333323,-0.3111111111111111],[0.3767708333333334,-0.30777777777777776],[0.38010416666666674,-0.3109259259259259],[0.3758333333333333,-0.2627777777777777],[0.3758333333333333,-0.2627777777777777],[0.3715625000000001,-0.2146296296296296],[0.3715625000000001,-0.2146296296296296],[0.3910416666666668,-0.18407407407407403],[0.38010416666666674,-0.11740740740740736],[0.38010416666666674,-0.11740740740740736],[0.37302083333333325,-0.12537037037037035],[0.37302083333333325,-0.12537037037037035],[0.3629166666666668,-0.06888888888888887],[0.3629166666666668,-0.06888888888888887],[0.36572916666666655,-0.03722222222222227],[0.35489583333333335,-0.01444444444444436],[0.3715625000000001,0.004629629629629629],[0.37947916666666665,0.03185185185185194],[0.39822916666666663,0.02111111111111107],[0.396875,0.014259259259259343],[0.3709374999999999,0.03629629629629634],[0.33145833333333335,0.022037037037036994],[0.3046875,0.04888888888888885],[0.3111458333333334,0.03592592592592588],[0.29229166666666656,0.050370370370370454],[0.26614583333333336,0.05814814814814811],[0.23802083333333332,0.057777777777777865],[0.2243750000000001,0.05129629629629638],[0.21322916666666672,0.0477777777777777],[0.22218749999999995,0.040370370370370286],[0.2349999999999999,0.027407407407407325],[0.2890625,0.009814814814814731],[0.34489583333333323,-0.016111111111111194],[0.3563541666666666,-0.04333333333333329],[0.3489583333333333,-0.06148148148148146],[0.34364583333333343,-0.046481481481481526],[0.3485416666666666,-0.02296296296296292],[0.3211458333333333,-0.006851851851851936],[0.2912499999999999,0.006296296296296254],[0.30197916666666674,0.048333333333333374],[0.31364583333333323,0.08907407407407411],[0.3210416666666667,0.11999999999999991],[0.3138541666666666,0.1624074074074075],[0.2913541666666667,0.19240740740740736],[0.3056250000000001,0.22444444444444453],[0.31239583333333343,0.2657407407407407],[0.31187500000000007,0.2844444444444445],[0.29010416666666666,0.30629629629629623],[0.259375,0.31740740740740736],[0.18541666666666667,0.30055555555555546],[0.11041666666666666,0.2733333333333334],[0.011666666666666714,0.2748148148148148],[-0.057395833333333354,0.27259259259259266],[-0.11114583333333337,0.28277777777777785],[-0.20531250000000004,0.29444444444444445],[-0.18937499999999996,0.22092592592592583],[-0.23177083333333334,0.19074074074074074],[-0.2373958333333333,0.17444444444444454],[-0.22145833333333337,0.17074074074074083],[-0.22145833333333337,0.17074074074074083],[-0.2022916666666667,0.1853703703703704],[-0.1938541666666667,0.19685185185185178],[-0.14624999999999996,0.1838888888888888],[-0.09479166666666666,0.17092592592592584],[-0.057604166666666616,0.13111111111111104],[0.03791666666666664,0.06888888888888897],[0.049687500000000044,0.06500000000000004],[0.11229166666666662,0.007962962962962878],[0.17645833333333344,-0.05703703703703706],[0.2509375000000001,-0.13537037037037042],[0.32479166666666665,-0.23296296296296298],[0.41770833333333335,-0.3061111111111111],[0.49947916666666664,-0.3737037037037037],[0.5342708333333335,-0.4462962962962963],[0.5510416666666667,-0.4685185185185185],[0.5363541666666668,-0.48703703703703705],[0.5224999999999999,-0.4948148148148148],[0.5132291666666667,-0.4787037037037037],[0.5090625000000001,-0.4674074074074074],[0.5015625,-0.43851851851851853],[0.5081249999999999,-0.40129629629629626],[0.5073958333333333,-0.375],[0.4944791666666667,-0.3479629629629629],[0.5010416666666667,-0.31296296296296294],[0.5398958333333332,-0.3014814814814815],[0.5609375,-0.2933333333333333],[0.5811458333333335,-0.2959259259259259],[0.5811458333333335,-0.2959259259259259],[0.5865624999999999,-0.3020370370370371],[0.5804166666666667,-0.28592592592592586],[0.5766666666666665,-0.2905555555555555],[0.5701041666666666,-0.3051851851851852],[0.5620833333333333,-0.32388888888888884],[0.5694791666666668,-0.36666666666666664],[0.5677083333333334,-0.397037037037037],[0.5681250000000001,-0.4270370370370371],[0.5681250000000001,-0.4270370370370371],[0.5954166666666666,-0.4444444444444444],[0.6128125,-0.46833333333333327],[0.6354166666666666,-0.47740740740740745],[0.6535416666666668,-0.509074074074074],[0.6496875000000001,-0.5261111111111112],[0.6480208333333333,-0.5268518518518519],[0.6478125000000001,-0.5235185185185185],[0.6295833333333334,-0.5048148148148148],[0.6219791666666665,-0.4801851851851852],[0.6094791666666666,-0.4583333333333333],[0.5681250000000001,-0.41500000000000004],[0.5408333333333334,-0.36666666666666664],[0.5313541666666666,-0.33777777777777773],[0.5317708333333333,-0.30092592592592593],[0.5079166666666666,-0.26222222222222225],[0.47062499999999996,-0.2381481481481482],[0.46062500000000006,-0.21537037037037038],[0.45510416666666675,-0.17592592592592593],[0.45510416666666675,-0.17592592592592593],[0.45364583333333336,-0.14444444444444443],[0.45364583333333336,-0.14444444444444443],[0.4501041666666666,-0.11037037037037041],[0.43802083333333336,-0.09388888888888887],[0.42177083333333343,-0.07592592592592592],[0.3955208333333334,-0.03222222222222218],[0.38270833333333343,-0.0020370370370370794],[0.38520833333333326,0.040740740740740744],[0.3877083333333334,0.08351851851851856],[0.3877083333333334,0.08351851851851856],[0.36770833333333336,0.12462962962962955],[0.36770833333333336,0.12462962962962955],[0.3580208333333334,0.15703703703703695],[0.3580208333333334,0.15703703703703695],[0.2681250000000001,0.18351851851851855],[0.2681250000000001,0.18351851851851855],[0.15260416666666668,0.23759259259259252],[0.05510416666666664,0.2855555555555556],[0.05510416666666664,0.2855555555555556],[0.022708333333333285,0.2898148148148148],[0.0265625,0.2455555555555556],[-0.00916666666666662,0.24240740740740738],[-0.003541666666666643,0.18907407407407412],[0.029999999999999954,0.12925925925925918],[0.058749999999999976,0.07240740740740745]]","[[-0.019583333333333286,0.012222222222222264,0.00029999999701857405],[-0.019583333333333286,0.012222222222222264,0.03489999999105464],[-0.006666666666666643,0.0005555555555554713,0.04169999998807583],[-0.0018749999999999527,-0.0016666666666666245,0.058399999991053164],[-0.0018749999999999527,-0.0016666666666666245,0.0750999999940376],[-0.0007291666666667141,-0.010740740740740657,0.09169999998807299],[-0.0007291666666667141,-0.010740740740740657,0.10829999999701556],[0.00635416666666669,-0.002407407407407323,0.125],[0.03708333333333336,0.021481481481481525,0.14619999998807742],[0.03708333333333336,0.021481481481481525,0.15829999999701982],[0.0678124999999999,0.04537037037037037,0.17519999998807378],[0.0678124999999999,0.04537037037037037,0.1916999999880744],[0.06822916666666666,0.03462962962962971,0.20829999999701698],[0.06822916666666666,0.03462962962962971,0.22499999999999432],[0.05322916666666669,0.02166666666666675,0.24169999998807867],[0.04708333333333338,0.01777777777777782,0.26039999999105845],[0.016250000000000025,0.009999999999999959,0.2749999999999986],[-0.000833333333333286,0.0035185185185184764,0.29169999998807583],[-0.013125000000000024,-0.05851851851851856,0.30869999998807884],[-0.025729166666666713,-0.09907407407407408,0.32869999998807486],[-0.025729166666666713,-0.09907407407407408,0.34599999999999653],[-0.06166666666666672,-0.1111111111111111,0.3623999999910552],[-0.12770833333333337,-0.1014814814814815,0.3761999999880743],[-0.19375,-0.09185185185185189,0.3915999999940354],[-0.22364583333333338,-0.07296296296296292,0.4082999999970198],[-0.24447916666666672,-0.04944444444444453,0.42499999999999716],[-0.3138541666666666,-0.03518518518518519,0.4416999999880744],[-0.3502083333333334,-0.01907407407407399,0.45839999999105885],[-0.38656250000000003,-0.002962962962963005,0.4749999999999943],[-0.40729166666666666,0.04296296296296305,0.4916999999880787],[-0.4388541666666666,0.09222222222222214,0.5082999999970141],[-0.44989583333333333,0.0977777777777777,0.5249999999999986],[-0.46041666666666664,0.08722222222222227,0.5416999999880758],[-0.4586458333333333,0.07537037037037045,0.5582999999970184],[-0.47010416666666666,0.09166666666666666,0.5782999999970144],[-0.4109375,0.0816666666666667,0.5934999999999988],[-0.3667708333333334,0.0698148148148149,0.6084999999999994],[-0.33093750000000005,0.059999999999999956,0.6250999999940348],[-0.2851041666666667,0.055740740740740785,0.6440999999940331],[-0.215625,0.04203703703703712,0.6584999999999965],[-0.15218750000000003,0.03759259259259251,0.6751999999880738],[-0.0985416666666667,0.04148148148148144,0.6933999999910583],[-0.024062500000000025,0.01629629629629621,0.7085999999940356],[-0.024062500000000025,0.01629629629629621,0.7250999999940362],[0.03812500000000003,-0.007592592592592635,0.7445999999940369],[0.09385416666666657,-0.016111111111111194,0.7585999999940398],[0.06375000000000004,0.0014814814814813973,0.7752999999970172],[0.08937499999999995,0.01777777777777782,0.7935999999940364],[0.13708333333333325,0.02814814814814823,0.808599999994037],[0.17479166666666662,0.03296296296296288,0.8251999999880795],[0.1727083333333333,0.06444444444444436,0.8443999999910545],[0.15895833333333323,0.062037037037037036,0.8585999999940341],[0.17062499999999994,0.050370370370370454,0.8751999999880766],[0.15770833333333342,0.06629629629629621,0.8935999999940378],[0.14833333333333343,0.0992592592592593,0.9083999999910546],[0.13510416666666672,0.11666666666666667,0.9251999999880738],[0.14343750000000005,0.13185185185185194,0.9418999999910582],[0.16302083333333334,0.12074074074074083,0.9609999999999985],[0.12885416666666671,0.12259259259259268,0.9750999999940362],[0.11489583333333328,0.11870370370370374,0.993699999988074],[0.09364583333333343,0.10462962962962963,1.008399999991056],[0.08552083333333324,0.12370370370370362,1.0270999999940358],[0.05572916666666667,0.12722222222222232,1.0416999999880758],[0.042499999999999954,0.14092592592592595,1.0584999999999951],[0.03093750000000005,0.1331481481481481,1.0752999999970143],[0.022500000000000023,0.10722222222222218,1.0934999999999988],[0.004166666666666667,0.08481481481481473,1.1083999999910574],[-0.01895833333333338,0.08629629629629634,1.1251999999880766],[-0.010312499999999976,0.07629629629629638,1.1439999999999984],[-0.010312499999999976,0.07629629629629638,1.1584999999999965],[-0.03218749999999997,0.07314814814814814,1.1752999999970157],[-0.017812500000000023,0.0551851851851851,1.193599999994035],[-0.009687499999999953,0.03185185185185194,1.2085999999940356],[-0.000416666666666643,0.022592592592592678,1.2250999999940362],[0.0171875,0.02296296296296292,1.2455999999940346],[0.04635416666666667,0.0242592592592593,1.2597999999970142],[0.07552083333333333,0.02555555555555547,1.2751999999880752],[0.10041666666666677,0.0294444444444444,1.2921999999880782],[0.11239583333333343,0.032777777777777864,1.3106999999880742],[0.1334374999999999,0.03462962962962971,1.3265999999940377],[0.16479166666666673,0.03537037037037041,1.3419999999999987],[0.17687499999999995,0.0257407407407407,1.3583999999910574],[0.19979166666666662,0.012962962962962963,1.375],[0.21427083333333338,0.010185185185185186,1.3916999999880773],[0.21947916666666673,-0.0022222222222223064,1.4094999999999942],[0.20791666666666658,-0.011111111111111112,1.4253999999910576],[0.1820833333333333,-0.012962962962962963,1.4416999999880744],[0.17041666666666658,-0.02092592592592584,1.4585999999940356],[0.16854166666666662,-0.0338888888888888,1.4749999999999943],[0.15750000000000006,-0.04092592592592597,1.4916999999880787],[0.13312499999999997,-0.044999999999999915,1.508399999991056],[0.10593750000000005,-0.030000000000000086,1.5249999999999986],[0.1146874999999999,-0.0242592592592593,1.5416999999880758],[0.1318749999999999,-0.028518518518518478,1.5583999999910532],[0.16447916666666676,-0.027962962962963005,1.5749999999999957],[0.1955208333333334,-0.043703703703703745,1.591699999988073],[0.24447916666666672,-0.07796296296296301,1.6083999999910574],[0.2934375000000001,-0.11222222222222226,1.625],[0.32625000000000004,-0.16148148148148145,1.6416999999880773],[0.35906250000000006,-0.21074074074074076,1.6602999999970152],[0.39479166666666665,-0.20907407407407402,1.6752999999970157],[0.4310416666666666,-0.2035185185185185,1.6917999999970164],[0.4313541666666666,-0.18870370370370365,1.7118999999910542],[0.4422916666666666,-0.19759259259259257,1.7272999999970153],[0.42697916666666674,-0.1940740740740741,1.7430999999940369],[0.4132291666666667,-0.1742592592592593,1.7585999999940398],[0.37739583333333326,-0.1698148148148148,1.777699999988073],[0.3611458333333334,-0.1566666666666667,1.7929999999999993],[0.34406249999999994,-0.11666666666666667,1.8083999999910532],[0.32697916666666677,-0.07666666666666662,1.8248999999910538],[0.3289583333333333,-0.10333333333333336,1.841699999988073],[0.3304166666666667,-0.13388888888888892,1.8583999999910574],[0.32864583333333336,-0.17777777777777778,1.875],[0.3162499999999999,-0.19796296296296292,1.8928999999910587],[0.3116666666666667,-0.23981481481481481,1.9083999999910546],[0.30979166666666674,-0.27685185185185185,1.9249999999999972],[0.3226041666666667,-0.2566666666666667,1.9416999999880744],[0.32999999999999996,-0.26851851851851855,1.958299999997017],[0.35697916666666674,-0.2898148148148148,1.9750999999940362],[0.38395833333333323,-0.3111111111111111,1.993799999997016],[0.3767708333333334,-0.30777777777777776,2.008399999991056],[0.38010416666666674,-0.3109259259259259,2.0249999999999986],[0.3758333333333333,-0.2627777777777777,2.041699999988076],[0.3758333333333333,-0.2627777777777777,2.058399999991053],[0.3715625000000001,-0.2146296296296296,2.0750999999940376],[0.3715625000000001,-0.2146296296296296,2.091699999988073],[0.3910416666666668,-0.18407407407407403,2.1082999999970156],[0.38010416666666674,-0.11740740740740736,2.131999999999998],[0.38010416666666674,-0.11740740740740736,2.1416999999880773],[0.37302083333333325,-0.12537037037037035,2.1583999999910546],[0.37302083333333325,-0.12537037037037035,2.174999999999997],[0.3629166666666668,-0.06888888888888887,2.1916999999880744],[0.3629166666666668,-0.06888888888888887,2.208399999991059],[0.36572916666666655,-0.03722222222222227,2.225099999994036],[0.35489583333333335,-0.01444444444444436,2.244399999991053],[0.3715625000000001,0.004629629629629629,2.260599999994035],[0.37947916666666665,0.03185185185185194,2.2749999999999986],[0.39822916666666663,0.02111111111111107,2.291599999994034],[0.396875,0.014259259259259343,2.308399999991053],[0.3709374999999999,0.03629629629629634,2.3249999999999957],[0.33145833333333335,0.022037037037036994,2.341699999988073],[0.3046875,0.04888888888888885,2.3582999999970156],[0.3111458333333334,0.03592592592592588,2.375],[0.29229166666666656,0.050370370370370454,2.3915999999940354],[0.26614583333333336,0.05814814814814811,2.4083999999910546],[0.23802083333333332,0.057777777777777865,2.424999999999997],[0.2243750000000001,0.05129629629629638,2.4416999999880744],[0.21322916666666672,0.0477777777777777,2.458299999997017],[0.22218749999999995,0.040370370370370286,2.4749999999999943],[0.2349999999999999,0.027407407407407325,2.4917999999970135],[0.2890625,0.009814814814814731,2.508299999997014],[0.34489583333333323,-0.016111111111111194,2.5249999999999986],[0.3563541666666666,-0.04333333333333329,2.541699999988076],[0.3489583333333333,-0.06148148148148146,2.5582999999970184],[0.34364583333333343,-0.046481481481481526,2.5750999999940376],[0.3485416666666666,-0.02296296296296292,2.591699999988073],[0.3211458333333333,-0.006851851851851936,2.6083999999910574],[0.2912499999999999,0.006296296296296254,2.625],[0.30197916666666674,0.048333333333333374,2.6416999999880773],[0.31364583333333323,0.08907407407407411,2.6583999999910546],[0.3210416666666667,0.11999999999999991,2.674999999999997],[0.3138541666666666,0.1624074074074075,2.6915999999940396],[0.2913541666666667,0.19240740740740736,2.708299999997017],[0.3056250000000001,0.22444444444444453,2.7248999999910595],[0.31239583333333343,0.2657407407407407,2.7416999999880787],[0.31187500000000007,0.2844444444444445,2.758299999997014],[0.29010416666666666,0.30629629629629623,2.7749999999999986],[0.259375,0.31740740740740736,2.7920999999940364],[0.18541666666666667,0.30055555555555546,2.808399999991053],[0.11041666666666666,0.2733333333333334,2.8249999999999957],[0.011666666666666714,0.2748148148148148,2.8415999999940382],[-0.057395833333333354,0.27259259259259266,2.8582999999970156],[-0.11114583333333337,0.28277777777777785,2.875],[-0.20531250000000004,0.29444444444444445,2.8936999999880726],[-0.18937499999999996,0.22092592592592583,2.9085999999940384],[-0.23177083333333334,0.19074074074074074,2.924999999999997],[-0.2373958333333333,0.17444444444444454,2.9416999999880744],[-0.22145833333333337,0.17074074074074083,2.9586999999880774],[-0.22145833333333337,0.17074074074074083,2.975099999994036],[-0.2022916666666667,0.1853703703703704,2.9916999999880787],[-0.1938541666666667,0.19685185185185178,3.008299999997014],[-0.14624999999999996,0.1838888888888888,3.025399999991059],[-0.09479166666666666,0.17092592592592584,3.041599999994034],[-0.057604166666666616,0.13111111111111104,3.0582999999970184],[0.03791666666666664,0.06888888888888897,3.074899999991054],[0.049687500000000044,0.06500000000000004,3.0915999999940382],[0.11229166666666662,0.007962962962962878,3.1082999999970156],[0.17645833333333344,-0.05703703703703706,3.1267999999970186],[0.2509375000000001,-0.13537037037037042,3.1416999999880773],[0.32479166666666665,-0.23296296296296298,3.15829999999702],[0.41770833333333335,-0.3061111111111111,3.174899999991055],[0.49947916666666664,-0.3737037037037037,3.1916999999880744],[0.5342708333333335,-0.4462962962962963,3.2118999999910542],[0.5510416666666667,-0.4685185185185185,3.2253999999910548],[0.5363541666666668,-0.48703703703703705,3.2417999999970135],[0.5224999999999999,-0.4948148148148148,3.258399999991056],[0.5132291666666667,-0.4787037037037037,3.2779999999999987],[0.5090625000000001,-0.4674074074074074,3.2933999999910597],[0.5015625,-0.43851851851851853,3.308499999999995],[0.5081249999999999,-0.40129629629629626,3.325399999991056],[0.5073958333333333,-0.375,3.341699999988073],[0.4944791666666667,-0.3479629629629629,3.3583999999910574],[0.5010416666666667,-0.31296296296296294,3.374899999991058],[0.5398958333333332,-0.3014814814814815,3.3922999999970145],[0.5609375,-0.2933333333333333,3.40829999999702],[0.5811458333333335,-0.2959259259259259,3.432899999991058],[0.5811458333333335,-0.2959259259259259,3.4415999999940396],[0.5865624999999999,-0.3020370370370371,3.458199999988075],[0.5804166666666667,-0.28592592592592586,3.4749999999999943],[0.5766666666666665,-0.2905555555555555,3.491599999994037],[0.5701041666666666,-0.3051851851851852,3.508299999997014],[0.5620833333333333,-0.32388888888888884,3.5248999999910566],[0.5694791666666668,-0.36666666666666664,3.541699999988076],[0.5677083333333334,-0.397037037037037,3.5581999999880765],[0.5681250000000001,-0.4270370370370371,3.5749999999999957],[0.5681250000000001,-0.4270370370370371,3.591699999988073],[0.5954166666666666,-0.4444444444444444,3.6083999999910574],[0.6128125,-0.46833333333333327,3.625],[0.6354166666666666,-0.47740740740740745,3.6416999999880773],[0.6535416666666668,-0.509074074074074,3.65829999999702],[0.6496875000000001,-0.5261111111111112,3.674999999999997],[0.6480208333333333,-0.5268518518518519,3.6915999999940396],[0.6478125000000001,-0.5235185185185185,3.708299999997017],[0.6295833333333334,-0.5048148148148148,3.7249999999999943],[0.6219791666666665,-0.4801851851851852,3.7419999999999973],[0.6094791666666666,-0.4583333333333333,3.758299999997014],[0.5681250000000001,-0.41500000000000004,3.7749999999999986],[0.5408333333333334,-0.36666666666666664,3.791599999994034],[0.5313541666666666,-0.33777777777777773,3.8082999999970184],[0.5317708333333333,-0.30092592592592593,3.8249999999999957],[0.5079166666666666,-0.26222222222222225,3.841699999988073],[0.47062499999999996,-0.2381481481481482,3.8582999999970156],[0.46062500000000006,-0.21537037037037038,3.875],[0.45510416666666675,-0.17592592592592593,3.8951999999880726],[0.45510416666666675,-0.17592592592592593,3.913499999999999],[0.45364583333333336,-0.14444444444444443,3.9300999999940345],[0.45364583333333336,-0.14444444444444443,3.9416999999880744],[0.4501041666666666,-0.11037037037037041,3.958299999997017],[0.43802083333333336,-0.09388888888888887,3.9748999999910595],[0.42177083333333343,-0.07592592592592592,3.991599999994037],[0.3955208333333334,-0.03222222222222218,4.008399999991056],[0.38270833333333343,-0.0020370370370370794,4.024899999991057],[0.38520833333333326,0.040740740740740744,4.041699999988076],[0.3877083333333334,0.08351851851851856,4.062599999994035],[0.3877083333333334,0.08351851851851856,4.074999999999996],[0.36770833333333336,0.12462962962962955,4.091699999988073],[0.36770833333333336,0.12462962962962955,4.108299999997016],[0.3580208333333334,0.15703703703703695,4.125],[0.3580208333333334,0.15703703703703695,4.141599999994035],[0.2681250000000001,0.18351851851851855,4.158399999991055],[0.2681250000000001,0.18351851851851855,4.174999999999997],[0.15260416666666668,0.23759259259259252,4.191699999988074],[0.05510416666666664,0.2855555555555556,4.212299999997015],[0.05510416666666664,0.2855555555555556,4.2248999999910595],[0.022708333333333285,0.2898148148148148,4.241599999994037],[0.0265625,0.2455555555555556,4.2595999999940375],[-0.00916666666666662,0.24240740740740738,4.27729999999702],[-0.003541666666666643,0.18907407407407412,4.291599999994034],[0.029999999999999954,0.12925925925925918,4.308299999997018],[0.058749999999999976,0.07240740740740745,4.3281999999880725]]","[0.00029999999701857405,0.03489999999105464,0.04169999998807583,0.058399999991053164,0.0750999999940376,0.09169999998807299,0.10829999999701556,0.125,0.14619999998807742,0.15829999999701982,0.17519999998807378,0.1916999999880744,0.20829999999701698,0.22499999999999432,0.24169999998807867,0.26039999999105845,0.2749999999999986,0.29169999998807583,0.30869999998807884,0.32869999998807486,0.34599999999999653,0.3623999999910552,0.3761999999880743,0.3915999999940354,0.4082999999970198,0.42499999999999716,0.4416999999880744,0.45839999999105885,0.4749999999999943,0.4916999999880787,0.5082999999970141,0.5249999999999986,0.5416999999880758,0.5582999999970184,0.5782999999970144,0.5934999999999988,0.6084999999999994,0.6250999999940348,0.6440999999940331,0.6584999999999965,0.6751999999880738,0.6933999999910583,0.7085999999940356,0.7250999999940362,0.7445999999940369,0.7585999999940398,0.7752999999970172,0.7935999999940364,0.808599999994037,0.8251999999880795,0.8443999999910545,0.8585999999940341,0.8751999999880766,0.8935999999940378,0.9083999999910546,0.9251999999880738,0.9418999999910582,0.9609999999999985,0.9750999999940362,0.993699999988074,1.008399999991056,1.0270999999940358,1.0416999999880758,1.0584999999999951,1.0752999999970143,1.0934999999999988,1.1083999999910574,1.1251999999880766,1.1439999999999984,1.1584999999999965,1.1752999999970157,1.193599999994035,1.2085999999940356,1.2250999999940362,1.2455999999940346,1.2597999999970142,1.2751999999880752,1.2921999999880782,1.3106999999880742,1.3265999999940377,1.3419999999999987,1.3583999999910574,1.375,1.3916999999880773,1.4094999999999942,1.4253999999910576,1.4416999999880744,1.4585999999940356,1.4749999999999943,1.4916999999880787,1.508399999991056,1.5249999999999986,1.5416999999880758,1.5583999999910532,1.5749999999999957,1.591699999988073,1.6083999999910574,1.625,1.6416999999880773,1.6602999999970152,1.6752999999970157,1.6917999999970164,1.7118999999910542,1.7272999999970153,1.7430999999940369,1.7585999999940398,1.777699999988073,1.7929999999999993,1.8083999999910532,1.8248999999910538,1.841699999988073,1.8583999999910574,1.875,1.8928999999910587,1.9083999999910546,1.9249999999999972,1.9416999999880744,1.958299999997017,1.9750999999940362,1.993799999997016,2.008399999991056,2.0249999999999986,2.041699999988076,2.058399999991053,2.0750999999940376,2.091699999988073,2.1082999999970156,2.131999999999998,2.1416999999880773,2.1583999999910546,2.174999999999997,2.1916999999880744,2.208399999991059,2.225099999994036,2.244399999991053,2.260599999994035,2.2749999999999986,2.291599999994034,2.308399999991053,2.3249999999999957,2.341699999988073,2.3582999999970156,2.375,2.3915999999940354,2.4083999999910546,2.424999999999997,2.4416999999880744,2.458299999997017,2.4749999999999943,2.4917999999970135,2.508299999997014,2.5249999999999986,2.541699999988076,2.5582999999970184,2.5750999999940376,2.591699999988073,2.6083999999910574,2.625,2.6416999999880773,2.6583999999910546,2.674999999999997,2.6915999999940396,2.708299999997017,2.7248999999910595,2.7416999999880787,2.758299999997014,2.7749999999999986,2.7920999999940364,2.808399999991053,2.8249999999999957,2.8415999999940382,2.8582999999970156,2.875,2.8936999999880726,2.9085999999940384,2.924999999999997,2.9416999999880744,2.9586999999880774,2.975099999994036,2.9916999999880787,3.008299999997014,3.025399999991059,3.041599999994034,3.0582999999970184,3.074899999991054,3.0915999999940382,3.1082999999970156,3.1267999999970186,3.1416999999880773,3.15829999999702,3.174899999991055,3.1916999999880744,3.2118999999910542,3.2253999999910548,3.2417999999970135,3.258399999991056,3.2779999999999987,3.2933999999910597,3.308499999999995,3.325399999991056,3.341699999988073,3.3583999999910574,3.374899999991058,3.3922999999970145,3.40829999999702,3.432899999991058,3.4415999999940396,3.458199999988075,3.4749999999999943,3.491599999994037,3.508299999997014,3.5248999999910566,3.541699999988076,3.5581999999880765,3.5749999999999957,3.591699999988073,3.6083999999910574,3.625,3.6416999999880773,3.65829999999702,3.674999999999997,3.6915999999940396,3.708299999997017,3.7249999999999943,3.7419999999999973,3.758299999997014,3.7749999999999986,3.791599999994034,3.8082999999970184,3.8249999999999957,3.841699999988073,3.8582999999970156,3.875,3.8951999999880726,3.913499999999999,3.9300999999940345,3.9416999999880744,3.958299999997017,3.9748999999910595,3.991599999994037,4.008399999991056,4.024899999991057,4.041699999988076,4.062599999994035,4.074999999999996,4.091699999988073,4.108299999997016,4.125,4.141599999994035,4.158399999991055,4.174999999999997,4.191699999988074,4.212299999997015,4.2248999999910595,4.241599999994037,4.2595999999940375,4.27729999999702,4.291599999994034,4.308299999997018,4.3281999999880725]","[1733204689936,1733204689964,1733204689971,1733204689988,1733204690004,1733204690021,1733204690038,1733204690054,1733204690075,1733204690088,1733204690104,1733204690121,1733204690138,1733204690154,1733204690171,1733204690190,1733204690204,1733204690221,1733204690238,1733204690258,1733204690275,1733204690292,1733204690305,1733204690321,1733204690338,1733204690354,1733204690371,1733204690388,1733204690404,1733204690421,1733204690438,1733204690454,1733204690471,1733204690488,1733204690508,1733204690523,1733204690538,1733204690554,1733204690573,1733204690588,1733204690605,1733204690623,1733204690638,1733204690654,1733204690674,1733204690688,1733204690705,1733204690723,1733204690738,1733204690754,1733204690774,1733204690788,1733204690804,1733204690823,1733204690838,1733204690854,1733204690871,1733204690890,1733204690904,1733204690923,1733204690938,1733204690956,1733204690971,1733204690988,1733204691005,1733204691023,1733204691038,1733204691054,1733204691073,1733204691088,1733204691105,1733204691123,1733204691138,1733204691154,1733204691175,1733204691189,1733204691205,1733204691221,1733204691240,1733204691256,1733204691271,1733204691288,1733204691304,1733204691321,1733204691339,1733204691355,1733204691371,1733204691388,1733204691404,1733204691421,1733204691438,1733204691454,1733204691471,1733204691488,1733204691504,1733204691521,1733204691538,1733204691554,1733204691571,1733204691590,1733204691605,1733204691621,1733204691641,1733204691657,1733204691672,1733204691688,1733204691707,1733204691722,1733204691738,1733204691754,1733204691771,1733204691788,1733204691804,1733204691822,1733204691838,1733204691854,1733204691871,1733204691888,1733204691904,1733204691923,1733204691938,1733204691954,1733204691971,1733204691988,1733204692004,1733204692021,1733204692038,1733204692061,1733204692071,1733204692088,1733204692104,1733204692121,1733204692138,1733204692154,1733204692174,1733204692190,1733204692204,1733204692221,1733204692238,1733204692254,1733204692271,1733204692288,1733204692304,1733204692321,1733204692338,1733204692354,1733204692371,1733204692388,1733204692404,1733204692421,1733204692438,1733204692454,1733204692471,1733204692488,1733204692504,1733204692521,1733204692538,1733204692554,1733204692571,1733204692588,1733204692604,1733204692621,1733204692638,1733204692654,1733204692671,1733204692688,1733204692704,1733204692721,1733204692738,1733204692754,1733204692771,1733204692788,1733204692804,1733204692823,1733204692838,1733204692854,1733204692871,1733204692888,1733204692904,1733204692921,1733204692938,1733204692955,1733204692971,1733204692988,1733204693004,1733204693021,1733204693038,1733204693056,1733204693071,1733204693088,1733204693104,1733204693121,1733204693141,1733204693155,1733204693171,1733204693188,1733204693207,1733204693223,1733204693238,1733204693255,1733204693271,1733204693288,1733204693304,1733204693322,1733204693338,1733204693362,1733204693371,1733204693388,1733204693404,1733204693421,1733204693438,1733204693454,1733204693471,1733204693488,1733204693504,1733204693521,1733204693538,1733204693554,1733204693571,1733204693588,1733204693604,1733204693621,1733204693638,1733204693654,1733204693671,1733204693688,1733204693704,1733204693721,1733204693738,1733204693754,1733204693771,1733204693788,1733204693804,1733204693824,1733204693843,1733204693859,1733204693871,1733204693888,1733204693904,1733204693921,1733204693938,1733204693954,1733204693971,1733204693992,1733204694004,1733204694021,1733204694038,1733204694054,1733204694071,1733204694088,1733204694104,1733204694121,1733204694142,1733204694154,1733204694171,1733204694189,1733204694207,1733204694221,1733204694238,1733204694257]","[[941.2,546.6],[941.2,546.6],[953.6,540.3],[958.2,539.1],[958.2,539.1],[959.3,534.2],[959.3,534.2],[966.1,538.7],[995.6,551.6],[995.6,551.6],[1025.1,564.5],[1025.1,564.5],[1025.5,558.7],[1025.5,558.7],[1011.1,551.7],[1005.2,549.6],[975.6,545.4],[959.2,541.9],[947.4,508.4],[935.3,486.5],[935.3,486.5],[900.8,480],[837.4,485.2],[774,490.4],[745.3,500.6],[725.3,513.3],[658.7,521],[623.8,529.7],[588.9,538.4],[569,563.2],[538.7,589.8],[528.1,592.8],[518,587.1],[519.7,580.7],[508.7,589.5],[565.5,584.1],[607.9,577.7],[642.3,572.4],[686.3,570.1],[753,562.7],[813.9,560.3],[865.4,562.4],[936.9,548.8],[936.9,548.8],[996.6,535.9],[1050.1,531.3],[1021.2,540.8],[1045.8,549.6],[1091.6,555.2],[1127.8,557.8],[1125.8,574.8],[1112.6,573.5],[1123.8,567.2],[1111.4,575.8],[1102.4,593.6],[1089.7,603],[1097.7,611.2],[1116.5,605.2],[1083.7,606.2],[1070.3,604.1],[1049.9,596.5],[1042.1,606.8],[1013.5,608.7],[1000.8,616.1],[989.7,611.9],[981.6,597.9],[964,585.8],[941.8,586.6],[950.1,581.2],[950.1,581.2],[929.1,579.5],[942.9,569.8],[950.7,557.2],[959.6,552.2],[976.5,552.4],[1004.5,553.1],[1032.5,553.8],[1056.4,555.9],[1067.9,557.7],[1088.1,558.7],[1118.2,559.1],[1129.8,553.9],[1151.8,547],[1165.7,545.5],[1170.7,538.8],[1159.6,534],[1134.8,533],[1123.6,528.7],[1121.8,521.7],[1111.2,517.9],[1087.8,515.7],[1061.7,523.8],[1070.1,526.9],[1086.6,524.6],[1117.9,524.9],[1147.7,516.4],[1194.7,497.9],[1241.7,479.4],[1273.2,452.8],[1304.7,426.2],[1339,427.1],[1373.8,430.1],[1374.1,438.1],[1384.6,433.3],[1369.9,435.2],[1356.7,445.9],[1322.3,448.3],[1306.7,455.4],[1290.3,477],[1273.9,498.6],[1275.8,484.2],[1277.2,467.7],[1275.5,444],[1263.6,433.1],[1259.2,410.5],[1257.4,390.5],[1269.7,401.4],[1276.8,395],[1302.7,383.5],[1328.6,372],[1321.7,373.8],[1324.9,372.1],[1320.8,398.1],[1320.8,398.1],[1316.7,424.1],[1316.7,424.1],[1335.4,440.6],[1324.9,476.6],[1324.9,476.6],[1318.1,472.3],[1318.1,472.3],[1308.4,502.8],[1308.4,502.8],[1311.1,519.9],[1300.7,532.2],[1316.7,542.5],[1324.3,557.2],[1342.3,551.4],[1341,547.7],[1316.1,559.6],[1278.2,551.9],[1252.5,566.4],[1258.7,559.4],[1240.6,567.2],[1215.5,571.4],[1188.5,571.2],[1175.4,567.7],[1164.7,565.8],[1173.3,561.8],[1185.6,554.8],[1237.5,545.3],[1291.1,531.3],[1302.1,516.6],[1295,506.8],[1289.9,514.9],[1294.6,527.6],[1268.3,536.3],[1239.6,543.4],[1249.9,566.1],[1261.1,588.1],[1268.2,604.8],[1261.3,627.7],[1239.7,643.9],[1253.4,661.2],[1259.9,683.5],[1259.4,693.6],[1238.5,705.4],[1209,711.4],[1138,702.3],[1066,687.6],[971.2,688.4],[904.9,687.2],[853.3,692.7],[762.9,699],[778.2,659.3],[737.5,643],[732.1,634.2],[747.4,632.2],[747.4,632.2],[765.8,640.1],[773.9,646.3],[819.6,639.3],[869,632.3],[904.7,610.8],[996.4,577.2],[1007.7,575.1],[1067.8,544.3],[1129.4,509.2],[1200.9,466.9],[1271.8,414.2],[1361,374.7],[1439.5,338.2],[1472.9,299],[1489,287],[1474.9,277],[1461.6,272.8],[1452.7,281.5],[1448.7,287.6],[1441.5,303.2],[1447.8,323.3],[1447.1,337.5],[1434.7,352.1],[1441,371],[1478.3,377.2],[1498.5,381.6],[1517.9,380.2],[1517.9,380.2],[1523.1,376.9],[1517.2,385.6],[1513.6,383.1],[1507.3,375.2],[1499.6,365.1],[1506.7,342],[1505,325.6],[1505.4,309.4],[1505.4,309.4],[1531.6,300],[1548.3,287.1],[1570,282.2],[1587.4,265.1],[1583.7,255.9],[1582.1,255.5],[1581.9,257.3],[1564.4,267.4],[1557.1,280.7],[1545.1,292.5],[1505.4,315.9],[1479.2,342],[1470.1,357.6],[1470.5,377.5],[1447.6,398.4],[1411.8,411.4],[1402.2,423.7],[1396.9,445],[1396.9,445],[1395.5,462],[1395.5,462],[1392.1,480.4],[1380.5,489.3],[1364.9,499],[1339.7,522.6],[1327.4,538.9],[1329.8,562],[1332.2,585.1],[1332.2,585.1],[1313,607.3],[1313,607.3],[1303.7,624.8],[1303.7,624.8],[1217.4,639.1],[1217.4,639.1],[1106.5,668.3],[1012.9,694.2],[1012.9,694.2],[981.8,696.5],[985.5,672.6],[951.2,670.9],[956.6,642.1],[988.8,609.8],[1016.4,579.1]]","[0,0.3527331528]","[0.3527331528,0.3527331528]","[-0.3527331528,-0.3527331528]","[-0.3527331528,0]","[0,-0.3527331528]","[0.3527331528,-0.3527331528]","[0,0]","[0.3527331528,0]",0,0,0,0,1,2,Tablet,7,1,11,9
,,,,,,,,,,,,,,,,,,,,05,001,2024-12-03_13h44.03.653,Attention_exp_legacy,2023.1.0,Win32,59.88023952,,,,,,,,,,[0.0875],[0.2962962962962963],[1],[0],[0],[1.7349999999999994],"[""Option1_label""]",Option1_label,2,2.7497,"[[0.35208333333333336,0.29444444444444445],[0.35208333333333336,0.29444444444444445],[0.35208333333333336,0.29444444444444445],[0.35208333333333336,0.29444444444444445],[0.35208333333333336,0.29444444444444445],[0.35208333333333336,0.29444444444444445],[0.35208333333333336,0.29444444444444445],[0.35208333333333336,0.29444444444444445],[0.35208333333333336,0.29444444444444445],[0.35208333333333336,0.29444444444444445],[0.35208333333333336,0.29444444444444445],[0.35208333333333336,0.29444444444444445],[0.35208333333333336,0.29444444444444445],[0.35208333333333336,0.29444444444444445],[0.35208333333333336,0.29444444444444445],[0.35208333333333336,0.29444444444444445],[0.35208333333333336,0.29444444444444445],[0.35208333333333336,0.29444444444444445],[0.35208333333333336,0.29444444444444445],[0.35208333333333336,0.29444444444444445],[0.35208333333333336,0.29444444444444445],[0.35208333333333336,0.29444444444444445],[0.35208333333333336,0.29444444444444445],[0.35208333333333336,0.29444444444444445],[0.35208333333333336,0.29444444444444445],[0.35208333333333336,0.29444444444444445],[0.35208333333333336,0.29444444444444445],[0.35208333333333336,0.29444444444444445],[0.35208333333333336,0.29444444444444445],[0.35208333333333336,0.29444444444444445],[0.35208333333333336,0.29444444444444445],[0.35208333333333336,0.29444444444444445],[0.35208333333333336,0.29444444444444445],[0.35208333333333336,0.29444444444444445],[0.35208333333333336,0.29444444444444445],[0.35208333333333336,0.29444444444444445],[0.35208333333333336,0.29444444444444445],[0.35208333333333336,0.29444444444444445],[0.35208333333333336,0.29444444444444445],[0.35208333333333336,0.29444444444444445],[0.35208333333333336,0.29444444444444445],[0.35208333333333336,0.29444444444444445],[0.35208333333333336,0.29444444444444445],[0.35208333333333336,0.29444444444444445],[0.35208333333333336,0.29444444444444445],[0.35208333333333336,0.29444444444444445],[0.35208333333333336,0.29444444444444445],[0.35208333333333336,0.29444444444444445],[0.35208333333333336,0.29444444444444445],[0.35208333333333336,0.29444444444444445],[0.35208333333333336,0.29444444444444445],[0.35208333333333336,0.29444444444444445],[0.35208333333333336,0.29444444444444445],[0.35208333333333336,0.29444444444444445],[0.35208333333333336,0.29444444444444445],[0.35208333333333336,0.29444444444444445],[0.35208333333333336,0.29444444444444445],[0.35208333333333336,0.29444444444444445],[0.35208333333333336,0.29444444444444445],[0.35208333333333336,0.29444444444444445],[0.35208333333333336,0.29444444444444445],[0.35208333333333336,0.29444444444444445],[0.35208333333333336,0.29444444444444445],[0.35208333333333336,0.29444444444444445],[0.35208333333333336,0.29444444444444445],[0.35208333333333336,0.29444444444444445],[0.35208333333333336,0.29444444444444445],[0.35208333333333336,0.29444444444444445],[0.35208333333333336,0.29444444444444445],[0.35208333333333336,0.29444444444444445],[0.35208333333333336,0.29444444444444445],[0.35208333333333336,0.29444444444444445],[0.35208333333333336,0.29444444444444445],[0.35208333333333336,0.29444444444444445],[0.35208333333333336,0.29444444444444445],[0.35208333333333336,0.29444444444444445],[0.35208333333333336,0.29444444444444445],[0.35208333333333336,0.29444444444444445],[0.35208333333333336,0.29444444444444445],[0.3489583333333333,0.29259259259259257],[0.33541666666666664,0.2814814814814815],[0.32083333333333336,0.27037037037037037],[0.303125,0.26296296296296295],[0.28229166666666666,0.2537037037037037],[0.26145833333333335,0.2518518518518518],[0.23958333333333334,0.25],[0.221875,0.25],[0.209375,0.25],[0.18958333333333333,0.25],[0.17604166666666668,0.25],[0.165625,0.25],[0.15729166666666666,0.25555555555555554],[0.153125,0.2574074074074074],[0.14583333333333334,0.2574074074074074],[0.140625,0.26296296296296295],[0.13333333333333333,0.26481481481481484],[0.125,0.27037037037037037],[0.115625,0.2740740740740741],[0.10833333333333334,0.2777777777777778],[0.09895833333333333,0.2851851851851852],[0.09479166666666666,0.28888888888888886],[0.08958333333333333,0.29444444444444445],[0.0875,0.2962962962962963],[0.0875,0.2962962962962963],[0.0875,0.2962962962962963],[0.0875,0.2962962962962963],[0.0875,0.2962962962962963],[0.0875,0.2962962962962963],[0.0875,0.2962962962962963],[0.0875,0.2962962962962963],[0.0875,0.2962962962962963],[0.0875,0.2962962962962963],[0.0875,0.2962962962962963],[0.0875,0.2962962962962963],[0.0875,0.2962962962962963],[0.0875,0.2962962962962963],[0.0875,0.2962962962962963],[0.0875,0.2962962962962963],[0.0875,0.2962962962962963],[0.0875,0.2962962962962963],[0.0875,0.2962962962962963],[0.0875,0.2962962962962963],[0.0875,0.2962962962962963],[0.0875,0.2962962962962963],[0.0875,0.2962962962962963],[0.0875,0.2962962962962963],[0.0875,0.2962962962962963],[0.0875,0.2962962962962963],[0.0875,0.2962962962962963],[0.0875,0.2962962962962963],[0.0875,0.2962962962962963],[0.0875,0.2962962962962963],[0.0875,0.2962962962962963],[0.0875,0.2962962962962963],[0.0875,0.2962962962962963],[0.0875,0.2962962962962963],[0.0875,0.2962962962962963],[0.0875,0.2962962962962963],[0.0875,0.2962962962962963],[0.0875,0.2962962962962963],[0.0875,0.2962962962962963],[0.0875,0.2962962962962963],[0.0875,0.2962962962962963],[0.0875,0.2962962962962963],[0.0875,0.2962962962962963],[0.0875,0.2962962962962963],[0.0875,0.2962962962962963],[0.0875,0.2962962962962963],[0.0875,0.2962962962962963],[0.0875,0.2962962962962963],[0.0875,0.2962962962962963],[0.0875,0.2962962962962963],[0.0875,0.2962962962962963],[0.0875,0.2962962962962963],[0.0875,0.2962962962962963],[0.0875,0.2962962962962963],[0.0875,0.2962962962962963],[0.0875,0.2962962962962963],[0.0875,0.2962962962962963],[0.0875,0.2962962962962963],[0.0875,0.2962962962962963],[0.0875,0.2962962962962963],[0.0875,0.2962962962962963],[0.0875,0.2962962962962963],[0.0875,0.2962962962962963],[0.0875,0.2962962962962963]]","[[0.39031250000000006,-0.0257407407407407],[0.41677083333333326,-0.044444444444444446],[0.3771874999999999,-0.05925925925925926],[0.34010416666666665,-0.0764814814814815],[0.3414583333333333,-0.08074074074074078],[0.3458333333333333,-0.08740740740740739],[0.30583333333333323,-0.08611111111111111],[0.31270833333333337,-0.1022222222222222],[0.3400000000000001,-0.11425925925925924],[0.3486458333333334,-0.13388888888888892],[0.30916666666666665,-0.13388888888888892],[0.3115624999999999,-0.11203703703703703],[0.34614583333333326,-0.09796296296296292],[0.37947916666666665,-0.07259259259259257],[0.3394791666666668,-0.06185185185185181],[0.3394791666666668,-0.06185185185185181],[0.29885416666666675,-0.05388888888888893],[0.3063541666666666,-0.06574074074074074],[0.27072916666666674,-0.03425925925925926],[0.2267708333333334,0.003703703703703704],[0.19874999999999995,0.026111111111111154],[0.1977083333333333,0.03629629629629634],[0.16927083333333334,0.04666666666666675],[0.13416666666666663,0.06277777777777774],[0.09500000000000004,0.07185185185185176],[0.07447916666666667,0.07814814814814823],[0.03333333333333333,0.09537037037037037],[-0.019895833333333356,0.13499999999999995],[-0.057291666666666664,0.12814814814814823],[-0.09427083333333333,0.09648148148148153],[-0.121875,0.08888888888888889],[-0.13312499999999997,0.07574074074074069],[-0.1622916666666666,0.07370370370370362],[-0.17843749999999994,0.06111111111111111],[-0.20052083333333334,0.04000000000000004],[-0.22364583333333338,0.02907407407407416],[-0.21260416666666668,0.002962962962963005],[-0.1866666666666667,-0.012777777777777735],[-0.19729166666666664,-0.012222222222222264],[-0.18583333333333332,-0.0025925925925925505],[-0.21302083333333333,-0.011666666666666582],[-0.24125000000000002,-0.007777777777777862],[-0.24718749999999995,-0.014814814814814815],[-0.25750000000000006,-0.01703703703703712],[-0.25750000000000006,-0.01703703703703712],[-0.25656249999999997,-0.015000000000000043],[-0.25656249999999997,-0.015000000000000043],[-0.2469791666666667,-0.002962962962963005],[-0.2469791666666667,-0.002962962962963005],[-0.2530208333333333,0.02370370370370362],[-0.2608333333333333,0.034074074074074034],[-0.2608333333333333,0.034074074074074034],[-0.2421875,0.0455555555555556],[-0.2421875,0.0455555555555556],[-0.2657291666666667,0.08148148148148149],[-0.27583333333333326,0.12740740740740733],[-0.306875,0.1579629629629629],[-0.32791666666666663,0.17185185185185176],[-0.3298958333333334,0.1992592592592593],[-0.33187500000000003,0.22666666666666663],[-0.3047916666666667,0.22759259259259254],[-0.275,0.22092592592592583],[-0.25875,0.2381481481481482],[-0.24249999999999997,0.2553703703703703],[-0.20583333333333337,0.27092592592592585],[-0.171875,0.28833333333333344],[-0.09041666666666662,0.30037037037037045],[-0.02333333333333331,0.32888888888888895],[0.024687500000000046,0.34388888888888897],[0.05604166666666662,0.35999999999999993],[0.050625000000000024,0.3966666666666668],[0.058541666666666714,0.42777777777777776],[0.0626041666666667,0.4337037037037038],[0.09822916666666662,0.4170370370370371],[0.14479166666666668,0.37759259259259254],[0.19135416666666671,0.3381481481481482],[0.18635416666666677,0.31814814814814807],[0.18135416666666657,0.29814814814814816],[0.18083333333333323,0.26907407407407397],[0.19697916666666657,0.2388888888888889],[0.21281249999999996,0.20777777777777787],[0.21531250000000005,0.18222222222222217],[0.22177083333333342,0.14888888888888885],[0.21531250000000005,0.10537037037037032],[0.2109375,0.06648148148148143],[0.22468750000000004,0.022222222222222223],[0.2546875,-0.04592592592592584],[0.2846874999999999,-0.11407407407407412],[0.3099999999999999,-0.17111111111111107],[0.3051041666666668,-0.21870370370370373],[0.31187500000000007,-0.28129629629629627],[0.3186458333333334,-0.34388888888888886],[0.3310416666666666,-0.39962962962962967],[0.30520833333333336,-0.39759259259259255],[0.27489583333333345,-0.39462962962962966],[0.27145833333333325,-0.4022222222222222],[0.2778125000000001,-0.39759259259259255],[0.2778125000000001,-0.39759259259259255],[0.2319791666666667,-0.39537037037037037],[0.2046875,-0.3961111111111111],[0.20437500000000006,-0.40777777777777774],[0.20437500000000006,-0.40777777777777774],[0.19270833333333334,-0.4035185185185185],[0.15760416666666663,-0.40185185185185185],[0.14270833333333333,-0.39944444444444444],[0.14739583333333334,-0.422037037037037],[0.15552083333333327,-0.44425925925925924],[0.11864583333333342,-0.4505555555555556],[0.0578125,-0.4577777777777778],[0.06479166666666672,-0.46222222222222226],[0.05166666666666669,-0.48648148148148146],[0.041770833333333354,-0.5092592592592593],[0.022916666666666665,-0.522962962962963],[0.042708333333333334,-0.5051851851851852],[0.03447916666666669,-0.492037037037037],[0.026250000000000048,-0.4788888888888889],[0.014583333333333334,-0.4661111111111111],[0.00458333333333331,-0.4674074074074074],[0.01854166666666662,-0.4677777777777778],[0.005312500000000024,-0.45629629629629626],[-0.0010416666666666667,-0.42388888888888887],[0.002812500000000047,-0.3985185185185185],[0.008333333333333333,-0.37240740740740746],[0.021354166666666667,-0.3846296296296296],[0.004062499999999977,-0.4014814814814815],[-0.013229166666666714,-0.4183333333333333],[-0.013854166666666619,-0.4172222222222222],[-0.016145833333333335,-0.4020370370370371],[-0.013437499999999976,-0.39240740740740737],[0.000833333333333286,-0.395],[-0.007083333333333286,-0.3827777777777778],[-0.02520833333333338,-0.3635185185185185],[-0.02958333333333331,-0.36129629629629634],[-0.04708333333333338,-0.34092592592592597],[-0.016666666666666666,-0.3344444444444445],[0.013750000000000047,-0.327962962962963],[0.02010416666666662,-0.3455555555555556],[0.02645833333333331,-0.36314814814814816],[0.02020833333333331,-0.35555555555555557],[0.01395833333333331,-0.3479629629629629],[0.029062499999999977,-0.3648148148148148],[0.04031250000000005,-0.3937037037037037],[0.04510416666666662,-0.4153703703703704],[0.049687500000000044,-0.4337037037037037],[0.036354166666666646,-0.4537037037037037],[0.028437499999999952,-0.4537037037037037],[0.028437499999999952,-0.4537037037037037],[0.042916666666666714,-0.4762962962962963],[0.042916666666666714,-0.4762962962962963],[0.0640625,-0.4898148148148148],[0.10437500000000005,-0.5077777777777778],[0.1446875000000001,-0.5257407407407407],[0.16010416666666671,-0.5375925925925926],[0.17822916666666658,-0.5362962962962964],[0.21947916666666673,-0.5153703703703704],[0.2513541666666666,-0.5064814814814815],[0.2834374999999999,-0.4807407407407408],[0.32916666666666666,-0.475],[0.34249999999999997,-0.42777777777777776],[0.34916666666666674,-0.3896296296296296],[0.37687499999999996,-0.3792592592592593],[0.4045833333333334,-0.3688888888888889],[0.42822916666666655,-0.35999999999999993],[0.45302083333333343,-0.3522222222222222],[0.45302083333333343,-0.3522222222222222],[0.4353125000000001,-0.3672222222222222]]","[[0.39031250000000006,-0.0257407407407407,0.00020000000297670795],[0.41677083333333326,-0.044444444444444446,0.016900000005961147],[0.3771874999999999,-0.05925925925925926,0.03320000000297796],[0.34010416666666665,-0.0764814814814815,0.049700000002978584],[0.3414583333333333,-0.08074074074074078,0.06649999999999778],[0.3458333333333333,-0.08740740740740739,0.08299999999999841],[0.30583333333333323,-0.08611111111111111,0.09970000000298285],[0.31270833333333337,-0.1022222222222222,0.11640000000596018],[0.3400000000000001,-0.11425925925925924,0.13300000000000267],[0.3486458333333334,-0.13388888888888892,0.14970000000298],[0.30916666666666665,-0.13388888888888892,0.16640000000595734],[0.3115624999999999,-0.11203703703703703,0.18299999999999983],[0.34614583333333326,-0.09796296296296292,0.19979999999701903],[0.37947916666666665,-0.07259259259259257,0.2164000000059616],[0.3394791666666668,-0.06185185185185181,0.23310000000893893],[0.3394791666666668,-0.06185185185185181,0.2497999999970162],[0.29885416666666675,-0.05388888888888893,0.2665000000000006],[0.3063541666666666,-0.06574074074074074,0.28320000000297796],[0.27072916666666674,-0.03425925925925926,0.2997000000029786],[0.2267708333333334,0.003703703703703704,0.3162999999970211],[0.19874999999999995,0.026111111111111154,0.3329999999999984],[0.1977083333333333,0.03629629629629634,0.34970000000298285],[0.16927083333333334,0.04666666666666675,0.3664000000059602],[0.13416666666666663,0.06277777777777774,0.38300000000000267],[0.09500000000000004,0.07185185185185176,0.39970000000298],[0.07447916666666667,0.07814814814814823,0.41640000000595734],[0.03333333333333333,0.09537037037037037,0.4349000000059604],[-0.019895833333333356,0.13499999999999995,0.44979999999701903],[-0.057291666666666664,0.12814814814814823,0.4664000000059616],[-0.09427083333333333,0.09648148148148153,0.482999999999997],[-0.121875,0.08888888888888889,0.49960000000893956],[-0.13312499999999997,0.07574074074074069,0.5162999999970168],[-0.1622916666666666,0.07370370370370362,0.5331000000089432],[-0.17843749999999994,0.06111111111111111,0.5519000000059577],[-0.20052083333333334,0.04000000000000004,0.566400000005963],[-0.22364583333333338,0.02907407407407416,0.5829999999999984],[-0.21260416666666668,0.002962962962963005,0.5997000000029828],[-0.1866666666666667,-0.012777777777777735,0.6164000000059602],[-0.19729166666666664,-0.012222222222222264,0.6330000000000027],[-0.18583333333333332,-0.0025925925925925505,0.6496000000089381],[-0.21302083333333333,-0.011666666666666582,0.6664000000059573],[-0.24125000000000002,-0.007777777777777862,0.6829999999999998],[-0.24718749999999995,-0.014814814814814815,0.6997000000029772],[-0.25750000000000006,-0.01703703703703712,0.7162999999970197],[-0.25750000000000006,-0.01703703703703712,0.7331000000089389],[-0.25656249999999997,-0.015000000000000043,0.7497000000029814],[-0.25656249999999997,-0.015000000000000043,0.7664000000059588],[-0.2469791666666667,-0.002962962962963005,0.7831000000089432],[-0.2469791666666667,-0.002962962962963005,0.7997999999970204],[-0.2530208333333333,0.02370370370370362,0.8162999999970211],[-0.2608333333333333,0.034074074074074034,0.8377999999970172],[-0.2608333333333333,0.034074074074074034,0.8497000000029828],[-0.2421875,0.0455555555555556,0.8664000000059602],[-0.2421875,0.0455555555555556,0.8830000000000027],[-0.2657291666666667,0.08148148148148149,0.89970000000298],[-0.27583333333333326,0.12740740740740733,0.9200000000000017],[-0.306875,0.1579629629629629,0.9342999999970161],[-0.32791666666666663,0.17185185185185176,0.9497000000029772],[-0.3298958333333334,0.1992592592592593,0.9664000000059616],[-0.33187500000000003,0.22666666666666663,0.9831000000089389],[-0.3047916666666667,0.22759259259259254,0.9997000000029814],[-0.275,0.22092592592592583,1.0162999999970168],[-0.25875,0.2381481481481482,1.0331000000089432],[-0.24249999999999997,0.2553703703703703,1.0497000000029786],[-0.20583333333333337,0.27092592592592585,1.066400000005963],[-0.171875,0.28833333333333344,1.0829999999999984],[-0.09041666666666662,0.30037037037037045,1.0997000000029828],[-0.02333333333333331,0.32888888888888895,1.1164000000059602],[0.024687500000000046,0.34388888888888897,1.1331000000089375],[0.05604166666666662,0.35999999999999993,1.14970000000298],[0.050625000000000024,0.3966666666666668,1.1664999999999992],[0.058541666666666714,0.42777777777777776,1.1829999999999998],[0.0626041666666667,0.4337037037037038,1.1997000000029772],[0.09822916666666662,0.4170370370370371,1.2164000000059616],[0.14479166666666668,0.37759259259259254,1.233100000008939],[0.19135416666666671,0.3381481481481482,1.2497000000029814],[0.18635416666666677,0.31814814814814807,1.2662999999970168],[0.18135416666666657,0.29814814814814816,1.2830000000000013],[0.18083333333333323,0.26907407407407397,1.2997000000029786],[0.19697916666666657,0.2388888888888889,1.3199000000059584],[0.21281249999999996,0.20777777777777787,1.3354999999999961],[0.21531250000000005,0.18222222222222217,1.3502000000029781],[0.22177083333333342,0.14888888888888885,1.3691000000089417],[0.21531250000000005,0.10537037037037032,1.38510000000894],[0.2109375,0.06648148148148143,1.3997999999970219],[0.22468750000000004,0.022222222222222223,1.4186000000089436],[0.2546875,-0.04592592592592584,1.4332000000029765],[0.2846874999999999,-0.11407407407407412,1.449900000005961],[0.3099999999999999,-0.17111111111111107,1.4697999999970222],[0.3051041666666668,-0.21870370370370373,1.4832000000029808],[0.31187500000000007,-0.28129629629629627,1.4999000000059581],[0.3186458333333334,-0.34388888888888886,1.5164000000059588],[0.3310416666666666,-0.39962962962962967,1.5364999999999966],[0.30520833333333336,-0.39759259259259255,1.5517999999970158],[0.27489583333333345,-0.39462962962962966,1.5667999999970164],[0.27145833333333325,-0.4022222222222222,1.5832000000029822],[0.2778125000000001,-0.39759259259259255,1.6049999999999969],[0.2778125000000001,-0.39759259259259255,1.6166000000089369],[0.2319791666666667,-0.39537037037037037,1.6334000000059632],[0.2046875,-0.3961111111111111,1.654299999997022],[0.20437500000000006,-0.40777777777777774,1.6692999999970226],[0.20437500000000006,-0.40777777777777774,1.6832000000029765],[0.19270833333333334,-0.4035185185185185,1.7000000000000028],[0.15760416666666663,-0.40185185185185185,1.717600000008943],[0.14270833333333333,-0.39944444444444444,1.7362999999970157],[0.14739583333333334,-0.422037037037037,1.7527000000029815],[0.15552083333333327,-0.44425925925925924,1.7664000000059588],[0.11864583333333342,-0.4505555555555556,1.7830000000000013],[0.0578125,-0.4577777777777778,1.7999999999999972],[0.06479166666666672,-0.46222222222222226,1.816400000005963],[0.05166666666666669,-0.48648148148148146,1.8329999999999984],[0.041770833333333354,-0.5092592592592593,1.8497000000029828],[0.022916666666666665,-0.522962962962963,1.8664000000059602],[0.042708333333333334,-0.5051851851851852,1.8830000000000027],[0.03447916666666669,-0.492037037037037,1.89970000000298],[0.026250000000000048,-0.4788888888888889,1.9164000000059573],[0.014583333333333334,-0.4661111111111111,1.9329999999999998],[0.00458333333333331,-0.4674074074074074,1.9497000000029772],[0.01854166666666662,-0.4677777777777778,1.9662999999970197],[0.005312500000000024,-0.45629629629629626,1.982999999999997],[-0.0010416666666666667,-0.42388888888888887,1.9996000000089396],[0.002812500000000047,-0.3985185185185185,2.0164000000059588],[0.008333333333333333,-0.37240740740740746,2.0330000000000013],[0.021354166666666667,-0.3846296296296296,2.0496000000089367],[0.004062499999999977,-0.4014814814814815,2.066400000005963],[-0.013229166666666714,-0.4183333333333333,2.0829999999999984],[-0.013854166666666619,-0.4172222222222222,2.099700000002983],[-0.016145833333333335,-0.4020370370370371,2.1162999999970182],[-0.013437499999999976,-0.39240740740740737,2.1330000000000027],[0.000833333333333286,-0.395,2.1499999999999986],[-0.007083333333333286,-0.3827777777777778,2.1662999999970225],[-0.02520833333333338,-0.3635185185185185,2.183],[-0.02958333333333331,-0.36129629629629634,2.1996000000089424],[-0.04708333333333338,-0.34092592592592597,2.2162999999970197],[-0.016666666666666666,-0.3344444444444445,2.232999999999997],[0.013750000000000047,-0.327962962962963,2.249799999997016],[0.02010416666666662,-0.3455555555555556,2.266299999997017],[0.02645833333333331,-0.36314814814814816,2.2830000000000013],[0.02020833333333331,-0.35555555555555557,2.2997000000029786],[0.01395833333333331,-0.3479629629629629,2.316299999997021],[0.029062499999999977,-0.3648148148148148,2.3331000000089404],[0.04031250000000005,-0.3937037037037037,2.349700000002983],[0.04510416666666662,-0.4153703703703704,2.3662999999970182],[0.049687500000000044,-0.4337037037037037,2.3830000000000027],[0.036354166666666646,-0.4537037037037037,2.4024999999999963],[0.028437499999999952,-0.4537037037037037,2.4215000000000018],[0.028437499999999952,-0.4537037037037037,2.438400000005963],[0.042916666666666714,-0.4762962962962963,2.4571000000089427],[0.042916666666666714,-0.4762962962962963,2.4662999999970197],[0.0640625,-0.4898148148148148,2.482999999999997],[0.10437500000000005,-0.5077777777777778,2.4997000000029814],[0.1446875000000001,-0.5257407407407407,2.516299999997017],[0.16010416666666671,-0.5375925925925926,2.5330000000000013],[0.17822916666666658,-0.5362962962962964,2.5497000000029786],[0.21947916666666673,-0.5153703703703704,2.566400000005963],[0.2513541666666666,-0.5064814814814815,2.5829999999999984],[0.2834374999999999,-0.4807407407407408,2.5997999999970176],[0.32916666666666666,-0.475,2.61640000000596],[0.34249999999999997,-0.42777777777777776,2.6330000000000027],[0.34916666666666674,-0.3896296296296296,2.64970000000298],[0.37687499999999996,-0.3792592592592593,2.6662999999970225],[0.4045833333333334,-0.3688888888888889,2.683],[0.42822916666666655,-0.35999999999999993,2.699700000002977],[0.45302083333333343,-0.3522222222222222,2.722400000005962],[0.45302083333333343,-0.3522222222222222,2.733100000008939],[0.4353125000000001,-0.3672222222222222,2.7497000000029814]]","[0.00020000000297670795,0.016900000005961147,0.03320000000297796,0.049700000002978584,0.06649999999999778,0.08299999999999841,0.09970000000298285,0.11640000000596018,0.13300000000000267,0.14970000000298,0.16640000000595734,0.18299999999999983,0.19979999999701903,0.2164000000059616,0.23310000000893893,0.2497999999970162,0.2665000000000006,0.28320000000297796,0.2997000000029786,0.3162999999970211,0.3329999999999984,0.34970000000298285,0.3664000000059602,0.38300000000000267,0.39970000000298,0.41640000000595734,0.4349000000059604,0.44979999999701903,0.4664000000059616,0.482999999999997,0.49960000000893956,0.5162999999970168,0.5331000000089432,0.5519000000059577,0.566400000005963,0.5829999999999984,0.5997000000029828,0.6164000000059602,0.6330000000000027,0.6496000000089381,0.6664000000059573,0.6829999999999998,0.6997000000029772,0.7162999999970197,0.7331000000089389,0.7497000000029814,0.7664000000059588,0.7831000000089432,0.7997999999970204,0.8162999999970211,0.8377999999970172,0.8497000000029828,0.8664000000059602,0.8830000000000027,0.89970000000298,0.9200000000000017,0.9342999999970161,0.9497000000029772,0.9664000000059616,0.9831000000089389,0.9997000000029814,1.0162999999970168,1.0331000000089432,1.0497000000029786,1.066400000005963,1.0829999999999984,1.0997000000029828,1.1164000000059602,1.1331000000089375,1.14970000000298,1.1664999999999992,1.1829999999999998,1.1997000000029772,1.2164000000059616,1.233100000008939,1.2497000000029814,1.2662999999970168,1.2830000000000013,1.2997000000029786,1.3199000000059584,1.3354999999999961,1.3502000000029781,1.3691000000089417,1.38510000000894,1.3997999999970219,1.4186000000089436,1.4332000000029765,1.449900000005961,1.4697999999970222,1.4832000000029808,1.4999000000059581,1.5164000000059588,1.5364999999999966,1.5517999999970158,1.5667999999970164,1.5832000000029822,1.6049999999999969,1.6166000000089369,1.6334000000059632,1.654299999997022,1.6692999999970226,1.6832000000029765,1.7000000000000028,1.717600000008943,1.7362999999970157,1.7527000000029815,1.7664000000059588,1.7830000000000013,1.7999999999999972,1.816400000005963,1.8329999999999984,1.8497000000029828,1.8664000000059602,1.8830000000000027,1.89970000000298,1.9164000000059573,1.9329999999999998,1.9497000000029772,1.9662999999970197,1.982999999999997,1.9996000000089396,2.0164000000059588,2.0330000000000013,2.0496000000089367,2.066400000005963,2.0829999999999984,2.099700000002983,2.1162999999970182,2.1330000000000027,2.1499999999999986,2.1662999999970225,2.183,2.1996000000089424,2.2162999999970197,2.232999999999997,2.249799999997016,2.266299999997017,2.2830000000000013,2.2997000000029786,2.316299999997021,2.3331000000089404,2.349700000002983,2.3662999999970182,2.3830000000000027,2.4024999999999963,2.4215000000000018,2.438400000005963,2.4571000000089427,2.4662999999970197,2.482999999999997,2.4997000000029814,2.516299999997017,2.5330000000000013,2.5497000000029786,2.566400000005963,2.5829999999999984,2.5997999999970176,2.61640000000596,2.6330000000000027,2.64970000000298,2.6662999999970225,2.683,2.699700000002977,2.722400000005962,2.733100000008939,2.7497000000029814]","[1733204695273,1733204695288,1733204695304,1733204695321,1733204695338,1733204695354,1733204695371,1733204695388,1733204695404,1733204695421,1733204695438,1733204695454,1733204695471,1733204695488,1733204695504,1733204695521,1733204695538,1733204695554,1733204695571,1733204695587,1733204695604,1733204695621,1733204695638,1733204695654,1733204695671,1733204695688,1733204695706,1733204695721,1733204695738,1733204695754,1733204695771,1733204695787,1733204695804,1733204695823,1733204695838,1733204695854,1733204695871,1733204695888,1733204695904,1733204695921,1733204695938,1733204695954,1733204695971,1733204695987,1733204696004,1733204696021,1733204696038,1733204696054,1733204696071,1733204696087,1733204696109,1733204696121,1733204696138,1733204696154,1733204696171,1733204696191,1733204696206,1733204696221,1733204696238,1733204696254,1733204696271,1733204696288,1733204696304,1733204696321,1733204696338,1733204696354,1733204696371,1733204696388,1733204696404,1733204696421,1733204696438,1733204696454,1733204696471,1733204696487,1733204696504,1733204696521,1733204696538,1733204696554,1733204696571,1733204696591,1733204696607,1733204696621,1733204696640,1733204696656,1733204696671,1733204696690,1733204696704,1733204696721,1733204696741,1733204696754,1733204696771,1733204696788,1733204696808,1733204696823,1733204696838,1733204696854,1733204696876,1733204696888,1733204696905,1733204696925,1733204696940,1733204696954,1733204696971,1733204696989,1733204697008,1733204697024,1733204697038,1733204697054,1733204697071,1733204697088,1733204697104,1733204697121,1733204697138,1733204697154,1733204697171,1733204697188,1733204697204,1733204697221,1733204697237,1733204697254,1733204697271,1733204697288,1733204697304,1733204697321,1733204697338,1733204697354,1733204697371,1733204697387,1733204697404,1733204697421,1733204697437,1733204697454,1733204697471,1733204697487,1733204697504,1733204697521,1733204697538,1733204697554,1733204697571,1733204697587,1733204697604,1733204697621,1733204697638,1733204697654,1733204697674,1733204697693,1733204697710,1733204697728,1733204697737,1733204697754,1733204697771,1733204697787,1733204697804,1733204697821,1733204697838,1733204697854,1733204697871,1733204697887,1733204697904,1733204697921,1733204697938,1733204697954,1733204697971,1733204697994,1733204698004,1733204698021]","[[1334.7,526.1],[1360.1,516],[1322.1,508],[1286.5,498.7],[1287.8,496.4],[1292,492.8],[1253.6,493.5],[1260.2,484.8],[1286.4,478.3],[1294.7,467.7],[1256.8,467.7],[1259.1,479.5],[1292.3,487.1],[1324.3,500.8],[1285.9,506.6],[1285.9,506.6],[1246.9,510.9],[1254.1,504.5],[1219.9,521.5],[1177.7,542],[1150.8,554.1],[1149.8,559.6],[1122.5,565.2],[1088.8,573.9],[1051.2,578.8],[1031.5,582.2],[992,591.5],[940.9,612.9],[905,609.2],[869.5,592.1],[843,588],[832.2,580.9],[804.2,579.8],[788.7,573],[767.5,561.6],[745.3,555.7],[755.9,541.6],[780.8,533.1],[770.6,533.4],[781.6,538.6],[755.5,533.7],[728.4,535.8],[722.7,532],[712.8,530.8],[712.8,530.8],[713.7,531.9],[713.7,531.9],[722.9,538.4],[722.9,538.4],[717.1,552.8],[709.6,558.4],[709.6,558.4],[727.5,564.6],[727.5,564.6],[704.9,584],[695.2,608.8],[665.4,625.3],[645.2,632.8],[643.3,647.6],[641.4,662.4],[667.4,662.9],[696,659.3],[711.6,668.6],[727.2,677.9],[762.4,686.3],[795,695.7],[873.2,702.2],[937.6,717.6],[983.7,725.7],[1013.8,734.4],[1008.6,754.2],[1016.2,771],[1020.1,774.2],[1054.3,765.2],[1099,743.9],[1143.7,722.6],[1138.9,711.8],[1134.1,701],[1133.6,685.3],[1149.1,669],[1164.3,652.2],[1166.7,638.4],[1172.9,620.4],[1166.7,596.9],[1162.5,575.9],[1175.7,552],[1204.5,515.2],[1233.3,478.4],[1257.6,447.6],[1252.9,421.9],[1259.4,388.1],[1265.9,354.3],[1277.8,324.2],[1253,325.3],[1223.9,326.9],[1220.6,322.8],[1226.7,325.3],[1226.7,325.3],[1182.7,326.5],[1156.5,326.1],[1156.2,319.8],[1156.2,319.8],[1145,322.1],[1111.3,323],[1097,324.3],[1101.5,312.1],[1109.3,300.1],[1073.9,296.7],[1015.5,292.8],[1022.2,290.4],[1009.6,277.3],[1000.1,265],[982,257.6],[1001,267.2],[993.1,274.3],[985.2,281.4],[974,288.3],[964.4,287.6],[977.8,287.4],[965.1,293.6],[959,311.1],[962.7,324.8],[968,338.9],[980.5,332.3],[963.9,323.2],[947.3,314.1],[946.7,314.7],[944.5,322.9],[947.1,328.1],[960.8,326.7],[953.2,333.3],[935.8,343.7],[931.6,344.9],[914.8,355.9],[944,359.4],[973.2,362.9],[979.3,353.4],[985.4,343.9],[979.4,348],[973.4,352.1],[987.9,343],[998.7,327.4],[1003.3,315.7],[1007.7,305.8],[994.9,295],[987.3,295],[987.3,295],[1001.2,282.8],[1001.2,282.8],[1021.5,275.5],[1060.2,265.8],[1098.9,256.1],[1113.7,249.7],[1131.1,250.4],[1170.7,261.7],[1201.3,266.5],[1232.1,280.4],[1276,283.5],[1288.8,309],[1295.2,329.6],[1321.8,335.2],[1348.4,340.8],[1371.1,345.6],[1394.9,349.8],[1394.9,349.8],[1377.9,341.7]]","[0,0.3527331528]","[0.3527331528,0.3527331528]","[-0.3527331528,0]","[-0.3527331528,-0.3527331528]","[0,0]","[0.3527331528,0]","[0,-0.3527331528]","[0.3527331528,-0.3527331528]",0,1,1,1,1,2,Tablet,13,7,11,1
