inst1_resp.keys,inst1_resp.rt,calibrationMouse.x,calibrationMouse.y,calibrationMouse.leftButton,calibrationMouse.midButton,calibrationMouse.rightButton,calibrationClick.x,calibrationClick.y,calibrationClick.leftButton,calibrationClick.midButton,calibrationClick.rightButton,calibrationClick.clicked_name,trialsc.thisRepN,trialsc.thisTrialN,trialsc.thisN,trialsc.thisIndex,trialsc.ran,calibration_x,calibration_y,participant,session,date,expName,psychopyVersion,OS,frameRate,ScreenRes_pixels,Camera_pixels,mouse_2.x,mouse_2.y,mouse_2.leftButton,mouse_2.midButton,mouse_2.rightButton,mouse_2.time,mouse_2.clicked_name,mouse.x,mouse.y,mouse.leftButton,mouse.midButton,mouse.rightButton,mouse.time,mouse.clicked_name,Choice,Trial,TrialDuration,MOUSE_GAZE,ET_GAZE,ET_GAZE_x_T,time,unixTime,ET_GAZE_NF,Loc_Option1_label,Loc_Option2_label,Loc_Cost_label,Loc_Qual_label,Loc_Option1_cost,Loc_Option2_cost,Loc_Option1_quality,Loc_Option2_quality,trials.thisRepN,trials.thisTrialN,trials.thisN,trials.thisIndex,trials.ran,Block,Device,cost1,qual1,cost2,qual2
space,2.7474,-0.138541667,-0.316666667,1,0,0,0.002083333,-0.325925926,1,0,0,calibration_square,0,0,0,10,1,0,-0.33,04,001,2024-12-03_11h00.27.584,Attention_exp_legacy,2023.1.0,Win32,60.24096386,,,,,,,,,,,,,,,,,,,,,,,,,,,,,,,,,,,,,,,,,,,,
,,,,,,,0.329166667,-0.007407407,1,0,0,calibration_square,0,1,1,16,1,0.33,0,04,001,2024-12-03_11h00.27.584,Attention_exp_legacy,2023.1.0,Win32,60.24096386,,,,,,,,,,,,,,,,,,,,,,,,,,,,,,,,,,,,,,,,,,,,
,,,,,,,0.009375,0.659259259,1,0,0,,0,2,2,13,1,0,0.67,04,001,2024-12-03_11h00.27.584,Attention_exp_legacy,2023.1.0,Win32,60.24096386,,,,,,,,,,,,,,,,,,,,,,,,,,,,,,,,,,,,,,,,,,,,
,,,,,,,-0.338541667,0.353703704,1,0,0,,0,3,3,7,1,-0.33,0.33,04,001,2024-12-03_11h00.27.584,Attention_exp_legacy,2023.1.0,Win32,60.24096386,,,,,,,,,,,,,,,,,,,,,,,,,,,,,,,,,,,,,,,,,,,,
,,,,,,,-0.325,-0.359259259,1,0,0,,0,4,4,5,1,-0.33,-0.33,04,001,2024-12-03_11h00.27.584,Attention_exp_legacy,2023.1.0,Win32,60.24096386,,,,,,,,,,,,,,,,,,,,,,,,,,,,,,,,,,,,,,,,,,,,
,,,,,,,-0.68125,0.342592593,1,0,0,,0,5,5,3,1,-0.67,0.33,04,001,2024-12-03_11h00.27.584,Attention_exp_legacy,2023.1.0,Win32,60.24096386,,,,,,,,,,,,,,,,,,,,,,,,,,,,,,,,,,,,,,,,,,,,
,,,,,,,-0.670833333,-0.333333333,1,0,0,calibration_square,0,6,6,1,1,-0.67,-0.33,04,001,2024-12-03_11h00.27.584,Attention_exp_legacy,2023.1.0,Win32,60.24096386,,,,,,,,,,,,,,,,,,,,,,,,,,,,,,,,,,,,,,,,,,,,
,,,,,,,0.338541667,0.677777778,1,0,0,calibration_square,0,7,7,18,1,0.33,0.67,04,001,2024-12-03_11h00.27.584,Attention_exp_legacy,2023.1.0,Win32,60.24096386,,,,,,,,,,,,,,,,,,,,,,,,,,,,,,,,,,,,,,,,,,,,
,,,,,,,-0.003125,0.305555556,1,0,0,,0,8,8,12,1,0,0.33,04,001,2024-12-03_11h00.27.584,Attention_exp_legacy,2023.1.0,Win32,60.24096386,,,,,,,,,,,,,,,,,,,,,,,,,,,,,,,,,,,,,,,,,,,,
,,,,,,,-0.321875,0.016666667,1,0,0,,0,9,9,6,1,-0.33,0,04,001,2024-12-03_11h00.27.584,Attention_exp_legacy,2023.1.0,Win32,60.24096386,,,,,,,,,,,,,,,,,,,,,,,,,,,,,,,,,,,,,,,,,,,,
,,,,,,,-0.336458333,0.664814815,1,0,0,calibration_square,0,10,10,8,1,-0.33,0.67,04,001,2024-12-03_11h00.27.584,Attention_exp_legacy,2023.1.0,Win32,60.24096386,,,,,,,,,,,,,,,,,,,,,,,,,,,,,,,,,,,,,,,,,,,,
,,,,,,,-0.671875,-0.659259259,1,0,0,,0,11,11,0,1,-0.67,-0.67,04,001,2024-12-03_11h00.27.584,Attention_exp_legacy,2023.1.0,Win32,60.24096386,,,,,,,,,,,,,,,,,,,,,,,,,,,,,,,,,,,,,,,,,,,,
,,,,,,,-0.008333333,0.011111111,1,0,0,,0,12,12,11,1,0,0,04,001,2024-12-03_11h00.27.584,Attention_exp_legacy,2023.1.0,Win32,60.24096386,,,,,,,,,,,,,,,,,,,,,,,,,,,,,,,,,,,,,,,,,,,,
,,,,,,,0.6625,-0.661111111,1,0,0,calibration_square,0,13,13,20,1,0.67,-0.67,04,001,2024-12-03_11h00.27.584,Attention_exp_legacy,2023.1.0,Win32,60.24096386,,,,,,,,,,,,,,,,,,,,,,,,,,,,,,,,,,,,,,,,,,,,
,,,,,,,0.33125,-0.333333333,1,0,0,calibration_square,0,14,14,15,1,0.33,-0.33,04,001,2024-12-03_11h00.27.584,Attention_exp_legacy,2023.1.0,Win32,60.24096386,,,,,,,,,,,,,,,,,,,,,,,,,,,,,,,,,,,,,,,,,,,,
,,,,,,,0.35625,-0.681481481,1,0,0,,0,15,15,14,1,0.33,-0.67,04,001,2024-12-03_11h00.27.584,Attention_exp_legacy,2023.1.0,Win32,60.24096386,,,,,,,,,,,,,,,,,,,,,,,,,,,,,,,,,,,,,,,,,,,,
,,,,,,,0.328125,0.305555556,1,0,0,,0,16,16,17,1,0.33,0.33,04,001,2024-12-03_11h00.27.584,Attention_exp_legacy,2023.1.0,Win32,60.24096386,,,,,,,,,,,,,,,,,,,,,,,,,,,,,,,,,,,,,,,,,,,,
,,,,,,,-0.328125,-0.668518519,1,0,0,calibration_square,0,17,17,4,1,-0.33,-0.67,04,001,2024-12-03_11h00.27.584,Attention_exp_legacy,2023.1.0,Win32,60.24096386,,,,,,,,,,,,,,,,,,,,,,,,,,,,,,,,,,,,,,,,,,,,
,,,,,,,-0.683333333,-0.001851852,1,0,0,,0,18,18,2,1,-0.67,0,04,001,2024-12-03_11h00.27.584,Attention_exp_legacy,2023.1.0,Win32,60.24096386,,,,,,,,,,,,,,,,,,,,,,,,,,,,,,,,,,,,,,,,,,,,
,,,,,,,0.01875,-0.677777778,1,0,0,,0,19,19,9,1,0,-0.67,04,001,2024-12-03_11h00.27.584,Attention_exp_legacy,2023.1.0,Win32,60.24096386,,,,,,,,,,,,,,,,,,,,,,,,,,,,,,,,,,,,,,,,,,,,
,,,,,,,0.679166667,0.664814815,1,0,0,calibration_square,0,20,20,19,1,0.67,0.67,04,001,2024-12-03_11h00.27.584,Attention_exp_legacy,2023.1.0,Win32,60.24096386,,,,,,,,,,,,,,,,,,,,,,,,,,,,,,,,,,,,,,,,,,,,
,,,,,,,,,,,,,,,,,,,,04,001,2024-12-03_11h00.27.584,Attention_exp_legacy,2023.1.0,Win32,60.24096386,"[1920,1080]","[640,480]",[-0.03333333333333333],[-0.48703703703703705],[1],[0],[0],[4.97939999999106],"[""StartButton""]",[0.41354166666666664],[0.5092592592592593],[1],[0],[0],[3.3670000000000044],"[""Option2_label""]",Option2_label,1,4.3911,"[[0.008333333333333333,-0.06111111111111111],[0.008333333333333333,-0.06111111111111111],[0.008333333333333333,-0.06111111111111111],[0.008333333333333333,-0.06111111111111111],[0.008333333333333333,-0.06111111111111111],[0.008333333333333333,-0.06111111111111111],[0.008333333333333333,-0.06111111111111111],[0.008333333333333333,-0.06111111111111111],[0.008333333333333333,-0.06111111111111111],[0.008333333333333333,-0.06111111111111111],[0.008333333333333333,-0.06111111111111111],[0.008333333333333333,-0.06111111111111111],[0.008333333333333333,-0.06111111111111111],[0.008333333333333333,-0.06111111111111111],[0.008333333333333333,-0.06111111111111111],[0.008333333333333333,-0.06111111111111111],[0.008333333333333333,-0.06111111111111111],[0.008333333333333333,-0.06111111111111111],[0.008333333333333333,-0.06111111111111111],[0.008333333333333333,-0.06111111111111111],[0.008333333333333333,-0.06111111111111111],[0.008333333333333333,-0.06111111111111111],[0.008333333333333333,-0.06111111111111111],[0.008333333333333333,-0.06111111111111111],[0.008333333333333333,-0.06111111111111111],[0.008333333333333333,-0.06111111111111111],[0.008333333333333333,-0.06111111111111111],[0.008333333333333333,-0.06111111111111111],[0.008333333333333333,-0.06111111111111111],[0.019791666666666666,-0.053703703703703705],[0.028125,-0.037037037037037035],[0.035416666666666666,-0.022222222222222223],[0.042708333333333334,-0.003703703703703704],[0.046875,0.003703703703703704],[0.05520833333333333,0.014814814814814815],[0.06770833333333333,0.027777777777777776],[0.08333333333333333,0.03888888888888889],[0.1,0.04814814814814815],[0.125,0.06296296296296296],[0.15,0.07222222222222222],[0.18125,0.09074074074074075],[0.2375,0.1037037037037037],[0.275,0.11666666666666667],[0.30520833333333336,0.1259259259259259],[0.334375,0.1259259259259259],[0.365625,0.1259259259259259],[0.39375,0.1259259259259259],[0.41875,0.1259259259259259],[0.4395833333333333,0.1259259259259259],[0.4552083333333333,0.1259259259259259],[0.4666666666666667,0.1259259259259259],[0.46979166666666666,0.1259259259259259],[0.4708333333333333,0.1259259259259259],[0.4708333333333333,0.1259259259259259],[0.4708333333333333,0.1259259259259259],[0.471875,0.1259259259259259],[0.471875,0.1259259259259259],[0.471875,0.1259259259259259],[0.471875,0.1259259259259259],[0.471875,0.1259259259259259],[0.471875,0.1259259259259259],[0.471875,0.1259259259259259],[0.471875,0.1259259259259259],[0.471875,0.1259259259259259],[0.471875,0.1259259259259259],[0.471875,0.12222222222222222],[0.471875,0.12222222222222222],[0.471875,0.12222222222222222],[0.471875,0.12222222222222222],[0.471875,0.12222222222222222],[0.471875,0.12222222222222222],[0.471875,0.12222222222222222],[0.471875,0.12222222222222222],[0.471875,0.12222222222222222],[0.471875,0.12222222222222222],[0.471875,0.12222222222222222],[0.471875,0.12222222222222222],[0.471875,0.12222222222222222],[0.471875,0.12222222222222222],[0.471875,0.12222222222222222],[0.471875,0.12222222222222222],[0.471875,0.12222222222222222],[0.471875,0.12222222222222222],[0.471875,0.12222222222222222],[0.4708333333333333,0.12222222222222222],[0.4708333333333333,0.12222222222222222],[0.46875,0.12037037037037036],[0.4666666666666667,0.11851851851851852],[0.465625,0.11851851851851852],[0.4625,0.11851851851851852],[0.4625,0.11851851851851852],[0.4625,0.11851851851851852],[0.4625,0.11851851851851852],[0.4625,0.11851851851851852],[0.46145833333333336,0.11851851851851852],[0.46145833333333336,0.11851851851851852],[0.46145833333333336,0.11851851851851852],[0.46145833333333336,0.11851851851851852],[0.46041666666666664,0.11851851851851852],[0.46041666666666664,0.11851851851851852],[0.46041666666666664,0.11851851851851852],[0.459375,0.11851851851851852],[0.459375,0.11851851851851852],[0.459375,0.11851851851851852],[0.459375,0.11851851851851852],[0.4583333333333333,0.11851851851851852],[0.4583333333333333,0.11851851851851852],[0.4583333333333333,0.11851851851851852],[0.4583333333333333,0.11851851851851852],[0.4583333333333333,0.11851851851851852],[0.4583333333333333,0.11851851851851852],[0.45729166666666665,0.11851851851851852],[0.45729166666666665,0.11851851851851852],[0.45729166666666665,0.12037037037037036],[0.45729166666666665,0.12037037037037036],[0.45729166666666665,0.12037037037037036],[0.45729166666666665,0.12037037037037036],[0.45729166666666665,0.12037037037037036],[0.45729166666666665,0.12037037037037036],[0.45729166666666665,0.12037037037037036],[0.45729166666666665,0.12037037037037036],[0.45729166666666665,0.12037037037037036],[0.45729166666666665,0.12037037037037036],[0.45729166666666665,0.12037037037037036],[0.45729166666666665,0.12037037037037036],[0.45729166666666665,0.12037037037037036],[0.45729166666666665,0.12037037037037036],[0.45729166666666665,0.12037037037037036],[0.45729166666666665,0.12037037037037036],[0.45729166666666665,0.12037037037037036],[0.45729166666666665,0.12037037037037036],[0.45729166666666665,0.12037037037037036],[0.45729166666666665,0.12037037037037036],[0.45729166666666665,0.12037037037037036],[0.45729166666666665,0.12037037037037036],[0.45729166666666665,0.12037037037037036],[0.45729166666666665,0.12037037037037036],[0.45208333333333334,0.12962962962962962],[0.4479166666666667,0.13518518518518519],[0.43645833333333334,0.15185185185185185],[0.4197916666666667,0.17222222222222222],[0.40520833333333334,0.18888888888888888],[0.39479166666666665,0.20185185185185187],[0.38958333333333334,0.20925925925925926],[0.38229166666666664,0.21666666666666667],[0.37916666666666665,0.22037037037037038],[0.37395833333333334,0.22777777777777777],[0.37083333333333335,0.22962962962962963],[0.36666666666666664,0.2351851851851852],[0.3614583333333333,0.2388888888888889],[0.35833333333333334,0.24444444444444444],[0.35520833333333335,0.24814814814814815],[0.353125,0.25],[0.35104166666666664,0.2537037037037037],[0.3489583333333333,0.25555555555555554],[0.34791666666666665,0.25925925925925924],[0.346875,0.2611111111111111],[0.3458333333333333,0.2611111111111111],[0.34479166666666666,0.26296296296296295],[0.34479166666666666,0.26481481481481484],[0.34270833333333334,0.26851851851851855],[0.34270833333333334,0.2777777777777778],[0.34270833333333334,0.28703703703703703],[0.34270833333333334,0.30925925925925923],[0.3458333333333333,0.337037037037037],[0.35833333333333334,0.3685185185185185],[0.375,0.3962962962962963],[0.3927083333333333,0.4203703703703704],[0.4114583333333333,0.44074074074074077],[0.42291666666666666,0.4537037037037037],[0.434375,0.4648148148148148],[0.4395833333333333,0.4703703703703704],[0.4479166666666667,0.4740740740740741],[0.453125,0.47962962962962963],[0.45625,0.48148148148148145],[0.459375,0.48518518518518516],[0.459375,0.48518518518518516],[0.459375,0.48518518518518516],[0.459375,0.48518518518518516],[0.459375,0.48518518518518516],[0.459375,0.48518518518518516],[0.459375,0.48518518518518516],[0.459375,0.48518518518518516],[0.4583333333333333,0.48518518518518516],[0.44375,0.48518518518518516],[0.41041666666666665,0.48518518518518516],[0.3854166666666667,0.48518518518518516],[0.365625,0.48518518518518516],[0.35104166666666664,0.48518518518518516],[0.3375,0.48518518518518516],[0.3302083333333333,0.48703703703703705],[0.328125,0.48703703703703705],[0.328125,0.48703703703703705],[0.328125,0.48703703703703705],[0.328125,0.48703703703703705],[0.3302083333333333,0.48703703703703705],[0.3489583333333333,0.4925925925925926],[0.3697916666666667,0.4981481481481482],[0.3927083333333333,0.5037037037037037],[0.409375,0.5074074074074074],[0.41354166666666664,0.5092592592592593],[0.41354166666666664,0.5092592592592593],[0.41354166666666664,0.5092592592592593],[0.41354166666666664,0.5092592592592593],[0.41354166666666664,0.5092592592592593],[0.41354166666666664,0.5092592592592593],[0.41354166666666664,0.5092592592592593],[0.41354166666666664,0.5092592592592593],[0.41354166666666664,0.5092592592592593],[0.41354166666666664,0.5092592592592593],[0.41354166666666664,0.5092592592592593],[0.41354166666666664,0.5092592592592593],[0.41354166666666664,0.5092592592592593],[0.41354166666666664,0.5092592592592593],[0.41354166666666664,0.5092592592592593],[0.41354166666666664,0.5092592592592593],[0.41354166666666664,0.5092592592592593],[0.41354166666666664,0.5092592592592593],[0.41354166666666664,0.5092592592592593],[0.41354166666666664,0.5092592592592593],[0.41354166666666664,0.5092592592592593],[0.41354166666666664,0.5092592592592593],[0.41354166666666664,0.5092592592592593],[0.41354166666666664,0.5092592592592593],[0.41354166666666664,0.5092592592592593],[0.41354166666666664,0.5092592592592593],[0.41354166666666664,0.5092592592592593],[0.41354166666666664,0.5092592592592593],[0.41354166666666664,0.5092592592592593],[0.41354166666666664,0.5092592592592593],[0.41354166666666664,0.5092592592592593],[0.41354166666666664,0.5092592592592593],[0.41354166666666664,0.5092592592592593],[0.4166666666666667,0.5],[0.421875,0.49444444444444446],[0.4270833333333333,0.4888888888888889],[0.4270833333333333,0.48703703703703705],[0.43020833333333336,0.48518518518518516],[0.43333333333333335,0.48148148148148145],[0.4354166666666667,0.4777777777777778],[0.4375,0.4759259259259259],[0.4395833333333333,0.4759259259259259],[0.440625,0.4722222222222222],[0.440625,0.4722222222222222],[0.440625,0.4722222222222222],[0.440625,0.4722222222222222],[0.440625,0.4722222222222222],[0.440625,0.4722222222222222],[0.440625,0.4722222222222222],[0.440625,0.4722222222222222],[0.440625,0.4722222222222222],[0.440625,0.4722222222222222],[0.440625,0.4722222222222222],[0.440625,0.4722222222222222],[0.440625,0.4722222222222222],[0.440625,0.4722222222222222],[0.440625,0.4722222222222222],[0.440625,0.4722222222222222],[0.440625,0.4722222222222222],[0.440625,0.4722222222222222],[0.440625,0.4722222222222222],[0.440625,0.4722222222222222],[0.440625,0.4722222222222222]]","[[0.012916666666666642,0.08444444444444449],[0.012916666666666642,0.08444444444444449],[0.013437499999999976,0.12259259259259268],[0.013437499999999976,0.12259259259259268],[0.025833333333333285,0.08851851851851844],[0.025833333333333285,0.08851851851851844],[0.006666666666666643,0.06611111111111119],[0.006666666666666643,0.06611111111111119],[-0.020833333333333332,0.027962962962963005],[-0.020833333333333332,0.027962962962963005],[-0.05249999999999998,-0.021481481481481525],[-0.05249999999999998,-0.021481481481481525],[-0.10083333333333329,-0.08203703703703706],[-0.10083333333333329,-0.08203703703703706],[-0.17552083333333332,-0.08444444444444449],[-0.17552083333333332,-0.08444444444444449],[-0.20958333333333337,-0.08222222222222218],[-0.20958333333333337,-0.08222222222222218],[-0.2267708333333334,-0.05425925925925928],[-0.24729166666666663,-0.027777777777777776],[-0.24729166666666663,-0.027777777777777776],[-0.2915625,-0.012037037037037037],[-0.34822916666666665,-0.013703703703703662],[-0.411875,-0.027222222222222307],[-0.43864583333333335,-0.039629629629629584],[-0.42645833333333333,-0.04518518518518514],[-0.42645833333333333,-0.04518518518518514],[-0.4161458333333333,-0.025],[-0.41781250000000003,-0.011111111111111112],[-0.46197916666666666,-0.039629629629629584],[-0.415,-0.04092592592592597],[-0.3702083333333333,-0.048333333333333374],[-0.3702083333333333,-0.048333333333333374],[-0.32010416666666663,-0.06518518518518517],[-0.2673958333333334,-0.08148148148148149],[-0.21822916666666667,-0.10981481481481484],[-0.21822916666666667,-0.10981481481481484],[-0.18020833333333333,-0.09240740740740737],[-0.16510416666666666,-0.09351851851851851],[-0.09864583333333338,-0.08814814814814818],[-0.04364583333333331,-0.10166666666666663],[0.07333333333333343,-0.06722222222222224],[0.1271874999999999,-0.050370370370370454],[0.15499999999999994,-0.06111111111111111],[0.19135416666666671,-0.06296296296296296],[0.2375,-0.04148148148148144],[0.2867708333333333,-0.01444444444444436],[0.31791666666666674,-0.02296296296296292],[0.359375,-0.012407407407407492],[0.3875,-0.01703703703703712],[0.4180208333333333,-0.02240740740740745],[0.42333333333333345,-0.034999999999999955],[0.42864583333333334,-0.04759259259259268],[0.43302083333333335,-0.0007407407407406986],[0.4243750000000001,0.03611111111111111],[0.390625,0.024074074074074074],[0.3976041666666667,0.019444444444444445],[0.40614583333333343,0.057037037037036956],[0.42729166666666674,0.09407407407407399],[0.4170833333333334,0.10759259259259263],[0.4076041666666666,0.12759259259259256],[0.3946875000000001,0.12611111111111115],[0.38177083333333334,0.12462962962962955],[0.3522916666666667,0.11425925925925934],[0.3228125000000001,0.10388888888888893],[0.32999999999999996,0.13703703703703704],[0.31395833333333345,0.14685185185185176],[0.29708333333333337,0.11888888888888897],[0.29708333333333337,0.11888888888888897],[0.2646874999999999,0.08666666666666659],[0.24364583333333342,0.09074074074074075],[0.22260416666666671,0.0948148148148149],[0.1837500000000001,0.12555555555555548],[0.1345833333333334,0.1618518518518518],[0.13114583333333343,0.18129629629629626],[0.12958333333333344,0.15092592592592594],[0.11645833333333329,0.1259259259259259],[0.08364583333333328,0.1346296296296297],[0.050833333333333286,0.14333333333333328],[0.02302083333333336,0.1242592592592593],[-0.004270833333333357,0.08648148148148156],[-0.01260416666666669,0.0492592592592593],[-0.015208333333333357,-0.01518518518518527],[-0.0296875,-0.09203703703703701],[-0.03093750000000005,-0.1507407407407407],[-0.016875000000000046,-0.1816666666666667],[-0.02312500000000005,-0.20314814814814813],[-0.0015625,-0.22537037037037036],[0.036145833333333384,-0.2383333333333333],[0.10760416666666663,-0.2505555555555556],[0.1790625000000001,-0.2627777777777777],[0.23156249999999995,-0.27555555555555555],[0.25416666666666665,-0.30999999999999994],[0.28229166666666666,-0.33796296296296297],[0.29447916666666674,-0.3496296296296296],[0.32145833333333323,-0.32888888888888895],[0.3549999999999999,-0.34018518518518515],[0.3633333333333333,-0.36203703703703705],[0.3736458333333334,-0.3890740740740741],[0.38479166666666675,-0.3559259259259259],[0.3703125,-0.3383333333333333],[0.37999999999999995,-0.3140740740740741],[0.41208333333333325,-0.2759259259259259],[0.4405208333333334,-0.2375925925925926],[0.4405208333333334,-0.2375925925925926],[0.4836458333333333,-0.23148148148148148],[0.48291666666666655,-0.24611111111111106],[0.5257291666666667,-0.2257407407407407],[0.5685416666666666,-0.20537037037037034],[0.5791666666666667,-0.19500000000000003],[0.5791666666666667,-0.19500000000000003],[0.565625,-0.21370370370370367],[0.5675,-0.19074074074074074],[0.5778125000000001,-0.16425925925925924],[0.595625,-0.12999999999999998],[0.595625,-0.12999999999999998],[0.6339583333333333,-0.09592592592592594],[0.6451041666666666,-0.05462962962962963],[0.6701041666666666,-0.004074074074074159],[0.6653125000000001,0.034074074074074034],[0.6616666666666667,0.0838888888888888],[0.6262500000000001,0.14759259259259266],[0.5909375,0.21148148148148158],[0.5681250000000001,0.23166666666666672],[0.5127083333333334,0.24166666666666667],[0.4310416666666666,0.24462962962962967],[0.3459374999999999,0.25333333333333324],[0.3459374999999999,0.25333333333333324],[0.28114583333333343,0.24888888888888885],[0.28114583333333343,0.24888888888888885],[0.20125000000000004,0.26425925925925936],[0.20125000000000004,0.26425925925925936],[0.146875,0.26481481481481484],[0.146875,0.26481481481481484],[0.07947916666666661,0.2518518518518518],[0.07947916666666661,0.2518518518518518],[0.11322916666666671,0.2442592592592592],[0.11177083333333329,0.19537037037037036],[0.11177083333333329,0.19537037037037036],[0.115625,0.1648148148148148],[0.11677083333333324,0.13759259259259252],[0.11760416666666676,0.11388888888888889],[0.17135416666666667,0.0824074074074074],[0.20197916666666677,0.069074074074074],[0.2690624999999999,0.032777777777777864],[0.28458333333333335,-0.007962962962962878],[0.31197916666666664,-0.04685185185185177],[0.2859375,-0.09000000000000004],[0.3029166666666666,-0.10388888888888893],[0.2759375000000001,-0.09518518518518514],[0.2516666666666666,-0.08981481481481482],[0.3038541666666667,-0.09851851851851849],[0.29541666666666655,-0.08388888888888892],[0.3203125,-0.08962962962962959],[0.321875,-0.09111111111111109],[0.32697916666666677,-0.08962962962962959],[0.33718750000000003,-0.08574074074074076],[0.3367708333333333,-0.11185185185185181],[0.3367708333333333,-0.11185185185185181],[0.3341666666666666,-0.11537037037037039],[0.37822916666666656,-0.11888888888888886],[0.43729166666666663,-0.10888888888888891],[0.4552083333333333,-0.08648148148148146],[0.4514583333333334,-0.10351851851851848],[0.39177083333333323,-0.14611111111111108],[0.3320833333333333,-0.18870370370370365],[0.29322916666666665,-0.19907407407407407],[0.24927083333333327,-0.21185185185185182],[0.2303124999999999,-0.20277777777777778],[0.21343750000000009,-0.20703703703703705],[0.1853125000000001,-0.23203703703703707],[0.15760416666666663,-0.27388888888888885],[0.1330208333333334,-0.32611111111111113],[0.1134375000000001,-0.31574074074074077],[0.12895833333333329,-0.2874074074074074],[0.1736458333333334,-0.25870370370370366],[0.1736458333333334,-0.25870370370370366],[0.22041666666666657,-0.2692592592592592],[0.25812499999999994,-0.2627777777777777],[0.28875000000000006,-0.2511111111111112],[0.30583333333333323,-0.2433333333333333],[0.3633333333333333,-0.21148148148148146],[0.3633333333333333,-0.21148148148148146],[0.40593750000000006,-0.18037037037037032],[0.40739583333333323,-0.16740740740740737],[0.45114583333333325,-0.22814814814814813],[0.5004166666666667,-0.2753703703703704],[0.4990624999999999,-0.307962962962963],[0.4861458333333334,-0.25166666666666665],[0.4882291666666667,-0.23962962962962958],[0.4664583333333333,-0.182962962962963],[0.4599999999999999,-0.2022222222222222],[0.4189583333333334,-0.23351851851851857],[0.37739583333333326,-0.2607407407407408],[0.371875,-0.27018518518518514],[0.37395833333333334,-0.2614814814814815],[0.34697916666666656,-0.24666666666666665],[0.3330208333333334,-0.24444444444444444],[0.3302083333333333,-0.30777777777777776],[0.37312500000000004,-0.35055555555555556],[0.37312500000000004,-0.35055555555555556],[0.3954166666666666,-0.4418518518518519],[0.4317708333333333,-0.46296296296296297],[0.4744791666666667,-0.5242592592592593],[0.5171875,-0.5855555555555555],[0.5210416666666667,-0.6059259259259259],[0.5299999999999999,-0.6087037037037036],[0.52,-0.6346296296296297],[0.5184375,-0.662962962962963],[0.5621875000000001,-0.6655555555555556],[0.5542708333333333,-0.6614814814814814],[0.5816666666666668,-0.6596296296296296],[0.5790625000000001,-0.6387037037037037],[0.5652083333333332,-0.5922222222222222],[0.5642708333333334,-0.5468518518518519],[0.6228125000000001,-0.5562962962962963],[0.6237499999999999,-0.5322222222222222],[0.7017708333333333,-0.49296296296296294],[0.7797916666666665,-0.4537037037037037],[0.7608333333333335,-0.49981481481481477],[0.7623958333333334,-0.5446296296296297],[0.73,-0.5785185185185184],[0.7040625000000001,-0.6190740740740741],[0.7065625,-0.6687037037037038],[0.7065625,-0.6687037037037038],[0.6961458333333332,-0.7172222222222222],[0.6961458333333332,-0.7172222222222222],[0.6569791666666667,-0.7316666666666667],[0.6505208333333333,-0.7875925925925926],[0.589375,-0.8672222222222222],[0.5120833333333332,-0.9081481481481481],[0.5109375,-0.9146296296296296],[0.5109375,-0.9146296296296296],[0.4896874999999999,-0.922037037037037],[0.5159374999999999,-0.9264814814814815],[0.5159374999999999,-0.9264814814814815],[0.5421875,-0.9309259259259259],[0.4951041666666666,-0.9116666666666667],[0.49104166666666677,-0.8835185185185186],[0.47416666666666674,-0.8611111111111112],[0.4818749999999999,-0.8090740740740741],[0.4787499999999999,-0.7574074074074074],[0.4787499999999999,-0.7574074074074074],[0.4917708333333332,-0.7444444444444445],[0.4632291666666667,-0.6888888888888889],[0.46812500000000007,-0.6596296296296296],[0.45947916666666655,-0.6442592592592592],[0.45947916666666655,-0.6442592592592592],[0.4110416666666666,-0.6114814814814815],[0.4110416666666666,-0.6114814814814815],[0.3377083333333334,-0.6503703703703704],[0.2171875,-0.6827777777777777],[0.2171875,-0.6827777777777777],[0.11083333333333342,-0.7137037037037036],[0.11083333333333342,-0.7137037037037036],[-0.012812499999999952,-0.7644444444444445],[-0.012812499999999952,-0.7644444444444445],[-0.11010416666666671,-0.7559259259259259],[-0.11010416666666671,-0.7559259259259259],[-0.22927083333333337,-0.7627777777777778],[-0.22927083333333337,-0.7627777777777778],[-0.33781249999999996,-0.7592592592592593],[-0.47010416666666666,-0.7361111111111112]]","[[0.012916666666666642,0.08444444444444449,0.00020000000298381337],[0.012916666666666642,0.08444444444444449,0.040500000000001535],[0.013437499999999976,0.12259259259259268,0.0667000000029816],[0.013437499999999976,0.12259259259259268,0.07729999999702386],[0.025833333333333285,0.08851851851851844,0.0912000000029849],[0.025833333333333285,0.08851851851851844,0.10779999999702028],[0.006666666666666643,0.06611111111111119,0.12450000000000472],[0.006666666666666643,0.06611111111111119,0.1410999999940401],[-0.020833333333333332,0.027962962962963005,0.15790000000595938],[-0.020833333333333332,0.027962962962963005,0.17440000000596],[-0.05249999999999998,-0.021481481481481525,0.19109999999404437],[-0.05249999999999998,-0.021481481481481525,0.2077999999970217],[-0.10083333333333329,-0.08203703703703706,0.22449999999999903],[-0.10083333333333329,-0.08203703703703706,0.24109999999404153],[-0.17552083333333332,-0.08444444444444449,0.2579000000059608],[-0.17552083333333332,-0.08444444444444449,0.2745000000000033],[-0.20958333333333337,-0.08222222222222218,0.2910999999940387],[-0.20958333333333337,-0.08222222222222218,0.3077999999970231],[-0.2267708333333334,-0.05425925925925928,0.3244000000059586],[-0.24729166666666663,-0.027777777777777776,0.34109999999404295],[-0.24729166666666663,-0.027777777777777776,0.3579000000059622],[-0.2915625,-0.012037037037037037,0.37440000000596285],[-0.34822916666666665,-0.013703703703703662,0.39120000000298205],[-0.411875,-0.027222222222222307,0.40779999999702454],[-0.43864583333333335,-0.039629629629629584,0.4245000000000019],[-0.42645833333333333,-0.04518518518518514,0.44109999999404437],[-0.42645833333333333,-0.04518518518518514,0.4579999999999984],[-0.4161458333333333,-0.025,0.47449999999999903],[-0.41781250000000003,-0.011111111111111112,0.4910999999940415],[-0.46197916666666666,-0.039629629629629584,0.5105999999940423],[-0.415,-0.04092592592592597,0.5252000000029824],[-0.3702083333333333,-0.048333333333333374,0.5412000000029806],[-0.3702083333333333,-0.048333333333333374,0.5605000000000047],[-0.32010416666666663,-0.06518518518518517,0.5745999999940423],[-0.2673958333333334,-0.08148148148148149,0.5912999999970197],[-0.21822916666666667,-0.10981481481481484,0.6077999999970203],[-0.21822916666666667,-0.10981481481481484,0.6267000000029839],[-0.18020833333333333,-0.09240740740740737,0.6414000000059588],[-0.16510416666666666,-0.09351851851851851,0.6595000000000013],[-0.09864583333333338,-0.08814814814814818,0.6772000000029834],[-0.04364583333333331,-0.10166666666666663,0.6912999999970211],[0.07333333333333343,-0.06722222222222224,0.7079000000059636],[0.1271874999999999,-0.050370370370370454,0.7265000000000015],[0.15499999999999994,-0.06111111111111111,0.7412000000029835],[0.19135416666666671,-0.06296296296296296,0.7582000000029794],[0.2375,-0.04148148148148144,0.7745999999940381],[0.2867708333333333,-0.01444444444444436,0.7929000000059645],[0.31791666666666674,-0.02296296296296292,0.8079000000059651],[0.359375,-0.012407407407407492,0.8269000000059634],[0.3875,-0.01703703703703712,0.8434999999999988],[0.4180208333333333,-0.02240740740740745,0.8582999999970227],[0.42333333333333345,-0.034999999999999955,0.8745999999940395],[0.42864583333333334,-0.04759259259259268,0.8930999999940425],[0.43302083333333335,-0.0007407407407406986,0.9077000000029827],[0.4243750000000001,0.03611111111111111,0.9269000000059648],[0.390625,0.024074074074074074,0.9430999999940397],[0.3976041666666667,0.019444444444444445,0.9577999999970217],[0.40614583333333343,0.057037037037036956,0.9744000000059643],[0.42729166666666674,0.09407407407407399,0.9910999999940415],[0.4170833333333334,0.10759259259259263,1.0077999999970189],[0.4076041666666666,0.12759259259259256,1.0245000000000033],[0.3946875000000001,0.12611111111111115,1.041000000000004],[0.38177083333333334,0.12462962962962955,1.0577999999970231],[0.3522916666666667,0.11425925925925934,1.0744000000059586],[0.3228125000000001,0.10388888888888893,1.091200000002985],[0.32999999999999996,0.13703703703703704,1.1099999999999994],[0.31395833333333345,0.14685185185185176,1.1247000000029814],[0.29708333333333337,0.11888888888888897,1.1409999999999982],[0.29708333333333337,0.11888888888888897,1.1577999999970245],[0.2646874999999999,0.08666666666666659,1.17440000000596],[0.24364583333333342,0.09074074074074075,1.1910999999940444],[0.22260416666666671,0.0948148148148149,1.2077000000029798],[0.1837500000000001,0.12555555555555548,1.2244000000059643],[0.1345833333333334,0.1618518518518518,1.2410999999940415],[0.13114583333333343,0.18129629629629626,1.2577999999970189],[0.12958333333333344,0.15092592592592594,1.2744000000059614],[0.11645833333333329,0.1259259259259259,1.2937000000029784],[0.08364583333333328,0.1346296296296297,1.3077999999970231],[0.050833333333333286,0.14333333333333328,1.3244000000059586],[0.02302083333333336,0.1242592592592593,1.341099999994043],[-0.004270833333333357,0.08648148148148156,1.3577000000029784],[-0.01260416666666669,0.0492592592592593,1.3744000000059629],[-0.015208333333333357,-0.01518518518518527,1.3909999999999982],[-0.0296875,-0.09203703703703701,1.4077000000029827],[-0.03093750000000005,-0.1507407407407407,1.4262000000029786],[-0.016875000000000046,-0.1816666666666667,1.4410999999940444],[-0.02312500000000005,-0.20314814814814813,1.4582000000029822],[-0.0015625,-0.22537037037037036,1.477599999994041],[0.036145833333333384,-0.2383333333333333,1.4912000000029835],[0.10760416666666663,-0.2505555555555556,1.5077999999970189],[0.1790625000000001,-0.2627777777777777,1.5242999999970195],[0.23156249999999995,-0.27555555555555555,1.541000000000004],[0.25416666666666665,-0.30999999999999994,1.5609000000059652],[0.28229166666666666,-0.33796296296296297,1.5757999999970238],[0.29447916666666674,-0.3496296296296296,1.5929000000059617],[0.32145833333333323,-0.32888888888888895,1.6077999999970203],[0.3549999999999999,-0.34018518518518515,1.6244000000059629],[0.3633333333333333,-0.36203703703703705,1.64109999999404],[0.3736458333333334,-0.3890740740740741,1.6609000000059595],[0.38479166666666675,-0.3559259259259259,1.67440000000596],[0.3703125,-0.3383333333333333,1.6910000000000025],[0.37999999999999995,-0.3140740740740741,1.7079000000059636],[0.41208333333333325,-0.2759259259259259,1.7244000000059643],[0.4405208333333334,-0.2375925925925926,1.7409999999999997],[0.4405208333333334,-0.2375925925925926,1.7579000000059608],[0.4836458333333333,-0.23148148148148148,1.7764000000059639],[0.48291666666666655,-0.24611111111111106,1.7910999999940387],[0.5257291666666667,-0.2257407407407407,1.8077000000029813],[0.5685416666666666,-0.20537037037037034,1.8244000000059586],[0.5791666666666667,-0.19500000000000003,1.841099999994043],[0.5791666666666667,-0.19500000000000003,1.8577999999970203],[0.565625,-0.21370370370370367,1.8767000000029839],[0.5675,-0.19074074074074074,1.89109999999404],[0.5778125000000001,-0.16425925925925924,1.9079000000059594],[0.595625,-0.12999999999999998,1.92440000000596],[0.595625,-0.12999999999999998,1.9410999999940444],[0.6339583333333333,-0.09592592592592594,1.9579000000059636],[0.6451041666666666,-0.05462962962962963,1.9749000000059596],[0.6701041666666666,-0.004074074074074159,1.9910999999940415],[0.6653125000000001,0.034074074074074034,2.007700000002984],[0.6616666666666667,0.0838888888888888,2.025599999994043],[0.6262500000000001,0.14759259259259266,2.041000000000004],[0.5909375,0.21148148148148158,2.057799999997023],[0.5681250000000001,0.23166666666666672,2.0744000000059586],[0.5127083333333334,0.24166666666666667,2.091099999994043],[0.4310416666666666,0.24462962962962967,2.1077999999970203],[0.3459374999999999,0.25333333333333324,2.1265],[0.3459374999999999,0.25333333333333324,2.14109999999404],[0.28114583333333343,0.24888888888888885,2.1577999999970245],[0.28114583333333343,0.24888888888888885,2.17440000000596],[0.20125000000000004,0.26425925925925936,2.1910999999940444],[0.20125000000000004,0.26425925925925936,2.2077999999970217],[0.146875,0.26481481481481484,2.2244000000059643],[0.146875,0.26481481481481484,2.2409999999999997],[0.07947916666666661,0.2518518518518518,2.257799999997019],[0.07947916666666661,0.2518518518518518,2.2744000000059614],[0.11322916666666671,0.2442592592592592,2.2912999999970225],[0.11177083333333329,0.19537037037037036,2.3127999999970186],[0.11177083333333329,0.19537037037037036,2.3247000000029843],[0.115625,0.1648148148148148,2.341200000002985],[0.11677083333333324,0.13759259259259252,2.358200000002981],[0.11760416666666676,0.11388888888888889,2.378799999997021],[0.17135416666666667,0.0824074074074074,2.393599999994038],[0.20197916666666677,0.069074074074074,2.4079000000059594],[0.2690624999999999,0.032777777777777864,2.426700000002981],[0.28458333333333335,-0.007962962962962878,2.4424000000059607],[0.31197916666666664,-0.04685185185185177,2.458299999997024],[0.2859375,-0.09000000000000004,2.4779000000059597],[0.3029166666666666,-0.10388888888888893,2.492400000005965],[0.2759375000000001,-0.09518518518518514,2.507799999997026],[0.2516666666666666,-0.08981481481481482,2.527799999997022],[0.3038541666666667,-0.09851851851851849,2.541700000002983],[0.29541666666666655,-0.08388888888888892,2.5589000000059556],[0.3203125,-0.08962962962962959,2.5745000000000076],[0.321875,-0.09111111111111109,2.5945000000000036],[0.32697916666666677,-0.08962962962962959,2.6084000000059646],[0.33718750000000003,-0.08574074074074076,2.6245999999940395],[0.3367708333333333,-0.11185185185185181,2.641200000002975],[0.3367708333333333,-0.11185185185185181,2.66129999999702],[0.3341666666666666,-0.11537037037037039,2.674500000000002],[0.37822916666666656,-0.11888888888888886,2.6915999999940468],[0.43729166666666663,-0.10888888888888891,2.7079000000059565],[0.4552083333333333,-0.08648148148148146,2.7264999999999944],[0.4514583333333334,-0.10351851851851848,2.7425999999940345],[0.39177083333333323,-0.14611111111111108,2.7595999999940446],[0.3320833333333333,-0.18870370370370365,2.777799999997022],[0.29322916666666665,-0.19907407407407407,2.793099999994034],[0.24927083333333327,-0.21185185185185182,2.807799999997023],[0.2303124999999999,-0.20277777777777778,2.8267000000029796],[0.21343750000000009,-0.20703703703703705,2.8415999999940382],[0.1853125000000001,-0.23203703703703707,2.8605999999940437],[0.15760416666666663,-0.27388888888888885,2.8779000000059582],[0.1330208333333334,-0.32611111111111113,2.8925000000000054],[0.1134375000000001,-0.31574074074074077,2.9077999999970174],[0.12895833333333329,-0.2874074074074074,2.924500000000002],[0.1736458333333334,-0.25870370370370366,2.946599999994042],[0.1736458333333334,-0.25870370370370366,2.9577999999970146],[0.22041666666666657,-0.2692592592592592,2.9744000000059643],[0.25812499999999994,-0.2627777777777777,2.9910000000000068],[0.28875000000000006,-0.2511111111111112,3.007700000002977],[0.30583333333333323,-0.2433333333333333,3.0244000000059614],[0.3633333333333333,-0.21148148148148146,3.041000000000004],[0.3633333333333333,-0.21148148148148146,3.057799999997023],[0.40593750000000006,-0.18037037037037032,3.0765999999940377],[0.40739583333333323,-0.16740740740740737,3.0912999999970268],[0.45114583333333325,-0.22814814814814813,3.1077999999970203],[0.5004166666666667,-0.2753703703703704,3.1277999999970163],[0.4990624999999999,-0.307962962962963,3.14259999999404],[0.4861458333333334,-0.25166666666666665,3.1584999999999965],[0.4882291666666667,-0.23962962962962958,3.174500000000002],[0.4664583333333333,-0.182962962962963,3.194499999999998],[0.4599999999999999,-0.2022222222222222,3.2095999999940474],[0.4189583333333334,-0.23351851851851857,3.2244000000059643],[0.37739583333333326,-0.2607407407407408,3.2424999999999997],[0.371875,-0.27018518518518514,3.263299999997024],[0.37395833333333334,-0.2614814814814815,3.2799000000059593],[0.34697916666666656,-0.24666666666666665,3.2937999999970273],[0.3330208333333334,-0.24444444444444444,3.307799999997023],[0.3302083333333333,-0.30777777777777776,3.3247000000029843],[0.37312500000000004,-0.35055555555555556,3.3445000000000036],[0.37312500000000004,-0.35055555555555556,3.3579000000059622],[0.3954166666666666,-0.4418518518518519,3.3744000000059557],[0.4317708333333333,-0.46296296296296297,3.3909999999999982],[0.4744791666666667,-0.5242592592592593,3.4077000000029827],[0.5171875,-0.5855555555555555,3.424299999997025],[0.5210416666666667,-0.6059259259259259,3.4409999999999954],[0.5299999999999999,-0.6087037037037036,3.4577999999970146],[0.52,-0.6346296296296297,3.4779000000059668],[0.5184375,-0.662962962962963,3.496799999997016],[0.5621875000000001,-0.6655555555555556,3.5112999999970143],[0.5542708333333333,-0.6614814814814814,3.5260000000000034],[0.5816666666666668,-0.6596296296296296,3.541000000000004],[0.5790625000000001,-0.6387037037037037,3.5577000000029884],[0.5652083333333332,-0.5922222222222222,3.5747000000029843],[0.5642708333333334,-0.5468518518518519,3.591000000000001],[0.6228125000000001,-0.5562962962962963,3.6077000000029855],[0.6237499999999999,-0.5322222222222222,3.6245000000000047],[0.7017708333333333,-0.49296296296296294,3.6422000000029797],[0.7797916666666665,-0.4537037037037037,3.658200000002985],[0.7608333333333335,-0.49981481481481477,3.674400000005967],[0.7623958333333334,-0.5446296296296297,3.6917000000029745],[0.73,-0.5785185185185184,3.70770000000298],[0.7040625000000001,-0.6190740740740741,3.7244000000059643],[0.7065625,-0.6687037037037038,3.743000000000002],[0.7065625,-0.6687037037037038,3.7674000000059564],[0.6961458333333332,-0.7172222222222222,3.7852000000029804],[0.6961458333333332,-0.7172222222222222,3.7915000000000063],[0.6569791666666667,-0.7316666666666667,3.8077000000029884],[0.6505208333333333,-0.7875925925925926,3.8244000000059586],[0.589375,-0.8672222222222222,3.841099999994036],[0.5120833333333332,-0.9081481481481481,3.8609000000059623],[0.5109375,-0.9146296296296296,3.8745000000000047],[0.5109375,-0.9146296296296296,3.8909999999999982],[0.4896874999999999,-0.922037037037037,3.9100000000000037],[0.5159374999999999,-0.9264814814814815,3.924500000000002],[0.5159374999999999,-0.9264814814814815,3.941299999997021],[0.5421875,-0.9309259259259259,3.9602999999970265],[0.4951041666666666,-0.9116666666666667,3.974499999999999],[0.49104166666666677,-0.8835185185185186,3.992400000005965],[0.47416666666666674,-0.8611111111111112,4.007799999997026],[0.4818749999999999,-0.8090740740740741,4.02620000000298],[0.4787499999999999,-0.7574074074074074,4.041200000002981],[0.4787499999999999,-0.7574074074074074,4.058],[0.4917708333333332,-0.7444444444444445,4.074400000005959],[0.4632291666666667,-0.6888888888888889,4.091099999994036],[0.46812500000000007,-0.6596296296296296,4.10779999999702],[0.45947916666666655,-0.6442592592592592,4.124400000005956],[0.45947916666666655,-0.6442592592592592,4.141099999994047],[0.4110416666666666,-0.6114814814814815,4.157900000005959],[0.4110416666666666,-0.6114814814814815,4.174400000005967],[0.3377083333333334,-0.6503703703703704,4.191099999994044],[0.2171875,-0.6827777777777777,4.211299999997017],[0.2171875,-0.6827777777777777,4.224400000005964],[0.11083333333333342,-0.7137037037037036,4.2410999999940415],[0.11083333333333342,-0.7137037037037036,4.257700000002977],[-0.012812499999999952,-0.7644444444444445,4.274400000005961],[-0.012812499999999952,-0.7644444444444445,4.291000000000004],[-0.11010416666666671,-0.7559259259259259,4.307700000002988],[-0.11010416666666671,-0.7559259259259259,4.324299999997017],[-0.22927083333333337,-0.7627777777777778,4.341099999994036],[-0.22927083333333337,-0.7627777777777778,4.35779999999702],[-0.33781249999999996,-0.7592592592592593,4.374299999997028],[-0.47010416666666666,-0.7361111111111112,4.391099999994047]]","[0.00020000000298381337,0.040500000000001535,0.0667000000029816,0.07729999999702386,0.0912000000029849,0.10779999999702028,0.12450000000000472,0.1410999999940401,0.15790000000595938,0.17440000000596,0.19109999999404437,0.2077999999970217,0.22449999999999903,0.24109999999404153,0.2579000000059608,0.2745000000000033,0.2910999999940387,0.3077999999970231,0.3244000000059586,0.34109999999404295,0.3579000000059622,0.37440000000596285,0.39120000000298205,0.40779999999702454,0.4245000000000019,0.44109999999404437,0.4579999999999984,0.47449999999999903,0.4910999999940415,0.5105999999940423,0.5252000000029824,0.5412000000029806,0.5605000000000047,0.5745999999940423,0.5912999999970197,0.6077999999970203,0.6267000000029839,0.6414000000059588,0.6595000000000013,0.6772000000029834,0.6912999999970211,0.7079000000059636,0.7265000000000015,0.7412000000029835,0.7582000000029794,0.7745999999940381,0.7929000000059645,0.8079000000059651,0.8269000000059634,0.8434999999999988,0.8582999999970227,0.8745999999940395,0.8930999999940425,0.9077000000029827,0.9269000000059648,0.9430999999940397,0.9577999999970217,0.9744000000059643,0.9910999999940415,1.0077999999970189,1.0245000000000033,1.041000000000004,1.0577999999970231,1.0744000000059586,1.091200000002985,1.1099999999999994,1.1247000000029814,1.1409999999999982,1.1577999999970245,1.17440000000596,1.1910999999940444,1.2077000000029798,1.2244000000059643,1.2410999999940415,1.2577999999970189,1.2744000000059614,1.2937000000029784,1.3077999999970231,1.3244000000059586,1.341099999994043,1.3577000000029784,1.3744000000059629,1.3909999999999982,1.4077000000029827,1.4262000000029786,1.4410999999940444,1.4582000000029822,1.477599999994041,1.4912000000029835,1.5077999999970189,1.5242999999970195,1.541000000000004,1.5609000000059652,1.5757999999970238,1.5929000000059617,1.6077999999970203,1.6244000000059629,1.64109999999404,1.6609000000059595,1.67440000000596,1.6910000000000025,1.7079000000059636,1.7244000000059643,1.7409999999999997,1.7579000000059608,1.7764000000059639,1.7910999999940387,1.8077000000029813,1.8244000000059586,1.841099999994043,1.8577999999970203,1.8767000000029839,1.89109999999404,1.9079000000059594,1.92440000000596,1.9410999999940444,1.9579000000059636,1.9749000000059596,1.9910999999940415,2.007700000002984,2.025599999994043,2.041000000000004,2.057799999997023,2.0744000000059586,2.091099999994043,2.1077999999970203,2.1265,2.14109999999404,2.1577999999970245,2.17440000000596,2.1910999999940444,2.2077999999970217,2.2244000000059643,2.2409999999999997,2.257799999997019,2.2744000000059614,2.2912999999970225,2.3127999999970186,2.3247000000029843,2.341200000002985,2.358200000002981,2.378799999997021,2.393599999994038,2.4079000000059594,2.426700000002981,2.4424000000059607,2.458299999997024,2.4779000000059597,2.492400000005965,2.507799999997026,2.527799999997022,2.541700000002983,2.5589000000059556,2.5745000000000076,2.5945000000000036,2.6084000000059646,2.6245999999940395,2.641200000002975,2.66129999999702,2.674500000000002,2.6915999999940468,2.7079000000059565,2.7264999999999944,2.7425999999940345,2.7595999999940446,2.777799999997022,2.793099999994034,2.807799999997023,2.8267000000029796,2.8415999999940382,2.8605999999940437,2.8779000000059582,2.8925000000000054,2.9077999999970174,2.924500000000002,2.946599999994042,2.9577999999970146,2.9744000000059643,2.9910000000000068,3.007700000002977,3.0244000000059614,3.041000000000004,3.057799999997023,3.0765999999940377,3.0912999999970268,3.1077999999970203,3.1277999999970163,3.14259999999404,3.1584999999999965,3.174500000000002,3.194499999999998,3.2095999999940474,3.2244000000059643,3.2424999999999997,3.263299999997024,3.2799000000059593,3.2937999999970273,3.307799999997023,3.3247000000029843,3.3445000000000036,3.3579000000059622,3.3744000000059557,3.3909999999999982,3.4077000000029827,3.424299999997025,3.4409999999999954,3.4577999999970146,3.4779000000059668,3.496799999997016,3.5112999999970143,3.5260000000000034,3.541000000000004,3.5577000000029884,3.5747000000029843,3.591000000000001,3.6077000000029855,3.6245000000000047,3.6422000000029797,3.658200000002985,3.674400000005967,3.6917000000029745,3.70770000000298,3.7244000000059643,3.743000000000002,3.7674000000059564,3.7852000000029804,3.7915000000000063,3.8077000000029884,3.8244000000059586,3.841099999994036,3.8609000000059623,3.8745000000000047,3.8909999999999982,3.9100000000000037,3.924500000000002,3.941299999997021,3.9602999999970265,3.974499999999999,3.992400000005965,4.007799999997026,4.02620000000298,4.041200000002981,4.058,4.074400000005959,4.091099999994036,4.10779999999702,4.124400000005956,4.141099999994047,4.157900000005959,4.174400000005967,4.191099999994044,4.211299999997017,4.224400000005964,4.2410999999940415,4.257700000002977,4.274400000005961,4.291000000000004,4.307700000002988,4.324299999997017,4.341099999994036,4.35779999999702,4.374299999997028,4.391099999994047]","[1733194876400,1733194876433,1733194876459,1733194876470,1733194876484,1733194876500,1733194876517,1733194876534,1733194876550,1733194876567,1733194876584,1733194876600,1733194876617,1733194876634,1733194876650,1733194876667,1733194876684,1733194876700,1733194876717,1733194876734,1733194876750,1733194876767,1733194876784,1733194876800,1733194876817,1733194876834,1733194876851,1733194876867,1733194876884,1733194876903,1733194876918,1733194876934,1733194876953,1733194876967,1733194876984,1733194877000,1733194877019,1733194877034,1733194877052,1733194877070,1733194877084,1733194877100,1733194877119,1733194877134,1733194877151,1733194877167,1733194877185,1733194877200,1733194877219,1733194877236,1733194877251,1733194877267,1733194877286,1733194877300,1733194877319,1733194877336,1733194877350,1733194877367,1733194877384,1733194877400,1733194877417,1733194877434,1733194877450,1733194877467,1733194877484,1733194877503,1733194877517,1733194877534,1733194877550,1733194877567,1733194877584,1733194877600,1733194877617,1733194877634,1733194877650,1733194877667,1733194877686,1733194877700,1733194877717,1733194877734,1733194877750,1733194877767,1733194877784,1733194877800,1733194877819,1733194877834,1733194877851,1733194877870,1733194877884,1733194877900,1733194877917,1733194877934,1733194877953,1733194877968,1733194877985,1733194878000,1733194878017,1733194878034,1733194878053,1733194878067,1733194878084,1733194878100,1733194878117,1733194878134,1733194878150,1733194878169,1733194878184,1733194878200,1733194878217,1733194878234,1733194878250,1733194878269,1733194878284,1733194878300,1733194878317,1733194878334,1733194878350,1733194878367,1733194878384,1733194878400,1733194878418,1733194878434,1733194878450,1733194878467,1733194878484,1733194878500,1733194878519,1733194878534,1733194878550,1733194878567,1733194878584,1733194878600,1733194878617,1733194878634,1733194878650,1733194878667,1733194878684,1733194878705,1733194878717,1733194878734,1733194878751,1733194878771,1733194878786,1733194878800,1733194878819,1733194878835,1733194878851,1733194878870,1733194878885,1733194878900,1733194878920,1733194878934,1733194878951,1733194878967,1733194878987,1733194879001,1733194879017,1733194879034,1733194879054,1733194879067,1733194879084,1733194879100,1733194879119,1733194879135,1733194879152,1733194879170,1733194879186,1733194879200,1733194879219,1733194879234,1733194879253,1733194879270,1733194879285,1733194879300,1733194879317,1733194879339,1733194879350,1733194879367,1733194879384,1733194879400,1733194879417,1733194879434,1733194879450,1733194879469,1733194879484,1733194879500,1733194879520,1733194879535,1733194879551,1733194879567,1733194879587,1733194879602,1733194879617,1733194879635,1733194879656,1733194879672,1733194879686,1733194879700,1733194879717,1733194879737,1733194879750,1733194879767,1733194879784,1733194879800,1733194879817,1733194879834,1733194879850,1733194879870,1733194879889,1733194879904,1733194879919,1733194879934,1733194879950,1733194879967,1733194879984,1733194880000,1733194880017,1733194880035,1733194880051,1733194880067,1733194880084,1733194880100,1733194880117,1733194880136,1733194880160,1733194880178,1733194880184,1733194880200,1733194880217,1733194880234,1733194880253,1733194880267,1733194880284,1733194880303,1733194880317,1733194880334,1733194880353,1733194880367,1733194880385,1733194880400,1733194880419,1733194880434,1733194880451,1733194880467,1733194880484,1733194880500,1733194880517,1733194880534,1733194880550,1733194880567,1733194880584,1733194880604,1733194880617,1733194880634,1733194880650,1733194880667,1733194880684,1733194880700,1733194880717,1733194880734,1733194880750,1733194880767,1733194880784]","[[972.4,585.6],[972.4,585.6],[972.9,606.2],[972.9,606.2],[984.8,587.8],[984.8,587.8],[966.4,575.7],[966.4,575.7],[940,555.1],[940,555.1],[909.6,528.4],[909.6,528.4],[863.2,495.7],[863.2,495.7],[791.5,494.4],[791.5,494.4],[758.8,495.6],[758.8,495.6],[742.3,510.7],[722.6,525],[722.6,525],[680.1,533.5],[625.7,532.6],[564.6,525.3],[538.9,518.6],[550.6,515.6],[550.6,515.6],[560.5,526.5],[558.9,534],[516.5,518.6],[561.6,517.9],[604.6,513.9],[604.6,513.9],[652.7,504.8],[703.3,496],[750.5,480.7],[750.5,480.7],[787,490.1],[801.5,489.5],[865.3,492.4],[918.1,485.1],[1030.4,503.7],[1082.1,512.8],[1108.8,507],[1143.7,506],[1188,517.6],[1235.3,532.2],[1265.2,527.6],[1305,533.3],[1332,530.8],[1361.3,527.9],[1366.4,521.1],[1371.5,514.3],[1375.7,539.6],[1367.4,559.5],[1335,553],[1341.7,550.5],[1349.9,570.8],[1370.2,590.8],[1360.4,598.1],[1351.3,608.9],[1338.9,608.1],[1326.5,607.3],[1298.2,601.7],[1269.9,596.1],[1276.8,614],[1261.4,619.3],[1245.2,604.2],[1245.2,604.2],[1214.1,586.8],[1193.9,589],[1173.7,591.2],[1136.4,607.8],[1089.2,627.4],[1085.9,637.9],[1084.4,621.5],[1071.8,608],[1040.3,612.7],[1008.8,617.4],[982.1,607.1],[955.9,586.7],[947.9,566.6],[945.4,531.8],[931.5,490.3],[930.3,458.6],[943.8,441.9],[937.8,430.3],[958.5,418.3],[994.7,411.3],[1063.3,404.7],[1131.9,398.1],[1182.3,391.2],[1204,372.6],[1231,357.5],[1242.7,351.2],[1268.6,362.4],[1300.8,356.3],[1308.8,344.5],[1318.7,329.9],[1329.4,347.8],[1315.5,357.3],[1324.8,370.4],[1355.6,391],[1382.9,411.7],[1382.9,411.7],[1424.3,415],[1423.6,407.1],[1464.7,418.1],[1505.8,429.1],[1516,434.7],[1516,434.7],[1503,424.6],[1504.8,437],[1514.7,451.3],[1531.8,469.8],[1531.8,469.8],[1568.6,488.2],[1579.3,510.5],[1603.3,537.8],[1598.7,558.4],[1595.2,585.3],[1561.2,619.7],[1527.3,654.2],[1505.4,665.1],[1452.2,670.5],[1373.8,672.1],[1292.1,676.8],[1292.1,676.8],[1229.9,674.4],[1229.9,674.4],[1153.2,682.7],[1153.2,682.7],[1101,683],[1101,683],[1036.3,676],[1036.3,676],[1068.7,671.9],[1067.3,645.5],[1067.3,645.5],[1071,629],[1072.1,614.3],[1072.9,601.5],[1124.5,584.5],[1153.9,577.3],[1218.3,557.7],[1233.2,535.7],[1259.5,514.7],[1234.5,491.4],[1250.8,483.9],[1224.9,488.6],[1201.6,491.5],[1251.7,486.8],[1243.6,494.7],[1267.5,491.6],[1269,490.8],[1273.9,491.6],[1283.7,493.7],[1283.3,479.6],[1283.3,479.6],[1280.8,477.7],[1323.1,475.8],[1379.8,481.2],[1397,493.3],[1393.4,484.1],[1336.1,461.1],[1278.8,438.1],[1241.5,432.5],[1199.3,425.6],[1181.1,430.5],[1164.9,428.2],[1137.9,414.7],[1111.3,392.1],[1087.7,363.9],[1068.9,369.5],[1083.8,384.8],[1126.7,400.3],[1126.7,400.3],[1171.6,394.6],[1207.8,398.1],[1237.2,404.4],[1253.6,408.6],[1308.8,425.8],[1308.8,425.8],[1349.7,442.6],[1351.1,449.6],[1393.1,416.8],[1440.4,391.3],[1439.1,373.7],[1426.7,404.1],[1428.7,410.6],[1407.8,441.2],[1401.6,430.8],[1362.2,413.9],[1322.3,399.2],[1317,394.1],[1319,398.8],[1293.1,406.8],[1279.7,408],[1277,373.8],[1318.2,350.7],[1318.2,350.7],[1339.6,301.4],[1374.5,290],[1415.5,256.9],[1456.5,223.8],[1460.2,212.8],[1468.8,211.3],[1459.2,197.3],[1457.7,182],[1499.7,180.6],[1492.1,182.8],[1518.4,183.8],[1515.9,195.1],[1502.6,220.2],[1501.7,244.7],[1557.9,239.6],[1558.8,252.6],[1633.7,273.8],[1708.6,295],[1690.4,270.1],[1691.9,245.9],[1660.8,227.6],[1635.9,205.7],[1638.3,178.9],[1638.3,178.9],[1628.3,152.7],[1628.3,152.7],[1590.7,144.9],[1584.5,114.7],[1525.8,71.7],[1451.6,49.6],[1450.5,46.1],[1450.5,46.1],[1430.1,42.1],[1455.3,39.7],[1455.3,39.7],[1480.5,37.3],[1435.3,47.7],[1431.4,62.9],[1415.2,75],[1422.6,103.1],[1419.6,131],[1419.6,131],[1432.1,138],[1404.7,168],[1409.4,183.8],[1401.1,192.1],[1401.1,192.1],[1354.6,209.8],[1354.6,209.8],[1284.2,188.8],[1168.5,171.3],[1168.5,171.3],[1066.4,154.6],[1066.4,154.6],[947.7,127.2],[947.7,127.2],[854.3,131.8],[854.3,131.8],[739.9,128.1],[739.9,128.1],[635.7,130],[508.7,142.5]]","[0,0.5333]","[0.5333,0.5333]","[-0.5333,-0.5333]","[-0.5333,0]","[0,-0.5333]","[0.5333,-0.5333]","[0,0]","[0.5333,0]",0,0,0,0,1,4,Monitor,11,5,13,9
