inst1_resp.keys,inst1_resp.rt,calibrationMouse.x,calibrationMouse.y,calibrationMouse.leftButton,calibrationMouse.midButton,calibrationMouse.rightButton,calibrationClick.x,calibrationClick.y,calibrationClick.leftButton,calibrationClick.midButton,calibrationClick.rightButton,calibrationClick.clicked_name,trialsc.thisRepN,trialsc.thisTrialN,trialsc.thisN,trialsc.thisIndex,trialsc.ran,calibration_x,calibration_y,participant,session,date,expName,psychopyVersion,OS,frameRate,ScreenRes_pixels,Camera_pixels,mouse_2.x,mouse_2.y,mouse_2.leftButton,mouse_2.midButton,mouse_2.rightButton,mouse_2.time,mouse_2.clicked_name,mouse.x,mouse.y,mouse.leftButton,mouse.midButton,mouse.rightButton,mouse.time,mouse.clicked_name,Choice,Trial,TrialDuration,MOUSE_GAZE,ET_GAZE,ET_GAZE_x_T,time,unixTime,ET_GAZE_NF,Loc_Option1_label,Loc_Option2_label,Loc_Cost_label,Loc_Qual_label,Loc_Option1_cost,Loc_Option2_cost,Loc_Option1_quality,Loc_Option2_quality,trials.thisRepN,trials.thisTrialN,trials.thisN,trials.thisIndex,trials.ran,Block,Device,cost1,qual1,cost2,qual2
space,3.5829,0.28125,-0.035185185,1,0,0,0.333333333,-0.324074074,1,0,0,calibration_square,0,0,0,15,1,0.33,-0.33,25,001,2024-12-03_14h18.17.700,Attention_exp_legacy,2023.1.0,Win32,60.24096386,,,,,,,,,,,,,,,,,,,,,,,,,,,,,,,,,,,,,,,,,,,,
,,,,,,,-0.682291667,-0.681481481,1,0,0,,0,1,1,0,1,-0.67,-0.67,25,001,2024-12-03_14h18.17.700,Attention_exp_legacy,2023.1.0,Win32,60.24096386,,,,,,,,,,,,,,,,,,,,,,,,,,,,,,,,,,,,,,,,,,,,
,,,,,,,-0.3375,0.666666667,1,0,0,calibration_square,0,2,2,8,1,-0.33,0.67,25,001,2024-12-03_14h18.17.700,Attention_exp_legacy,2023.1.0,Win32,60.24096386,,,,,,,,,,,,,,,,,,,,,,,,,,,,,,,,,,,,,,,,,,,,
,,,,,,,0.323958333,0.672222222,1,0,0,calibration_square,0,3,3,18,1,0.33,0.67,25,001,2024-12-03_14h18.17.700,Attention_exp_legacy,2023.1.0,Win32,60.24096386,,,,,,,,,,,,,,,,,,,,,,,,,,,,,,,,,,,,,,,,,,,,
,,,,,,,0.670833333,-0.666666667,1,0,0,calibration_square,0,4,4,20,1,0.67,-0.67,25,001,2024-12-03_14h18.17.700,Attention_exp_legacy,2023.1.0,Win32,60.24096386,,,,,,,,,,,,,,,,,,,,,,,,,,,,,,,,,,,,,,,,,,,,
,,,,,,,0.319791667,0.344444444,1,0,0,,0,5,5,17,1,0.33,0.33,25,001,2024-12-03_14h18.17.700,Attention_exp_legacy,2023.1.0,Win32,60.24096386,,,,,,,,,,,,,,,,,,,,,,,,,,,,,,,,,,,,,,,,,,,,
,,,,,,,-0.34375,0.333333333,1,0,0,,0,6,6,7,1,-0.33,0.33,25,001,2024-12-03_14h18.17.700,Attention_exp_legacy,2023.1.0,Win32,60.24096386,,,,,,,,,,,,,,,,,,,,,,,,,,,,,,,,,,,,,,,,,,,,
,,,,,,,-0.003125,-0.661111111,1,0,0,calibration_square,0,7,7,9,1,0,-0.67,25,001,2024-12-03_14h18.17.700,Attention_exp_legacy,2023.1.0,Win32,60.24096386,,,,,,,,,,,,,,,,,,,,,,,,,,,,,,,,,,,,,,,,,,,,
,,,,,,,-0.33125,-0.666666667,1,0,0,calibration_square,0,8,8,4,1,-0.33,-0.67,25,001,2024-12-03_14h18.17.700,Attention_exp_legacy,2023.1.0,Win32,60.24096386,,,,,,,,,,,,,,,,,,,,,,,,,,,,,,,,,,,,,,,,,,,,
,,,,,,,-0.332291667,0.011111111,1,0,0,,0,9,9,6,1,-0.33,0,25,001,2024-12-03_14h18.17.700,Attention_exp_legacy,2023.1.0,Win32,60.24096386,,,,,,,,,,,,,,,,,,,,,,,,,,,,,,,,,,,,,,,,,,,,
,,,,,,,-0.336458333,-0.340740741,1,0,0,,0,10,10,5,1,-0.33,-0.33,25,001,2024-12-03_14h18.17.700,Attention_exp_legacy,2023.1.0,Win32,60.24096386,,,,,,,,,,,,,,,,,,,,,,,,,,,,,,,,,,,,,,,,,,,,
,,,,,,,0.332291667,-0.664814815,1,0,0,calibration_square,0,11,11,14,1,0.33,-0.67,25,001,2024-12-03_14h18.17.700,Attention_exp_legacy,2023.1.0,Win32,60.24096386,,,,,,,,,,,,,,,,,,,,,,,,,,,,,,,,,,,,,,,,,,,,
,,,,,,,0.002083333,0.009259259,1,0,0,calibration_square,0,12,12,11,1,0,0,25,001,2024-12-03_14h18.17.700,Attention_exp_legacy,2023.1.0,Win32,60.24096386,,,,,,,,,,,,,,,,,,,,,,,,,,,,,,,,,,,,,,,,,,,,
,,,,,,,-0.66875,0.335185185,1,0,0,calibration_square,0,13,13,3,1,-0.67,0.33,25,001,2024-12-03_14h18.17.700,Attention_exp_legacy,2023.1.0,Win32,60.24096386,,,,,,,,,,,,,,,,,,,,,,,,,,,,,,,,,,,,,,,,,,,,
,,,,,,,0.332291667,0.009259259,1,0,0,calibration_square,0,14,14,16,1,0.33,0,25,001,2024-12-03_14h18.17.700,Attention_exp_legacy,2023.1.0,Win32,60.24096386,,,,,,,,,,,,,,,,,,,,,,,,,,,,,,,,,,,,,,,,,,,,
,,,,,,,-0.008333333,0.674074074,1,0,0,calibration_square,0,15,15,13,1,0,0.67,25,001,2024-12-03_14h18.17.700,Attention_exp_legacy,2023.1.0,Win32,60.24096386,,,,,,,,,,,,,,,,,,,,,,,,,,,,,,,,,,,,,,,,,,,,
,,,,,,,-0.6625,-0.314814815,1,0,0,,0,16,16,1,1,-0.67,-0.33,25,001,2024-12-03_14h18.17.700,Attention_exp_legacy,2023.1.0,Win32,60.24096386,,,,,,,,,,,,,,,,,,,,,,,,,,,,,,,,,,,,,,,,,,,,
,,,,,,,-0.007291667,0.35,1,0,0,,0,17,17,12,1,0,0.33,25,001,2024-12-03_14h18.17.700,Attention_exp_legacy,2023.1.0,Win32,60.24096386,,,,,,,,,,,,,,,,,,,,,,,,,,,,,,,,,,,,,,,,,,,,
,,,,,,,0,-0.312962963,1,0,0,,0,18,18,10,1,0,-0.33,25,001,2024-12-03_14h18.17.700,Attention_exp_legacy,2023.1.0,Win32,60.24096386,,,,,,,,,,,,,,,,,,,,,,,,,,,,,,,,,,,,,,,,,,,,
,,,,,,,0.672916667,0.685185185,1,0,0,,0,19,19,19,1,0.67,0.67,25,001,2024-12-03_14h18.17.700,Attention_exp_legacy,2023.1.0,Win32,60.24096386,,,,,,,,,,,,,,,,,,,,,,,,,,,,,,,,,,,,,,,,,,,,
,,,,,,,-0.671875,0.001851852,1,0,0,calibration_square,0,20,20,2,1,-0.67,0,25,001,2024-12-03_14h18.17.700,Attention_exp_legacy,2023.1.0,Win32,60.24096386,,,,,,,,,,,,,,,,,,,,,,,,,,,,,,,,,,,,,,,,,,,,
,,,,,,,,,,,,,,,,,,,,25,001,2024-12-03_14h18.17.700,Attention_exp_legacy,2023.1.0,Win32,60.24096386,"[1920,1080]","[640,480]",[0.016666666666666666],[-0.5074074074074074],[1],[0],[0],[19.793900000000022],"[""StartButton""]",[0.058333333333333334],[0.37962962962962965],[1],[0],[0],[5.052300000000045],"[""Option1_label""]",Option1_label,1,6.0766,"[[0.004166666666666667,-0.44074074074074077],[0.004166666666666667,-0.44074074074074077],[0.004166666666666667,-0.44074074074074077],[0.004166666666666667,-0.44074074074074077],[0.004166666666666667,-0.44074074074074077],[0.004166666666666667,-0.44074074074074077],[0.004166666666666667,-0.44074074074074077],[0.004166666666666667,-0.44074074074074077],[0.004166666666666667,-0.44074074074074077],[0.004166666666666667,-0.44074074074074077],[0.004166666666666667,-0.44074074074074077],[0.004166666666666667,-0.44074074074074077],[0.004166666666666667,-0.44074074074074077],[0.004166666666666667,-0.44074074074074077],[0.004166666666666667,-0.44074074074074077],[0.004166666666666667,-0.44074074074074077],[0.004166666666666667,-0.44074074074074077],[0.004166666666666667,-0.44074074074074077],[0.004166666666666667,-0.44074074074074077],[0.004166666666666667,-0.44074074074074077],[0.004166666666666667,-0.44074074074074077],[0.004166666666666667,-0.44074074074074077],[0.004166666666666667,-0.44074074074074077],[0.004166666666666667,-0.44074074074074077],[0.004166666666666667,-0.44074074074074077],[0.004166666666666667,-0.44074074074074077],[0.004166666666666667,-0.44074074074074077],[0.004166666666666667,-0.44074074074074077],[0.004166666666666667,-0.44074074074074077],[0.004166666666666667,-0.44074074074074077],[0.004166666666666667,-0.44074074074074077],[0.004166666666666667,-0.44074074074074077],[0.004166666666666667,-0.44074074074074077],[0.004166666666666667,-0.44074074074074077],[0.004166666666666667,-0.44074074074074077],[0.004166666666666667,-0.44074074074074077],[0.004166666666666667,-0.44074074074074077],[0.004166666666666667,-0.44074074074074077],[0.004166666666666667,-0.44074074074074077],[0.004166666666666667,-0.44074074074074077],[0.004166666666666667,-0.44074074074074077],[0.004166666666666667,-0.44074074074074077],[0.004166666666666667,-0.44074074074074077],[0.004166666666666667,-0.44074074074074077],[0.004166666666666667,-0.44074074074074077],[0.004166666666666667,-0.44074074074074077],[0.004166666666666667,-0.44074074074074077],[0.004166666666666667,-0.44074074074074077],[0.004166666666666667,-0.44074074074074077],[0.004166666666666667,-0.44074074074074077],[0.004166666666666667,-0.44074074074074077],[0.004166666666666667,-0.44074074074074077],[0.004166666666666667,-0.44074074074074077],[0.004166666666666667,-0.44074074074074077],[0.004166666666666667,-0.44074074074074077],[0.004166666666666667,-0.44074074074074077],[0.004166666666666667,-0.44074074074074077],[0.004166666666666667,-0.44074074074074077],[0.004166666666666667,-0.44074074074074077],[0.004166666666666667,-0.44074074074074077],[0.004166666666666667,-0.44074074074074077],[0.004166666666666667,-0.44074074074074077],[0.004166666666666667,-0.44074074074074077],[0.004166666666666667,-0.44074074074074077],[0.004166666666666667,-0.44074074074074077],[0.004166666666666667,-0.44074074074074077],[0.004166666666666667,-0.44074074074074077],[0.004166666666666667,-0.44074074074074077],[0.004166666666666667,-0.44074074074074077],[0.004166666666666667,-0.44074074074074077],[0.004166666666666667,-0.44074074074074077],[0.004166666666666667,-0.44074074074074077],[0.004166666666666667,-0.44074074074074077],[0.004166666666666667,-0.44074074074074077],[0.004166666666666667,-0.44074074074074077],[0.004166666666666667,-0.44074074074074077],[0.004166666666666667,-0.44074074074074077],[0.004166666666666667,-0.44074074074074077],[0.004166666666666667,-0.44074074074074077],[0.004166666666666667,-0.44074074074074077],[0.004166666666666667,-0.44074074074074077],[0.004166666666666667,-0.44074074074074077],[0.004166666666666667,-0.44074074074074077],[0.004166666666666667,-0.44074074074074077],[0.004166666666666667,-0.44074074074074077],[0.004166666666666667,-0.44074074074074077],[0.004166666666666667,-0.44074074074074077],[0.004166666666666667,-0.44074074074074077],[0.004166666666666667,-0.44074074074074077],[0.004166666666666667,-0.44074074074074077],[0.004166666666666667,-0.44074074074074077],[0.004166666666666667,-0.44074074074074077],[0.004166666666666667,-0.44074074074074077],[0.004166666666666667,-0.44074074074074077],[0.004166666666666667,-0.44074074074074077],[0.004166666666666667,-0.44074074074074077],[0.004166666666666667,-0.44074074074074077],[0.004166666666666667,-0.44074074074074077],[0.004166666666666667,-0.44074074074074077],[0.004166666666666667,-0.44074074074074077],[0.004166666666666667,-0.44074074074074077],[0.004166666666666667,-0.44074074074074077],[0.004166666666666667,-0.44074074074074077],[0.004166666666666667,-0.44074074074074077],[0.004166666666666667,-0.44074074074074077],[0.004166666666666667,-0.44074074074074077],[0.004166666666666667,-0.44074074074074077],[0.004166666666666667,-0.44074074074074077],[0.004166666666666667,-0.44074074074074077],[0.004166666666666667,-0.44074074074074077],[0.004166666666666667,-0.44074074074074077],[0.004166666666666667,-0.44074074074074077],[0.004166666666666667,-0.44074074074074077],[0.004166666666666667,-0.44074074074074077],[0.004166666666666667,-0.44074074074074077],[0.004166666666666667,-0.44074074074074077],[0.004166666666666667,-0.44074074074074077],[0.004166666666666667,-0.44074074074074077],[0.004166666666666667,-0.44074074074074077],[0.004166666666666667,-0.44074074074074077],[0.004166666666666667,-0.44074074074074077],[0.004166666666666667,-0.44074074074074077],[0.004166666666666667,-0.44074074074074077],[0.004166666666666667,-0.44074074074074077],[0.004166666666666667,-0.44074074074074077],[0.004166666666666667,-0.44074074074074077],[0.004166666666666667,-0.44074074074074077],[0.004166666666666667,-0.44074074074074077],[0.004166666666666667,-0.44074074074074077],[0.004166666666666667,-0.44074074074074077],[0.004166666666666667,-0.44074074074074077],[0.004166666666666667,-0.44074074074074077],[0.004166666666666667,-0.44074074074074077],[0.004166666666666667,-0.44074074074074077],[0.004166666666666667,-0.44074074074074077],[0.004166666666666667,-0.44074074074074077],[0.004166666666666667,-0.44074074074074077],[0.004166666666666667,-0.44074074074074077],[0.004166666666666667,-0.44074074074074077],[0.004166666666666667,-0.44074074074074077],[0.004166666666666667,-0.44074074074074077],[0.004166666666666667,-0.44074074074074077],[0.004166666666666667,-0.44074074074074077],[0.004166666666666667,-0.44074074074074077],[0.004166666666666667,-0.44074074074074077],[0.004166666666666667,-0.44074074074074077],[0.004166666666666667,-0.44074074074074077],[0.004166666666666667,-0.44074074074074077],[0.004166666666666667,-0.44074074074074077],[0.004166666666666667,-0.44074074074074077],[0.004166666666666667,-0.44074074074074077],[0.004166666666666667,-0.44074074074074077],[0.004166666666666667,-0.44074074074074077],[0.004166666666666667,-0.44074074074074077],[0.004166666666666667,-0.44074074074074077],[0.004166666666666667,-0.44074074074074077],[0.004166666666666667,-0.44074074074074077],[0.004166666666666667,-0.44074074074074077],[0.004166666666666667,-0.44074074074074077],[0.004166666666666667,-0.44074074074074077],[0.004166666666666667,-0.44074074074074077],[0.004166666666666667,-0.44074074074074077],[0.004166666666666667,-0.44074074074074077],[0.004166666666666667,-0.44074074074074077],[0.004166666666666667,-0.44074074074074077],[0.004166666666666667,-0.44074074074074077],[0.004166666666666667,-0.44074074074074077],[0.004166666666666667,-0.44074074074074077],[0.004166666666666667,-0.44074074074074077],[0.004166666666666667,-0.44074074074074077],[0.004166666666666667,-0.44074074074074077],[0.004166666666666667,-0.44074074074074077],[0.004166666666666667,-0.44074074074074077],[0.004166666666666667,-0.44074074074074077],[0.004166666666666667,-0.44074074074074077],[0.004166666666666667,-0.44074074074074077],[0.004166666666666667,-0.44074074074074077],[0.004166666666666667,-0.44074074074074077],[0.004166666666666667,-0.44074074074074077],[0.004166666666666667,-0.44074074074074077],[0.004166666666666667,-0.44074074074074077],[0.004166666666666667,-0.44074074074074077],[0.004166666666666667,-0.44074074074074077],[0.004166666666666667,-0.44074074074074077],[0.004166666666666667,-0.44074074074074077],[0.004166666666666667,-0.44074074074074077],[0.004166666666666667,-0.44074074074074077],[0.004166666666666667,-0.44074074074074077],[0.004166666666666667,-0.44074074074074077],[0.004166666666666667,-0.44074074074074077],[0.004166666666666667,-0.44074074074074077],[0.004166666666666667,-0.44074074074074077],[0.004166666666666667,-0.44074074074074077],[0.004166666666666667,-0.44074074074074077],[0.004166666666666667,-0.44074074074074077],[0.004166666666666667,-0.44074074074074077],[0.004166666666666667,-0.44074074074074077],[0.004166666666666667,-0.44074074074074077],[0.004166666666666667,-0.44074074074074077],[0.004166666666666667,-0.44074074074074077],[0.004166666666666667,-0.44074074074074077],[0.004166666666666667,-0.44074074074074077],[0.004166666666666667,-0.44074074074074077],[0.004166666666666667,-0.44074074074074077],[0.004166666666666667,-0.44074074074074077],[0.004166666666666667,-0.44074074074074077],[0.004166666666666667,-0.44074074074074077],[0.004166666666666667,-0.44074074074074077],[0.004166666666666667,-0.44074074074074077],[0.004166666666666667,-0.44074074074074077],[0.004166666666666667,-0.44074074074074077],[0.004166666666666667,-0.44074074074074077],[0.004166666666666667,-0.44074074074074077],[0.004166666666666667,-0.44074074074074077],[0.004166666666666667,-0.44074074074074077],[0.004166666666666667,-0.44074074074074077],[0.004166666666666667,-0.44074074074074077],[0.004166666666666667,-0.44074074074074077],[0.004166666666666667,-0.44074074074074077],[0.004166666666666667,-0.44074074074074077],[0.004166666666666667,-0.44074074074074077],[0.004166666666666667,-0.44074074074074077],[0.004166666666666667,-0.44074074074074077],[0.004166666666666667,-0.44074074074074077],[0.004166666666666667,-0.44074074074074077],[0.004166666666666667,-0.44074074074074077],[0.004166666666666667,-0.44074074074074077],[0.004166666666666667,-0.44074074074074077],[0.004166666666666667,-0.44074074074074077],[0.004166666666666667,-0.44074074074074077],[0.004166666666666667,-0.44074074074074077],[0.004166666666666667,-0.44074074074074077],[0.004166666666666667,-0.44074074074074077],[0.004166666666666667,-0.44074074074074077],[0.004166666666666667,-0.44074074074074077],[0.004166666666666667,-0.44074074074074077],[0.004166666666666667,-0.44074074074074077],[0.004166666666666667,-0.44074074074074077],[0.004166666666666667,-0.44074074074074077],[0.004166666666666667,-0.44074074074074077],[0.004166666666666667,-0.44074074074074077],[0.004166666666666667,-0.44074074074074077],[0.004166666666666667,-0.44074074074074077],[0.004166666666666667,-0.44074074074074077],[0.004166666666666667,-0.44074074074074077],[0.004166666666666667,-0.44074074074074077],[0.004166666666666667,-0.44074074074074077],[0.004166666666666667,-0.44074074074074077],[0.004166666666666667,-0.44074074074074077],[0.004166666666666667,-0.44074074074074077],[0.004166666666666667,-0.44074074074074077],[0.004166666666666667,-0.44074074074074077],[0.004166666666666667,-0.44074074074074077],[0.004166666666666667,-0.44074074074074077],[0.004166666666666667,-0.44074074074074077],[0.004166666666666667,-0.44074074074074077],[0.004166666666666667,-0.44074074074074077],[0.004166666666666667,-0.44074074074074077],[0.004166666666666667,-0.44074074074074077],[0.004166666666666667,-0.44074074074074077],[0.004166666666666667,-0.44074074074074077],[0.004166666666666667,-0.44074074074074077],[0.004166666666666667,-0.44074074074074077],[0.004166666666666667,-0.44074074074074077],[0.004166666666666667,-0.44074074074074077],[0.004166666666666667,-0.44074074074074077],[0.004166666666666667,-0.44074074074074077],[0.004166666666666667,-0.44074074074074077],[0.004166666666666667,-0.44074074074074077],[0.004166666666666667,-0.44074074074074077],[0.004166666666666667,-0.44074074074074077],[0.004166666666666667,-0.44074074074074077],[0.004166666666666667,-0.44074074074074077],[0.004166666666666667,-0.44074074074074077],[0.004166666666666667,-0.44074074074074077],[0.004166666666666667,-0.44074074074074077],[0.004166666666666667,-0.44074074074074077],[0.004166666666666667,-0.44074074074074077],[0.004166666666666667,-0.43703703703703706],[0.009375,-0.4],[0.026041666666666668,-0.3314814814814815],[0.04583333333333333,-0.24444444444444444],[0.06145833333333333,-0.14814814814814814],[0.08020833333333334,-0.018518518518518517],[0.08333333333333333,0.03333333333333333],[0.08333333333333333,0.08148148148148149],[0.08333333333333333,0.12222222222222222],[0.08333333333333333,0.1685185185185185],[0.08333333333333333,0.20925925925925926],[0.08333333333333333,0.24814814814814815],[0.08125,0.2777777777777778],[0.075,0.3074074074074074],[0.07395833333333333,0.32592592592592595],[0.06979166666666667,0.3425925925925926],[0.065625,0.3574074074074074],[0.06354166666666666,0.3648148148148148],[0.0625,0.3685185185185185],[0.06145833333333333,0.3685185185185185],[0.06145833333333333,0.37037037037037035],[0.059375,0.37407407407407406],[0.058333333333333334,0.37592592592592594],[0.058333333333333334,0.37962962962962965],[0.058333333333333334,0.37962962962962965],[0.058333333333333334,0.37962962962962965],[0.058333333333333334,0.37962962962962965],[0.058333333333333334,0.37962962962962965],[0.058333333333333334,0.37962962962962965],[0.058333333333333334,0.37962962962962965],[0.058333333333333334,0.37962962962962965],[0.058333333333333334,0.37962962962962965],[0.058333333333333334,0.37962962962962965],[0.058333333333333334,0.37962962962962965],[0.058333333333333334,0.37962962962962965],[0.058333333333333334,0.37962962962962965],[0.058333333333333334,0.37962962962962965],[0.058333333333333334,0.37962962962962965],[0.058333333333333334,0.37962962962962965],[0.058333333333333334,0.37962962962962965],[0.058333333333333334,0.37962962962962965],[0.058333333333333334,0.37962962962962965],[0.05625,0.37037037037037035],[0.05625,0.362962962962963],[0.05520833333333333,0.3537037037037037],[0.05520833333333333,0.34444444444444444],[0.05416666666666667,0.3314814814814815],[0.053125,0.32407407407407407],[0.052083333333333336,0.31296296296296294],[0.052083333333333336,0.3055555555555556],[0.051041666666666666,0.29444444444444445],[0.05,0.28703703703703703],[0.05,0.2796296296296296],[0.04895833333333333,0.2740740740740741],[0.04895833333333333,0.26851851851851855],[0.04895833333333333,0.26481481481481484],[0.04895833333333333,0.2611111111111111],[0.04791666666666667,0.25555555555555554],[0.04791666666666667,0.2518518518518518],[0.04791666666666667,0.25],[0.04791666666666667,0.2462962962962963],[0.04791666666666667,0.24444444444444444],[0.04791666666666667,0.24259259259259258],[0.046875,0.24074074074074073],[0.046875,0.24074074074074073],[0.046875,0.2388888888888889],[0.046875,0.2388888888888889],[0.046875,0.2388888888888889],[0.046875,0.23703703703703705],[0.046875,0.23703703703703705],[0.046875,0.23703703703703705],[0.046875,0.23703703703703705],[0.046875,0.23703703703703705],[0.046875,0.23703703703703705],[0.046875,0.23703703703703705],[0.046875,0.23703703703703705],[0.046875,0.23703703703703705],[0.046875,0.23703703703703705],[0.046875,0.23703703703703705],[0.046875,0.23703703703703705],[0.046875,0.23703703703703705],[0.046875,0.23703703703703705],[0.046875,0.23703703703703705],[0.046875,0.23703703703703705],[0.046875,0.23703703703703705],[0.046875,0.23703703703703705],[0.046875,0.23703703703703705]]","[[0.3736458333333334,-0.14759259259259258],[0.3736458333333334,-0.14759259259259258],[0.3727083333333333,-0.14833333333333337],[0.3727083333333333,-0.14833333333333337],[0.3419791666666666,-0.13092592592592592],[0.3419791666666666,-0.13092592592592592],[0.3111458333333334,-0.12962962962962962],[0.3111458333333334,-0.12962962962962962],[0.3063541666666666,-0.08555555555555554],[0.3063541666666666,-0.08555555555555554],[0.28114583333333343,-0.13962962962962958],[0.28114583333333343,-0.13962962962962958],[0.25104166666666666,-0.1911111111111111],[0.25104166666666666,-0.1911111111111111],[0.2117708333333333,-0.21870370370370373],[0.2117708333333333,-0.21870370370370373],[0.17229166666666676,-0.2625925925925926],[0.17229166666666676,-0.2625925925925926],[0.17229166666666676,-0.2625925925925926],[0.14427083333333332,-0.2753703703703704],[0.14427083333333332,-0.2753703703703704],[0.1352083333333333,-0.30925925925925923],[0.1352083333333333,-0.30925925925925923],[0.1304166666666667,-0.3272222222222222],[0.1304166666666667,-0.3272222222222222],[0.13895833333333343,-0.35055555555555556],[0.13895833333333343,-0.35055555555555556],[0.14979166666666663,-0.3925925925925926],[0.14979166666666663,-0.3925925925925926],[0.11541666666666663,-0.47981481481481486],[0.11541666666666663,-0.47981481481481486],[0.11541666666666663,-0.47981481481481486],[0.11541666666666663,-0.47981481481481486],[0.11416666666666657,-0.45444444444444443],[0.11416666666666657,-0.45444444444444443],[0.0900000000000001,-0.4401851851851852],[0.0900000000000001,-0.4401851851851852],[0.10270833333333323,-0.4375925925925926],[0.10270833333333323,-0.4375925925925926],[0.07708333333333334,-0.4842592592592593],[0.07708333333333334,-0.4842592592592593],[0.04114583333333333,-0.532962962962963],[0.04114583333333333,-0.532962962962963],[-0.06583333333333338,-0.5944444444444444],[-0.06583333333333338,-0.5944444444444444],[-0.11479166666666671,-0.6248148148148148],[-0.11479166666666671,-0.6248148148148148],[-0.17979166666666668,-0.6453703703703704],[-0.17979166666666668,-0.6453703703703704],[-0.23322916666666665,-0.6225925925925926],[-0.23322916666666665,-0.6225925925925926],[-0.2616666666666667,-0.6037037037037037],[-0.2616666666666667,-0.6037037037037037],[-0.28718750000000004,-0.5674074074074074],[-0.28718750000000004,-0.5674074074074074],[-0.3289583333333333,-0.6366666666666667],[-0.3289583333333333,-0.6366666666666667],[-0.3536458333333333,-0.6283333333333333],[-0.3536458333333333,-0.6283333333333333],[-0.380625,-0.6431481481481481],[-0.380625,-0.6431481481481481],[-0.3988541666666666,-0.6874074074074074],[-0.3988541666666666,-0.6874074074074074],[-0.3571875,-0.7042592592592593],[-0.38343750000000004,-0.7703703703703704],[-0.3609375,-0.8361111111111111],[-0.3609375,-0.8361111111111111],[-0.3403125000000001,-0.8637037037037036],[-0.3403125000000001,-0.8637037037037036],[-0.31666666666666665,-0.8846296296296297],[-0.3,-0.9483333333333334],[-0.26062500000000005,-0.9111111111111111],[-0.26062500000000005,-0.9111111111111111],[-0.2660416666666666,-0.9637037037037036],[-0.23479166666666665,-0.9537037037037037],[-0.23479166666666665,-0.9537037037037037],[-0.21343749999999997,-0.9433333333333332],[-0.21343749999999997,-0.9433333333333332],[-0.1664583333333333,-0.892037037037037],[-0.1664583333333333,-0.892037037037037],[-0.1045833333333333,-0.8457407407407407],[-0.08322916666666665,-0.8214814814814815],[-0.08322916666666665,-0.8214814814814815],[-0.059687499999999956,-0.8224074074074075],[-0.011770833333333286,-0.7333333333333333],[0.028958333333333287,-0.6551851851851852],[0.06416666666666669,-0.5618518518518518],[0.13770833333333338,-0.37648148148148153],[0.21666666666666667,-0.18648148148148147],[0.3228125000000001,0.036666666666666584],[0.4033333333333334,0.21888888888888897],[0.4588541666666667,0.38925925925925936],[0.5221874999999999,0.5714814814814815],[0.54875,0.7555555555555555],[0.5732291666666666,0.8792592592592592],[0.5855208333333333,0.9777777777777777],[0.6098958333333333,1.0505555555555555],[0.5910416666666668,1.0264814814814813],[0.5523958333333333,0.9575925925925924],[0.4865624999999999,0.8555555555555555],[0.4058333333333332,0.7572222222222221],[0.35395833333333326,0.6840740740740741],[0.28708333333333325,0.5868518518518518],[0.24291666666666673,0.4662962962962962],[0.20052083333333334,0.32018518518518513],[0.16885416666666658,0.22111111111111106],[0.18177083333333333,0.16018518518518518],[0.19958333333333325,0.10407407407407415],[0.20770833333333344,0.06814814814814807],[0.20583333333333323,0.015370370370370286],[0.21885416666666657,-0.041111111111111195],[0.23187499999999991,-0.09018518518518516],[0.2598958333333333,-0.11518518518518517],[0.2790625000000001,-0.13870370370370366],[0.2964583333333332,-0.1366666666666667],[0.30583333333333323,-0.13962962962962958],[0.27062499999999995,-0.18074074074074079],[0.24645833333333325,-0.22814814814814813],[0.2400000000000001,-0.24814814814814815],[0.2513541666666666,-0.262037037037037],[0.2627083333333334,-0.2759259259259259],[0.2646874999999999,-0.2964814814814815],[0.2947916666666667,-0.2837037037037037],[0.2945833333333333,-0.3087037037037037],[0.31302083333333336,-0.33370370370370367],[0.3394791666666668,-0.3537037037037037],[0.36906249999999996,-0.3537037037037037],[0.3876041666666666,-0.34740740740740744],[0.42218749999999994,-0.3618518518518518],[0.44895833333333335,-0.3655555555555555],[0.43302083333333335,-0.36648148148148146],[0.44770833333333326,-0.3237037037037037],[0.4214583333333332,-0.3346296296296296],[0.42958333333333343,-0.3181481481481482],[0.4262500000000001,-0.3055555555555556],[0.4349999999999999,-0.26888888888888884],[0.4276041666666667,-0.2748148148148148],[0.4205208333333334,-0.26796296296296296],[0.39739583333333334,-0.2403703703703704],[0.39739583333333334,-0.2403703703703704],[0.3376041666666666,-0.18518518518518517],[0.321875,-0.14592592592592596],[0.2755208333333333,-0.15037037037037035],[0.22697916666666676,-0.14944444444444444],[0.18427083333333344,-0.13222222222222219],[0.134375,-0.1111111111111111],[0.06697916666666662,-0.1316666666666667],[0.018020833333333285,-0.11500000000000005],[-0.03895833333333331,-0.11388888888888889],[-0.08135416666666669,-0.09759259259259258],[-0.10989583333333333,-0.12981481481481486],[-0.12145833333333336,-0.15499999999999997],[-0.14072916666666668,-0.16259259259259262],[-0.14447916666666671,-0.14481481481481479],[-0.14624999999999996,-0.14870370370370373],[-0.14802083333333335,-0.15259259259259256],[-0.1438541666666667,-0.13277777777777774],[-0.14510416666666662,-0.12759259259259256],[-0.14343750000000005,-0.13055555555555556],[-0.14552083333333338,-0.17981481481481484],[-0.12479166666666662,-0.2081481481481481],[-0.13072916666666667,-0.24648148148148152],[-0.12895833333333329,-0.3024074074074074],[-0.13322916666666665,-0.3101851851851852],[-0.14052083333333332,-0.3037037037037037],[-0.1469791666666667,-0.302962962962963],[-0.15395833333333328,-0.30833333333333335],[-0.16666666666666666,-0.3448148148148148],[-0.17458333333333337,-0.37037037037037035],[-0.19333333333333336,-0.3648148148148148],[-0.20885416666666667,-0.36074074074074075],[-0.21604166666666663,-0.3405555555555555],[-0.21604166666666663,-0.3405555555555555],[-0.2141666666666667,-0.2975925925925926],[-0.21666666666666667,-0.3164814814814814],[-0.21385416666666662,-0.3351851851851852],[-0.21937500000000001,-0.34203703703703703],[-0.22489583333333332,-0.34888888888888886],[-0.20802083333333338,-0.30388888888888893],[-0.19114583333333332,-0.2588888888888889],[-0.17760416666666667,-0.21888888888888886],[-0.1672916666666667,-0.17740740740740743],[-0.14427083333333332,-0.14148148148148143],[-0.14281250000000004,-0.1381481481481482],[-0.11802083333333328,-0.10351851851851848],[-0.09770833333333329,-0.0712962962962963],[-0.06989583333333335,-0.04518518518518514],[-0.06322916666666671,-0.04425925925925922],[-0.07322916666666662,-0.06407407407407412],[-0.06281249999999995,-0.055740740740740785],[-0.04906250000000002,-0.042407407407407366],[-0.04906250000000002,-0.042407407407407366],[-0.0609375,-0.07611111111111116],[-0.0609375,-0.07611111111111116],[-0.09229166666666669,-0.09351851851851851],[-0.09229166666666669,-0.09351851851851851],[-0.07791666666666662,-0.06129629629629634],[-0.07791666666666662,-0.06129629629629634],[-0.09010416666666667,-0.047037037037036995],[-0.09010416666666667,-0.047037037037036995],[-0.04468749999999998,0.07537037037037045],[0.0007291666666667141,0.1977777777777777],[0.07770833333333324,0.3611111111111111],[0.07770833333333324,0.3611111111111111],[0.14562499999999995,0.5],[0.14562499999999995,0.5],[0.19583333333333333,0.6366666666666666],[0.22791666666666663,0.7357407407407407],[0.22791666666666663,0.7357407407407407],[0.28229166666666666,0.855925925925926],[0.28229166666666666,0.855925925925926],[0.34354166666666663,0.9040740740740741],[0.34354166666666663,0.9040740740740741],[0.3567708333333333,0.9507407407407409],[0.3567708333333333,0.9507407407407409],[0.3754166666666668,0.9625925925925926],[0.3580208333333334,0.8788888888888889],[0.340625,0.7951851851851851],[0.28927083333333337,0.6903703703703703],[0.24697916666666658,0.61],[0.21145833333333333,0.49240740740740735],[0.19406249999999994,0.4124074074074075],[0.18947916666666675,0.3731481481481482],[0.18479166666666677,0.39518518518518514],[0.19145833333333329,0.34814814814814815],[0.20583333333333323,0.32592592592592595],[0.2015625,0.29740740740740745],[0.19729166666666675,0.26888888888888896],[0.21864583333333343,0.22555555555555548],[0.2365624999999999,0.19888888888888884],[0.24572916666666675,0.16629629629629622],[0.23916666666666658,0.11500000000000005],[0.22312500000000005,0.04888888888888885],[0.21927083333333333,-0.0016666666666666245],[0.21885416666666657,-0.021481481481481525],[0.21541666666666662,-0.04722222222222222],[0.2263541666666666,-0.05351851851851848],[0.24447916666666672,-0.09166666666666666],[0.26052083333333326,-0.1096296296296296],[0.28541666666666665,-0.14222222222222225],[0.3095833333333334,-0.15759259259259265],[0.3494791666666667,-0.1542592592592593],[0.34885416666666674,-0.17185185185185187],[0.33604166666666657,-0.205],[0.3484375,-0.205],[0.3779166666666666,-0.22777777777777777],[0.34260416666666677,-0.3322222222222222],[0.34260416666666677,-0.3322222222222222],[0.2904166666666666,-0.3277777777777778],[0.2179166666666667,-0.40185185185185185],[0.15916666666666662,-0.4890740740740741],[0.10041666666666677,-0.5762962962962963],[0.034895833333333334,-0.6403703703703704],[0.02354166666666669,-0.6425925925925926],[0.012187500000000047,-0.6448148148148148],[-0.04114583333333333,-0.7018518518518518],[-0.10854166666666672,-0.7301851851851852],[-0.13218749999999999,-0.6948148148148148],[-0.14614583333333328,-0.7364814814814815],[-0.1658333333333334,-0.7344444444444445],[-0.2046875,-0.7212962962962963],[-0.2295833333333333,-0.6855555555555556],[-0.24770833333333328,-0.6729629629629629],[-0.2856250000000001,-0.6827777777777777],[-0.32354166666666667,-0.6925925925925925],[-0.3446875,-0.6807407407407408],[-0.393125,-0.7214814814814815],[-0.43864583333333335,-0.7677777777777778],[-0.4505208333333333,-0.7614814814814814],[-0.43635416666666665,-0.7203703703703703],[-0.38156249999999997,-0.6551851851851852],[-0.3407291666666667,-0.6125925925925926],[-0.2772916666666667,-0.5725925925925925],[-0.21510416666666668,-0.5255555555555556],[-0.146875,-0.4831481481481481],[-0.08010416666666664,-0.4412962962962963],[0.01395833333333331,-0.34685185185185186],[0.09677083333333343,-0.2831481481481481],[0.14593749999999991,-0.272037037037037],[0.19270833333333334,-0.20555555555555555],[0.19885416666666675,-0.16314814814814818],[0.19822916666666662,-0.125],[0.175,-0.08425925925925926],[0.14229166666666657,-0.07999999999999997],[0.11395833333333343,-0.05407407407407405],[0.08687500000000009,-0.03629629629629634],[0.08687500000000009,-0.03629629629629634],[0.06822916666666666,-0.03259259259259263],[0.06197916666666667,-0.007037037037036953],[0.06197916666666667,-0.007037037037036953],[0.0546875,0.010740740740740657],[0.02687499999999995,-0.022222222222222223],[-0.000833333333333286,-0.08944444444444447],[0,-0.1307407407407408],[0.028437499999999952,-0.12388888888888884],[0.07374999999999995,-0.10611111111111113],[0.06416666666666669,-0.16314814814814818],[0.07593750000000009,-0.18518518518518517],[0.07927083333333323,-0.19314814814814818],[0.0765625,-0.16518518518518516],[0.07416666666666671,-0.17777777777777778],[0.0984375,-0.16018518518518518],[0.12260416666666671,-0.10833333333333334],[0.10395833333333329,-0.09129629629629632],[0.10437500000000005,-0.12851851851851848],[0.0896874999999999,-0.16314814814814818],[0.11479166666666671,-0.14814814814814814],[0.09406249999999995,-0.17888888888888893],[0.07333333333333343,-0.2096296296296296],[0.06531250000000005,-0.272037037037037],[0.05802083333333338,-0.2861111111111111],[0.06218750000000005,-0.3072222222222222],[0.06635416666666671,-0.32833333333333337],[0.0921875,-0.33111111111111113],[0.07416666666666671,-0.32],[0.07416666666666671,-0.32],[0.05395833333333329,-0.35],[0.029375000000000047,-0.37],[0.033645833333333285,-0.37333333333333335],[0.03791666666666664,-0.37666666666666665],[0.034687499999999954,-0.3838888888888889],[0.04135416666666671,-0.3725925925925926],[0.05427083333333336,-0.3762962962962963],[0.030312500000000023,-0.4177777777777778],[0.030312500000000023,-0.4177777777777778],[0.021249999999999977,-0.43388888888888894],[0.021249999999999977,-0.43388888888888894],[-0.009062500000000048,-0.44907407407407407],[-0.003541666666666643,-0.4431481481481482],[-0.009583333333333381,-0.46592592592592597],[-0.021354166666666667,-0.4898148148148148],[-0.021354166666666667,-0.4898148148148148],[-0.005729166666666666,-0.45333333333333337],[-0.005729166666666666,-0.45333333333333337],[0.004270833333333357,-0.41444444444444445],[0.00625,-0.3942592592592592],[-0.0328125,-0.4074074074074074],[-0.011354166666666643,-0.37],[-0.007083333333333286,-0.35611111111111116],[0.021145833333333287,-0.34685185185185186],[0.021145833333333287,-0.34685185185185186],[0.035000000000000024,-0.3198148148148148],[0.036666666666666715,-0.2881481481481482],[0.025416666666666643,-0.2633333333333333],[0.041979166666666616,-0.2535185185185185],[0.06385416666666661,-0.2375925925925926],[0.050312499999999954,-0.2603703703703704],[0.052083333333333336,-0.2337037037037037],[0.030208333333333334,-0.2198148148148148],[0.016354166666666715,-0.21870370370370373],[-0.00302083333333331,-0.22166666666666665],[-0.06312500000000003,-0.27740740740740744],[-0.050833333333333286,-0.29018518518518516],[-0.02166666666666662,-0.2675925925925926],[-0.04770833333333328,-0.2903703703703704],[-0.07864583333333333,-0.33555555555555555],[-0.06812499999999998,-0.33777777777777773],[-0.051979166666666646,-0.35],[-0.03791666666666664,-0.37037037037037035],[-0.02010416666666662,-0.37111111111111106],[-0.001979166666666643,-0.37092592592592594],[0.05270833333333336,-0.3183333333333333],[0.0578125,-0.307962962962963],[0.058749999999999976,-0.31148148148148147],[0.06687500000000005,-0.2977777777777778]]","[[0.3736458333333334,-0.14759259259259258,0.0004000000000132786],[0.3736458333333334,-0.14759259259259258,0.04079999999991912],[0.3727083333333333,-0.14833333333333337,0.05979999999992458],[0.3727083333333333,-0.14833333333333337,0.06640000000001578],[0.3419791666666666,-0.13092592592592592,0.09309999999996421],[0.3419791666666666,-0.13092592592592592,0.10019999999994411],[0.3111458333333334,-0.12962962962962962,0.12649999999999295],[0.3111458333333334,-0.12962962962962962,0.13329999999992026],[0.3063541666666666,-0.08555555555555554,0.1597999999999189],[0.3063541666666666,-0.08555555555555554,0.1664000000000243],[0.28114583333333343,-0.13962962962962958,0.19169999999995468],[0.28114583333333343,-0.13962962962962958,0.19859999999997058],[0.25104166666666666,-0.1911111111111111,0.22640000000001237],[0.25104166666666666,-0.1911111111111111,0.23290000000001498],[0.2117708333333333,-0.21870370370370373,0.25829999999992026],[0.2117708333333333,-0.21870370370370373,0.26559999999997785],[0.17229166666666676,-0.2625925925925926,0.29340000000001965],[0.17229166666666676,-0.2625925925925926,0.30109999999997683],[0.17229166666666676,-0.2625925925925926,0.30759999999996523],[0.14427083333333332,-0.2753703703703704,0.3434000000000168],[0.14427083333333332,-0.2753703703703704,0.350299999999919],[0.1352083333333333,-0.30925925925925923,0.3757999999999271],[0.1352083333333333,-0.30925925925925923,0.38319999999994536],[0.1304166666666667,-0.3272222222222222,0.4097999999999189],[0.1304166666666667,-0.3272222222222222,0.41909999999997183],[0.13895833333333343,-0.35055555555555556,0.44319999999994764],[0.13895833333333343,-0.35055555555555556,0.44950000000000045],[0.14979166666666663,-0.3925925925925926,0.4766999999999513],[0.14979166666666663,-0.3925925925925926,0.48399999999999466],[0.11541666666666663,-0.47981481481481486,0.509900000000016],[0.11541666666666663,-0.47981481481481486,0.5189999999999912],[0.11541666666666663,-0.47981481481481486,0.5242999999999256],[0.11541666666666663,-0.47981481481481486,0.5425999999999647],[0.11416666666666657,-0.45444444444444443,0.5765999999999707],[0.11416666666666657,-0.45444444444444443,0.5835000000000008],[0.0900000000000001,-0.4401851851851852,0.6104999999999876],[0.0900000000000001,-0.4401851851851852,0.6187999999999221],[0.10270833333333323,-0.4375925925925926,0.6416999999999433],[0.10270833333333323,-0.4375925925925926,0.6492999999999256],[0.07708333333333334,-0.4842592592592593,0.6749999999999972],[0.07708333333333334,-0.4842592592592593,0.6820999999999771],[0.04114583333333333,-0.532962962962963,0.7084000000000117],[0.04114583333333333,-0.532962962962963,0.7191999999999439],[-0.06583333333333338,-0.5944444444444444,0.7431999999999448],[-0.06583333333333338,-0.5944444444444444,0.7504000000000133],[-0.11479166666666671,-0.6248148148148148,0.7764000000000237],[-0.11479166666666671,-0.6248148148148148,0.7830000000000013],[-0.17979166666666668,-0.6453703703703704,0.8099000000000132],[-0.17979166666666668,-0.6453703703703704,0.8204999999999956],[-0.23322916666666665,-0.6225925925925926,0.8436999999999415],[-0.23322916666666665,-0.6225925925925926,0.8504999999999967],[-0.2616666666666667,-0.6037037037037037,0.8767999999999176],[-0.2616666666666667,-0.6037037037037037,0.8831999999999454],[-0.28718750000000004,-0.5674074074074074,0.9099000000000217],[-0.28718750000000004,-0.5674074074074074,0.9184999999999945],[-0.3289583333333333,-0.6366666666666667,0.9417999999999296],[-0.3289583333333333,-0.6366666666666667,0.949099999999973],[-0.3536458333333333,-0.6283333333333333,0.9789999999999992],[-0.3536458333333333,-0.6283333333333333,0.9859000000000151],[-0.380625,-0.6431481481481481,1.0165999999999684],[-0.380625,-0.6431481481481481,1.0240999999999758],[-0.3988541666666666,-0.6874074074074074,1.0364000000000146],[-0.3988541666666666,-0.6874074074074074,1.043999999999997],[-0.3571875,-0.7042592592592593,1.0575999999999652],[-0.38343750000000004,-0.7703703703703704,1.078699999999941],[-0.3609375,-0.8361111111111111,1.0969000000000193],[-0.3609375,-0.8361111111111111,1.1075999999999766],[-0.3403125000000001,-0.8637037037037036,1.1244000000000227],[-0.3403125000000001,-0.8637037037037036,1.1409999999999911],[-0.31666666666666665,-0.8846296296296297,1.1577999999999236],[-0.3,-0.9483333333333334,1.1797999999999291],[-0.26062500000000005,-0.9111111111111111,1.1960999999999729],[-0.26062500000000005,-0.9111111111111111,1.207599999999971],[-0.2660416666666666,-0.9637037037037036,1.2242999999999284],[-0.23479166666666665,-0.9537037037037037,1.244499999999988],[-0.23479166666666665,-0.9537037037037037,1.257599999999968],[-0.21343749999999997,-0.9433333333333332,1.2744000000000142],[-0.21343749999999997,-0.9433333333333332,1.2909999999999968],[-0.1664583333333333,-0.892037037037037,1.3076999999999543],[-0.1664583333333333,-0.892037037037037,1.3242999999999228],[-0.1045833333333333,-0.8457407407407407,1.340999999999994],[-0.08322916666666665,-0.8214814814814815,1.3580999999999648],[-0.08322916666666665,-0.8214814814814815,1.3744000000000227],[-0.059687499999999956,-0.8224074074074075,1.3909000000000162],[-0.011770833333333286,-0.7333333333333333,1.4075999999999738],[0.028958333333333287,-0.6551851851851852,1.4242999999999313],[0.06416666666666669,-0.5618518518518518,1.4409999999999883],[0.13770833333333338,-0.37648148148148153,1.457599999999971],[0.21666666666666667,-0.18648148148148147,1.4742999999999284],[0.3228125000000001,0.036666666666666584,1.4909999999999997],[0.4033333333333334,0.21888888888888897,1.507699999999943],[0.4588541666666667,0.38925925925925936,1.525400000000019],[0.5221874999999999,0.5714814814814815,1.540900000000022],[0.54875,0.7555555555555555,1.5576999999999543],[0.5732291666666666,0.8792592592592592,1.5742999999999228],[0.5855208333333333,0.9777777777777777,1.590999999999994],[0.6098958333333333,1.0505555555555555,1.6076999999999515],[0.5910416666666668,1.0264814814814813,1.626400000000018],[0.5523958333333333,0.9575925925925924,1.6409000000000162],[0.4865624999999999,0.8555555555555555,1.6575999999999738],[0.4058333333333332,0.7572222222222221,1.6744000000000199],[0.35395833333333326,0.6840740740740741,1.6909999999999883],[0.28708333333333325,0.5868518518518518,1.7076999999999458],[0.24291666666666673,0.4662962962962962,1.7242999999999284],[0.20052083333333334,0.32018518518518513,1.7409000000000106],[0.16885416666666658,0.22111111111111106,1.757699999999943],[0.18177083333333333,0.16018518518518518,1.7742999999999256],[0.19958333333333325,0.10407407407407415,1.7909999999999968],[0.20770833333333344,0.06814814814814807,1.8075999999999652],[0.20583333333333323,0.015370370370370286,1.8274000000000115],[0.21885416666666657,-0.041111111111111195,1.8449999999999989],[0.23187499999999991,-0.09018518518518516,1.8597999999999217],[0.2598958333333333,-0.11518518518518517,1.87429999999992],[0.2790625000000001,-0.13870370370370366,1.8909999999999911],[0.2964583333333332,-0.1366666666666667,1.9075999999999738],[0.30583333333333323,-0.13962962962962958,1.9254000000000104],[0.27062499999999995,-0.18074074074074079,1.9409999999999883],[0.24645833333333325,-0.22814814814814813,1.957599999999971],[0.2400000000000001,-0.24814814814814815,1.9742999999999284],[0.2513541666666666,-0.262037037037037,1.9909999999999997],[0.2627083333333334,-0.2759259259259259,2.007699999999943],[0.2646874999999999,-0.2964814814814815,2.025499999999994],[0.2947916666666667,-0.2837037037037037,2.040999999999997],[0.2945833333333333,-0.3087037037037037,2.060900000000018],[0.31302083333333336,-0.33370370370370367,2.076499999999996],[0.3394791666666668,-0.3537037037037037,2.090999999999994],[0.36906249999999996,-0.3537037037037037,2.1075999999999766],[0.3876041666666666,-0.34740740740740744,2.126499999999993],[0.42218749999999994,-0.3618518518518518,2.14129999999993],[0.44895833333333335,-0.3655555555555555,2.1575999999999738],[0.43302083333333335,-0.36648148148148146,2.1742999999999313],[0.44770833333333326,-0.3237037037037037,2.1910999999999774],[0.4214583333333332,-0.3346296296296296,2.207699999999946],[0.42958333333333343,-0.3181481481481482,2.225299999999919],[0.4262500000000001,-0.3055555555555556,2.2409999999999997],[0.4349999999999999,-0.26888888888888884,2.257599999999968],[0.4276041666666667,-0.2748148148148148,2.2742999999999256],[0.4205208333333334,-0.26796296296296296,2.290900000000022],[0.39739583333333334,-0.2403703703703704,2.3134000000000157],[0.39739583333333334,-0.2403703703703704,2.324199999999948],[0.3376041666666666,-0.18518518518518517,2.340999999999994],[0.321875,-0.14592592592592596,2.3575999999999766],[0.2755208333333333,-0.15037037037037035,2.374199999999945],[0.22697916666666676,-0.14944444444444444,2.391099999999966],[0.18427083333333344,-0.13222222222222219,2.4076999999999487],[0.134375,-0.1111111111111111,2.4245999999999697],[0.06697916666666662,-0.1316666666666667,2.4409999999999883],[0.018020833333333285,-0.11500000000000005,2.457599999999971],[-0.03895833333333331,-0.11388888888888889,2.4742999999999284],[-0.08135416666666669,-0.09759259259259258,2.4909000000000106],[-0.10989583333333333,-0.12981481481481486,2.507699999999943],[-0.12145833333333336,-0.15499999999999997,2.527499999999989],[-0.14072916666666668,-0.16259259259259262,2.5434000000000196],[-0.14447916666666671,-0.14481481481481479,2.5576999999999543],[-0.14624999999999996,-0.14870370370370373,2.5744000000000113],[-0.14802083333333335,-0.15259259259259256,2.590900000000019],[-0.1438541666666667,-0.13277777777777774,2.6075999999999766],[-0.14510416666666662,-0.12759259259259256,2.62429999999992],[-0.14343750000000005,-0.13055555555555556,2.640999999999991],[-0.14552083333333338,-0.17981481481481484,2.6575999999999738],[-0.12479166666666662,-0.2081481481481481,2.6742999999999313],[-0.13072916666666667,-0.24648148148148152,2.6909000000000134],[-0.12895833333333329,-0.3024074074074074,2.707699999999946],[-0.13322916666666665,-0.3101851851851852,2.7242999999999284],[-0.14052083333333332,-0.3037037037037037,2.7409000000000106],[-0.1469791666666667,-0.302962962962963,2.757699999999943],[-0.15395833333333328,-0.30833333333333335,2.7742999999999256],[-0.16666666666666666,-0.3448148148148148,2.790999999999997],[-0.17458333333333337,-0.37037037037037035,2.8076999999999543],[-0.19333333333333336,-0.3648148148148148,2.8244000000000113],[-0.20885416666666667,-0.36074074074074075,2.840999999999994],[-0.21604166666666663,-0.3405555555555555,2.8607999999999265],[-0.21604166666666663,-0.3405555555555555,2.876400000000018],[-0.2141666666666667,-0.2975925925925926,2.891099999999966],[-0.21666666666666667,-0.3164814814814814,2.9080000000000013],[-0.21385416666666662,-0.3351851851851852,2.9242999999999313],[-0.21937500000000001,-0.34203703703703703,2.9409000000000134],[-0.22489583333333332,-0.34888888888888886,2.957599999999971],[-0.20802083333333338,-0.30388888888888893,2.9742999999999284],[-0.19114583333333332,-0.2588888888888889,2.9909999999999997],[-0.17760416666666667,-0.21888888888888886,3.007599999999968],[-0.1672916666666667,-0.17740740740740743,3.0242999999999256],[-0.14427083333333332,-0.14148148148148143,3.040999999999997],[-0.14281250000000004,-0.1381481481481482,3.0575999999999652],[-0.11802083333333328,-0.10351851851851848,3.074199999999948],[-0.09770833333333329,-0.0712962962962963,3.090999999999994],[-0.06989583333333335,-0.04518518518518514,3.1077999999999264],[-0.06322916666666671,-0.04425925925925922,3.1246999999999474],[-0.07322916666666662,-0.06407407407407412,3.140999999999991],[-0.06281249999999995,-0.055740740740740785,3.1576999999999487],[-0.04906250000000002,-0.042407407407407366,3.17440000000002],[-0.04906250000000002,-0.042407407407407366,3.1909999999999883],[-0.0609375,-0.07611111111111116,3.207699999999946],[-0.0609375,-0.07611111111111116,3.224400000000017],[-0.09229166666666669,-0.09351851851851851,3.2409999999999997],[-0.09229166666666669,-0.09351851851851851,3.257599999999968],[-0.07791666666666662,-0.06129629629629634,3.2742999999999256],[-0.07791666666666662,-0.06129629629629634,3.290900000000022],[-0.09010416666666667,-0.047037037037036995,3.3076999999999543],[-0.09010416666666667,-0.047037037037036995,3.3244000000000113],[-0.04468749999999998,0.07537037037037045,3.340999999999994],[0.0007291666666667141,0.1977777777777777,3.3599999999999994],[0.07770833333333324,0.3611111111111111,3.3784999999999883],[0.07770833333333324,0.3611111111111111,3.390999999999991],[0.14562499999999995,0.5,3.4076999999999487],[0.14562499999999995,0.5,3.4245999999999697],[0.19583333333333333,0.6366666666666666,3.4409999999999883],[0.22791666666666663,0.7357407407407407,3.4610999999999734],[0.22791666666666663,0.7357407407407407,3.4742999999999284],[0.28229166666666666,0.855925925925926,3.4909999999999997],[0.28229166666666666,0.855925925925926,3.507599999999968],[0.34354166666666663,0.9040740740740741,3.5242999999999256],[0.34354166666666663,0.9040740740740741,3.540900000000022],[0.3567708333333333,0.9507407407407409,3.5575999999999652],[0.3567708333333333,0.9507407407407409,3.5742999999999228],[0.3754166666666668,0.9625925925925926,3.590999999999994],[0.3580208333333334,0.8788888888888889,3.6076999999999515],[0.340625,0.7951851851851851,3.624199999999945],[0.28927083333333337,0.6903703703703703,3.641099999999966],[0.24697916666666658,0.61,3.660999999999987],[0.21145833333333333,0.49240740740740735,3.6756999999999493],[0.19406249999999994,0.4124074074074075,3.6909000000000134],[0.18947916666666675,0.3731481481481482,3.707699999999946],[0.18479166666666677,0.39518518518518514,3.727499999999992],[0.19145833333333329,0.34814814814814815,3.743799999999922],[0.20583333333333323,0.32592592592592595,3.757799999999918],[0.2015625,0.29740740740740745,3.7741999999999507],[0.19729166666666675,0.26888888888888896,3.790999999999997],[0.21864583333333343,0.22555555555555548,3.8076999999999543],[0.2365624999999999,0.19888888888888884,3.8277999999999253],[0.24572916666666675,0.16629629629629622,3.8421999999999485],[0.23916666666666658,0.11500000000000005,3.8575999999999766],[0.22312500000000005,0.04888888888888885,3.87429999999992],[0.21927083333333333,-0.0016666666666666245,3.8937999999999278],[0.21885416666666657,-0.021481481481481525,3.908099999999976],[0.21541666666666662,-0.04722222222222222,3.92440000000002],[0.2263541666666666,-0.05351851851851848,3.9409000000000134],[0.24447916666666672,-0.09166666666666666,3.957599999999971],[0.26052083333333326,-0.1096296296296296,3.974400000000017],[0.28541666666666665,-0.14222222222222225,3.9909000000000106],[0.3095833333333334,-0.15759259259259265,4.007599999999968],[0.3494791666666667,-0.1542592592592593,4.024299999999926],[0.34885416666666674,-0.17185185185185187,4.040999999999997],[0.33604166666666657,-0.205,4.057599999999965],[0.3484375,-0.205,4.07469999999995],[0.3779166666666666,-0.22777777777777777,4.090900000000019],[0.34260416666666677,-0.3322222222222222,4.107599999999977],[0.34260416666666677,-0.3322222222222222,4.12429999999992],[0.2904166666666666,-0.3277777777777778,4.140999999999991],[0.2179166666666667,-0.40185185185185185,4.157699999999949],[0.15916666666666662,-0.4890740740740741,4.174299999999931],[0.10041666666666677,-0.5762962962962963,4.190900000000013],[0.034895833333333334,-0.6403703703703704,4.207599999999971],[0.02354166666666669,-0.6425925925925926,4.2241999999999535],[0.012187500000000047,-0.6448148148148148,4.241],[-0.04114583333333333,-0.7018518518518518,4.257499999999993],[-0.10854166666666672,-0.7301851851851852,4.274199999999951],[-0.13218749999999999,-0.6948148148148148,4.290900000000022],[-0.14614583333333328,-0.7364814814814815,4.307599999999965],[-0.1658333333333334,-0.7344444444444445,4.326699999999946],[-0.2046875,-0.7212962962962963,4.340999999999994],[-0.2295833333333333,-0.6855555555555556,4.3576999999999515],[-0.24770833333333328,-0.6729629629629629,4.37429999999992],[-0.2856250000000001,-0.6827777777777777,4.390999999999991],[-0.32354166666666667,-0.6925925925925925,4.407599999999974],[-0.3446875,-0.6807407407407408,4.427499999999995],[-0.393125,-0.7214814814814815,4.4432999999999225],[-0.43864583333333335,-0.7677777777777778,4.457599999999971],[-0.4505208333333333,-0.7614814814814814,4.4742999999999284],[-0.43635416666666665,-0.7203703703703703,4.4909000000000106],[-0.38156249999999997,-0.6551851851851852,4.507699999999943],[-0.3407291666666667,-0.6125925925925926,4.525400000000019],[-0.2772916666666667,-0.5725925925925925,4.540900000000022],[-0.21510416666666668,-0.5255555555555556,4.557599999999965],[-0.146875,-0.4831481481481481,4.5767999999999205],[-0.08010416666666664,-0.4412962962962963,4.590999999999994],[0.01395833333333331,-0.34685185185185186,4.607599999999977],[0.09677083333333343,-0.2831481481481481,4.627900000000011],[0.14593749999999991,-0.272037037037037,4.6445999999999685],[0.19270833333333334,-0.20555555555555555,4.659699999999944],[0.19885416666666675,-0.16314814814814818,4.675699999999949],[0.19822916666666662,-0.125,4.691400000000016],[0.175,-0.08425925925925926,4.712199999999953],[0.14229166666666657,-0.07999999999999997,4.72699999999999],[0.11395833333333343,-0.05407407407407405,4.74329999999992],[0.08687500000000009,-0.03629629629629634,4.761499999999998],[0.08687500000000009,-0.03629629629629634,4.774499999999989],[0.06822916666666666,-0.03259259259259263,4.7912999999999215],[0.06197916666666667,-0.007037037037036953,4.807900000000018],[0.06197916666666667,-0.007037037037036953,4.826699999999946],[0.0546875,0.010740740740740657,4.841099999999969],[0.02687499999999995,-0.022222222222222223,4.8576999999999515],[-0.000833333333333286,-0.08944444444444447,4.877400000000023],[0,-0.1307407407407408,4.891099999999966],[0.028437499999999952,-0.12388888888888884,4.907900000000012],[0.07374999999999995,-0.10611111111111113,4.92949999999999],[0.06416666666666669,-0.16314814814814818,4.9440999999999775],[0.07593750000000009,-0.18518518518518517,4.960299999999918],[0.07927083333333323,-0.19314814814814818,4.974699999999942],[0.0765625,-0.16518518518518516,4.995199999999954],[0.07416666666666671,-0.17777777777777778,5.010599999999968],[0.0984375,-0.16018518518518518,5.027699999999953],[0.12260416666666671,-0.10833333333333334,5.044699999999949],[0.10395833333333329,-0.09129629629629632,5.059900000000013],[0.10437500000000005,-0.12851851851851848,5.074299999999923],[0.0896874999999999,-0.16314814814814818,5.090900000000019],[0.11479166666666671,-0.14814814814814814,5.107599999999977],[0.09406249999999995,-0.17888888888888893,5.124400000000023],[0.07333333333333343,-0.2096296296296296,5.141199999999941],[0.06531250000000005,-0.272037037037037,5.157699999999949],[0.05802083333333338,-0.2861111111111111,5.174299999999931],[0.06218750000000005,-0.3072222222222222,5.190900000000013],[0.06635416666666671,-0.32833333333333337,5.207499999999996],[0.0921875,-0.33111111111111113,5.226299999999924],[0.07416666666666671,-0.32,5.240799999999922],[0.07416666666666671,-0.32,5.257499999999993],[0.05395833333333329,-0.35,5.274299999999926],[0.029375000000000047,-0.37,5.290999999999997],[0.033645833333333285,-0.37333333333333335,5.307599999999965],[0.03791666666666664,-0.37666666666666665,5.324299999999923],[0.034687499999999954,-0.3838888888888889,5.343499999999992],[0.04135416666666671,-0.3725925925925926,5.358499999999992],[0.05427083333333336,-0.3762962962962963,5.3745999999999725],[0.030312500000000023,-0.4177777777777778,5.3984999999999985],[0.030312500000000023,-0.4177777777777778,5.407900000000012],[0.021249999999999977,-0.43388888888888894,5.42440000000002],[0.021249999999999977,-0.43388888888888894,5.441199999999952],[-0.009062500000000048,-0.44907407407407407,5.462400000000017],[-0.003541666666666643,-0.4431481481481482,5.479299999999924],[-0.009583333333333381,-0.46592592592592597,5.49590000000002],[-0.021354166666666667,-0.4898148148148148,5.517799999999923],[-0.021354166666666667,-0.4898148148148148,5.525400000000019],[-0.005729166666666666,-0.45333333333333337,5.541199999999947],[-0.005729166666666666,-0.45333333333333337,5.557699999999954],[0.004270833333333357,-0.41444444444444445,5.576699999999946],[0.00625,-0.3942592592592592,5.590999999999994],[-0.0328125,-0.4074074074074074,5.6099000000000245],[-0.011354166666666643,-0.37,5.629599999999968],[-0.007083333333333286,-0.35611111111111116,5.643999999999991],[0.021145833333333287,-0.34685185185185186,5.657900000000012],[0.021145833333333287,-0.34685185185185186,5.67459999999997],[0.035000000000000024,-0.3198148148148148,5.6940999999999775],[0.036666666666666715,-0.2881481481481482,5.707999999999998],[0.025416666666666643,-0.2633333333333333,5.726699999999951],[0.041979166666666616,-0.2535185185185185,5.74309999999997],[0.06385416666666661,-0.2375925925925926,5.757599999999968],[0.050312499999999954,-0.2603703703703704,5.777099999999976],[0.052083333333333336,-0.2337037037037037,5.790900000000022],[0.030208333333333334,-0.2198148148148148,5.80749999999999],[0.016354166666666715,-0.21870370370370373,5.8274000000000115],[-0.00302083333333331,-0.22166666666666665,5.843199999999953],[-0.06312500000000003,-0.27740740740740744,5.857599999999977],[-0.050833333333333286,-0.29018518518518516,5.874400000000023],[-0.02166666666666662,-0.2675925925925926,5.890900000000016],[-0.04770833333333328,-0.2903703703703704,5.907499999999999],[-0.07864583333333333,-0.33555555555555555,5.924199999999942],[-0.06812499999999998,-0.33777777777777773,5.940900000000013],[-0.051979166666666646,-0.35,5.957599999999971],[-0.03791666666666664,-0.37037037037037035,5.9742999999999284],[-0.02010416666666662,-0.37111111111111106,5.9909000000000106],[-0.001979166666666643,-0.37092592592592594,6.007599999999968],[0.05270833333333336,-0.3183333333333333,6.024400000000014],[0.0578125,-0.307962962962963,6.040900000000022],[0.058749999999999976,-0.31148148148148147,6.057599999999965],[0.06687500000000005,-0.2977777777777778,6.076599999999971]]","[0.0004000000000132786,0.04079999999991912,0.05979999999992458,0.06640000000001578,0.09309999999996421,0.10019999999994411,0.12649999999999295,0.13329999999992026,0.1597999999999189,0.1664000000000243,0.19169999999995468,0.19859999999997058,0.22640000000001237,0.23290000000001498,0.25829999999992026,0.26559999999997785,0.29340000000001965,0.30109999999997683,0.30759999999996523,0.3434000000000168,0.350299999999919,0.3757999999999271,0.38319999999994536,0.4097999999999189,0.41909999999997183,0.44319999999994764,0.44950000000000045,0.4766999999999513,0.48399999999999466,0.509900000000016,0.5189999999999912,0.5242999999999256,0.5425999999999647,0.5765999999999707,0.5835000000000008,0.6104999999999876,0.6187999999999221,0.6416999999999433,0.6492999999999256,0.6749999999999972,0.6820999999999771,0.7084000000000117,0.7191999999999439,0.7431999999999448,0.7504000000000133,0.7764000000000237,0.7830000000000013,0.8099000000000132,0.8204999999999956,0.8436999999999415,0.8504999999999967,0.8767999999999176,0.8831999999999454,0.9099000000000217,0.9184999999999945,0.9417999999999296,0.949099999999973,0.9789999999999992,0.9859000000000151,1.0165999999999684,1.0240999999999758,1.0364000000000146,1.043999999999997,1.0575999999999652,1.078699999999941,1.0969000000000193,1.1075999999999766,1.1244000000000227,1.1409999999999911,1.1577999999999236,1.1797999999999291,1.1960999999999729,1.207599999999971,1.2242999999999284,1.244499999999988,1.257599999999968,1.2744000000000142,1.2909999999999968,1.3076999999999543,1.3242999999999228,1.340999999999994,1.3580999999999648,1.3744000000000227,1.3909000000000162,1.4075999999999738,1.4242999999999313,1.4409999999999883,1.457599999999971,1.4742999999999284,1.4909999999999997,1.507699999999943,1.525400000000019,1.540900000000022,1.5576999999999543,1.5742999999999228,1.590999999999994,1.6076999999999515,1.626400000000018,1.6409000000000162,1.6575999999999738,1.6744000000000199,1.6909999999999883,1.7076999999999458,1.7242999999999284,1.7409000000000106,1.757699999999943,1.7742999999999256,1.7909999999999968,1.8075999999999652,1.8274000000000115,1.8449999999999989,1.8597999999999217,1.87429999999992,1.8909999999999911,1.9075999999999738,1.9254000000000104,1.9409999999999883,1.957599999999971,1.9742999999999284,1.9909999999999997,2.007699999999943,2.025499999999994,2.040999999999997,2.060900000000018,2.076499999999996,2.090999999999994,2.1075999999999766,2.126499999999993,2.14129999999993,2.1575999999999738,2.1742999999999313,2.1910999999999774,2.207699999999946,2.225299999999919,2.2409999999999997,2.257599999999968,2.2742999999999256,2.290900000000022,2.3134000000000157,2.324199999999948,2.340999999999994,2.3575999999999766,2.374199999999945,2.391099999999966,2.4076999999999487,2.4245999999999697,2.4409999999999883,2.457599999999971,2.4742999999999284,2.4909000000000106,2.507699999999943,2.527499999999989,2.5434000000000196,2.5576999999999543,2.5744000000000113,2.590900000000019,2.6075999999999766,2.62429999999992,2.640999999999991,2.6575999999999738,2.6742999999999313,2.6909000000000134,2.707699999999946,2.7242999999999284,2.7409000000000106,2.757699999999943,2.7742999999999256,2.790999999999997,2.8076999999999543,2.8244000000000113,2.840999999999994,2.8607999999999265,2.876400000000018,2.891099999999966,2.9080000000000013,2.9242999999999313,2.9409000000000134,2.957599999999971,2.9742999999999284,2.9909999999999997,3.007599999999968,3.0242999999999256,3.040999999999997,3.0575999999999652,3.074199999999948,3.090999999999994,3.1077999999999264,3.1246999999999474,3.140999999999991,3.1576999999999487,3.17440000000002,3.1909999999999883,3.207699999999946,3.224400000000017,3.2409999999999997,3.257599999999968,3.2742999999999256,3.290900000000022,3.3076999999999543,3.3244000000000113,3.340999999999994,3.3599999999999994,3.3784999999999883,3.390999999999991,3.4076999999999487,3.4245999999999697,3.4409999999999883,3.4610999999999734,3.4742999999999284,3.4909999999999997,3.507599999999968,3.5242999999999256,3.540900000000022,3.5575999999999652,3.5742999999999228,3.590999999999994,3.6076999999999515,3.624199999999945,3.641099999999966,3.660999999999987,3.6756999999999493,3.6909000000000134,3.707699999999946,3.727499999999992,3.743799999999922,3.757799999999918,3.7741999999999507,3.790999999999997,3.8076999999999543,3.8277999999999253,3.8421999999999485,3.8575999999999766,3.87429999999992,3.8937999999999278,3.908099999999976,3.92440000000002,3.9409000000000134,3.957599999999971,3.974400000000017,3.9909000000000106,4.007599999999968,4.024299999999926,4.040999999999997,4.057599999999965,4.07469999999995,4.090900000000019,4.107599999999977,4.12429999999992,4.140999999999991,4.157699999999949,4.174299999999931,4.190900000000013,4.207599999999971,4.2241999999999535,4.241,4.257499999999993,4.274199999999951,4.290900000000022,4.307599999999965,4.326699999999946,4.340999999999994,4.3576999999999515,4.37429999999992,4.390999999999991,4.407599999999974,4.427499999999995,4.4432999999999225,4.457599999999971,4.4742999999999284,4.4909000000000106,4.507699999999943,4.525400000000019,4.540900000000022,4.557599999999965,4.5767999999999205,4.590999999999994,4.607599999999977,4.627900000000011,4.6445999999999685,4.659699999999944,4.675699999999949,4.691400000000016,4.712199999999953,4.72699999999999,4.74329999999992,4.761499999999998,4.774499999999989,4.7912999999999215,4.807900000000018,4.826699999999946,4.841099999999969,4.8576999999999515,4.877400000000023,4.891099999999966,4.907900000000012,4.92949999999999,4.9440999999999775,4.960299999999918,4.974699999999942,4.995199999999954,5.010599999999968,5.027699999999953,5.044699999999949,5.059900000000013,5.074299999999923,5.090900000000019,5.107599999999977,5.124400000000023,5.141199999999941,5.157699999999949,5.174299999999931,5.190900000000013,5.207499999999996,5.226299999999924,5.240799999999922,5.257499999999993,5.274299999999926,5.290999999999997,5.307599999999965,5.324299999999923,5.343499999999992,5.358499999999992,5.3745999999999725,5.3984999999999985,5.407900000000012,5.42440000000002,5.441199999999952,5.462400000000017,5.479299999999924,5.49590000000002,5.517799999999923,5.525400000000019,5.541199999999947,5.557699999999954,5.576699999999946,5.590999999999994,5.6099000000000245,5.629599999999968,5.643999999999991,5.657900000000012,5.67459999999997,5.6940999999999775,5.707999999999998,5.726699999999951,5.74309999999997,5.757599999999968,5.777099999999976,5.790900000000022,5.80749999999999,5.8274000000000115,5.843199999999953,5.857599999999977,5.874400000000023,5.890900000000016,5.907499999999999,5.924199999999942,5.940900000000013,5.957599999999971,5.9742999999999284,5.9909000000000106,6.007599999999968,6.024400000000014,6.040900000000022,6.057599999999965,6.076599999999971]","[1733206770022,1733206770055,1733206770074,1733206770081,1733206770107,1733206770115,1733206770141,1733206770148,1733206770174,1733206770181,1733206770206,1733206770213,1733206770241,1733206770247,1733206770273,1733206770280,1733206770308,1733206770315,1733206770322,1733206770358,1733206770365,1733206770390,1733206770398,1733206770424,1733206770433,1733206770457,1733206770464,1733206770491,1733206770498,1733206770524,1733206770533,1733206770539,1733206770557,1733206770591,1733206770598,1733206770625,1733206770633,1733206770656,1733206770664,1733206770689,1733206770696,1733206770723,1733206770734,1733206770757,1733206770765,1733206770791,1733206770797,1733206770824,1733206770835,1733206770858,1733206770865,1733206770891,1733206770898,1733206770924,1733206770933,1733206770956,1733206770963,1733206770993,1733206771000,1733206771031,1733206771038,1733206771051,1733206771058,1733206771072,1733206771093,1733206771111,1733206771122,1733206771139,1733206771155,1733206771172,1733206771194,1733206771210,1733206771222,1733206771239,1733206771259,1733206771272,1733206771289,1733206771305,1733206771322,1733206771339,1733206771355,1733206771372,1733206771389,1733206771405,1733206771422,1733206771439,1733206771455,1733206771472,1733206771489,1733206771505,1733206771522,1733206771540,1733206771555,1733206771572,1733206771589,1733206771605,1733206771622,1733206771641,1733206771655,1733206771672,1733206771689,1733206771705,1733206771722,1733206771739,1733206771755,1733206771772,1733206771789,1733206771805,1733206771822,1733206771842,1733206771859,1733206771874,1733206771889,1733206771905,1733206771922,1733206771940,1733206771955,1733206771972,1733206771989,1733206772005,1733206772022,1733206772040,1733206772055,1733206772075,1733206772091,1733206772105,1733206772122,1733206772141,1733206772156,1733206772172,1733206772189,1733206772205,1733206772222,1733206772240,1733206772255,1733206772272,1733206772289,1733206772305,1733206772328,1733206772339,1733206772355,1733206772372,1733206772389,1733206772405,1733206772422,1733206772439,1733206772455,1733206772472,1733206772489,1733206772505,1733206772522,1733206772542,1733206772558,1733206772572,1733206772589,1733206772605,1733206772622,1733206772639,1733206772655,1733206772672,1733206772689,1733206772705,1733206772722,1733206772739,1733206772755,1733206772772,1733206772789,1733206772805,1733206772822,1733206772839,1733206772855,1733206772875,1733206772891,1733206772905,1733206772922,1733206772939,1733206772955,1733206772972,1733206772989,1733206773005,1733206773022,1733206773039,1733206773055,1733206773072,1733206773089,1733206773105,1733206773122,1733206773139,1733206773155,1733206773172,1733206773189,1733206773205,1733206773222,1733206773239,1733206773255,1733206773272,1733206773289,1733206773305,1733206773322,1733206773339,1733206773355,1733206773374,1733206773393,1733206773405,1733206773422,1733206773439,1733206773455,1733206773475,1733206773489,1733206773505,1733206773522,1733206773539,1733206773555,1733206773572,1733206773589,1733206773605,1733206773622,1733206773639,1733206773655,1733206773675,1733206773690,1733206773705,1733206773722,1733206773742,1733206773758,1733206773772,1733206773789,1733206773805,1733206773822,1733206773842,1733206773857,1733206773872,1733206773889,1733206773908,1733206773922,1733206773939,1733206773955,1733206773972,1733206773989,1733206774005,1733206774022,1733206774039,1733206774055,1733206774072,1733206774089,1733206774105,1733206774122,1733206774139,1733206774155,1733206774172,1733206774189,1733206774205,1733206774222,1733206774239,1733206774255,1733206774272,1733206774289,1733206774305,1733206774322,1733206774341,1733206774355,1733206774372,1733206774389,1733206774405,1733206774422,1733206774442,1733206774458,1733206774472,1733206774489,1733206774505,1733206774522,1733206774540,1733206774555,1733206774572,1733206774591,1733206774605,1733206774622,1733206774642,1733206774659,1733206774674,1733206774690,1733206774706,1733206774727,1733206774741,1733206774758,1733206774776,1733206774789,1733206774806,1733206774822,1733206774841,1733206774856,1733206774872,1733206774892,1733206774905,1733206774922,1733206774944,1733206774958,1733206774975,1733206774989,1733206775010,1733206775025,1733206775042,1733206775059,1733206775074,1733206775089,1733206775105,1733206775122,1733206775139,1733206775156,1733206775172,1733206775189,1733206775205,1733206775222,1733206775241,1733206775255,1733206775272,1733206775289,1733206775305,1733206775322,1733206775339,1733206775358,1733206775373,1733206775389,1733206775413,1733206775422,1733206775439,1733206775456,1733206775477,1733206775494,1733206775510,1733206775532,1733206775540,1733206775556,1733206775572,1733206775591,1733206775605,1733206775624,1733206775644,1733206775658,1733206775672,1733206775689,1733206775708,1733206775722,1733206775741,1733206775758,1733206775772,1733206775791,1733206775805,1733206775822,1733206775842,1733206775857,1733206775872,1733206775889,1733206775905,1733206775922,1733206775939,1733206775955,1733206775972,1733206775989,1733206776005,1733206776022,1733206776039,1733206776055,1733206776072,1733206776091]","[[1318.7,460.3],[1318.7,460.3],[1317.8,459.9],[1317.8,459.9],[1288.3,469.3],[1288.3,469.3],[1258.7,470],[1258.7,470],[1254.1,493.8],[1254.1,493.8],[1229.9,464.6],[1229.9,464.6],[1201,436.8],[1201,436.8],[1163.3,421.9],[1163.3,421.9],[1125.4,398.2],[1125.4,398.2],[1125.4,398.2],[1098.5,391.3],[1098.5,391.3],[1089.8,373],[1089.8,373],[1085.2,363.3],[1085.2,363.3],[1093.4,350.7],[1093.4,350.7],[1103.8,328],[1103.8,328],[1070.8,280.9],[1070.8,280.9],[1070.8,280.9],[1070.8,280.9],[1069.6,294.6],[1069.6,294.6],[1046.4,302.3],[1046.4,302.3],[1058.6,303.7],[1058.6,303.7],[1034,278.5],[1034,278.5],[999.5,252.2],[999.5,252.2],[896.8,219],[896.8,219],[849.8,202.6],[849.8,202.6],[787.4,191.5],[787.4,191.5],[736.1,203.8],[736.1,203.8],[708.8,214],[708.8,214],[684.3,233.6],[684.3,233.6],[644.2,196.2],[644.2,196.2],[620.5,200.7],[620.5,200.7],[594.6,192.7],[594.6,192.7],[577.1,168.8],[577.1,168.8],[617.1,159.7],[591.9,124],[613.5,88.5],[613.5,88.5],[633.3,73.6],[633.3,73.6],[656,62.3],[672,27.9],[709.8,48],[709.8,48],[704.6,19.6],[734.6,25],[734.6,25],[755.1,30.6],[755.1,30.6],[800.2,58.3],[800.2,58.3],[859.6,83.3],[880.1,96.4],[880.1,96.4],[902.7,95.9],[948.7,144],[987.8,186.2],[1021.6,236.6],[1092.2,336.7],[1168,439.3],[1269.9,559.8],[1347.2,658.2],[1400.5,750.2],[1461.3,848.6],[1486.8,948],[1510.3,1014.8],[1522.1,1068],[1545.5,1107.3],[1527.4,1094.3],[1490.3,1057.1],[1427.1,1002],[1349.6,948.9],[1299.8,909.4],[1235.6,856.9],[1193.2,791.8],[1152.5,712.9],[1122.1,659.4],[1134.5,626.5],[1151.6,596.2],[1159.4,576.8],[1157.6,548.3],[1170.1,517.8],[1182.6,491.3],[1209.5,477.8],[1227.9,465.1],[1244.6,466.2],[1253.6,464.6],[1219.8,442.4],[1196.6,416.8],[1190.4,406],[1201.3,398.5],[1212.2,391],[1214.1,379.9],[1243,386.8],[1242.8,373.3],[1260.5,359.8],[1285.9,349],[1314.3,349],[1332.1,352.4],[1365.3,344.6],[1391,342.6],[1375.7,342.1],[1389.8,365.2],[1364.6,359.3],[1372.4,368.2],[1369.2,375],[1377.6,394.8],[1370.5,391.6],[1363.7,395.3],[1341.5,410.2],[1341.5,410.2],[1284.1,440],[1269,461.2],[1224.5,458.8],[1177.9,459.3],[1136.9,468.6],[1089,480],[1024.3,468.9],[977.3,477.9],[922.6,478.5],[881.9,487.3],[854.5,469.9],[843.4,456.3],[824.9,452.2],[821.3,461.8],[819.6,459.7],[817.9,457.6],[821.9,468.3],[820.7,471.1],[822.3,469.5],[820.3,442.9],[840.2,427.6],[834.5,406.9],[836.2,376.7],[832.1,372.5],[825.1,376],[818.9,376.4],[812.2,373.5],[800,353.8],[792.4,340],[774.4,343],[759.5,345.2],[752.6,356.1],[752.6,356.1],[754.4,379.3],[752,369.1],[754.7,359],[749.4,355.3],[744.1,351.6],[760.3,375.9],[776.5,400.2],[789.5,421.8],[799.4,444.2],[821.5,463.6],[822.9,465.4],[846.7,484.1],[866.2,501.5],[892.9,515.6],[899.3,516.1],[889.7,505.4],[899.7,509.9],[912.9,517.1],[912.9,517.1],[901.5,498.9],[901.5,498.9],[871.4,489.5],[871.4,489.5],[885.2,506.9],[885.2,506.9],[873.5,514.6],[873.5,514.6],[917.1,580.7],[960.7,646.8],[1034.6,735],[1034.6,735],[1099.8,810],[1099.8,810],[1148,883.8],[1178.8,937.3],[1178.8,937.3],[1231,1002.2],[1231,1002.2],[1289.8,1028.2],[1289.8,1028.2],[1302.5,1053.4],[1302.5,1053.4],[1320.4,1059.8],[1303.7,1014.6],[1287,969.4],[1237.7,912.8],[1197.1,869.4],[1163,805.9],[1146.3,762.7],[1141.9,741.5],[1137.4,753.4],[1143.8,728],[1157.6,716],[1153.5,700.6],[1149.4,685.2],[1169.9,661.8],[1187.1,647.4],[1195.9,629.8],[1189.6,602.1],[1174.2,566.4],[1170.5,539.1],[1170.1,528.4],[1166.8,514.5],[1177.3,511.1],[1194.7,490.5],[1210.1,480.8],[1234,463.2],[1257.2,454.9],[1295.5,456.7],[1294.9,447.2],[1282.6,429.3],[1294.5,429.3],[1322.8,417],[1288.9,360.6],[1288.9,360.6],[1238.8,363],[1169.2,323],[1112.8,275.9],[1056.4,228.8],[993.5,194.2],[982.6,193],[971.7,191.8],[920.5,161],[855.8,145.7],[833.1,164.8],[819.7,142.3],[800.8,143.4],[763.5,150.5],[739.6,169.8],[722.2,176.6],[685.8,171.3],[649.4,166],[629.1,172.4],[582.6,150.4],[538.9,125.4],[527.5,128.8],[541.1,151],[593.7,186.2],[632.9,209.2],[693.8,230.8],[753.5,256.2],[819,279.1],[883.1,301.7],[973.4,352.7],[1052.9,387.1],[1100.1,393.1],[1145,429],[1150.9,451.9],[1150.3,472.5],[1128,494.5],[1096.6,496.8],[1069.4,510.8],[1043.4,520.4],[1043.4,520.4],[1025.5,522.4],[1019.5,536.2],[1019.5,536.2],[1012.5,545.8],[985.8,528],[959.2,491.7],[960,469.4],[987.3,473.1],[1030.8,482.7],[1021.6,451.9],[1032.9,440],[1036.1,435.7],[1033.5,450.8],[1031.2,444],[1054.5,453.5],[1077.7,481.5],[1059.8,490.7],[1060.2,470.6],[1046.1,451.9],[1070.2,460],[1050.3,443.4],[1030.4,426.8],[1022.7,393.1],[1015.7,385.5],[1019.7,374.1],[1023.7,362.7],[1048.5,361.2],[1031.2,367.2],[1031.2,367.2],[1011.8,351],[988.2,340.2],[992.3,338.4],[996.4,336.6],[993.3,332.7],[999.7,338.8],[1012.1,336.8],[989.1,314.4],[989.1,314.4],[980.4,305.7],[980.4,305.7],[951.3,297.5],[956.6,300.7],[950.8,288.4],[939.5,275.5],[939.5,275.5],[954.5,295.2],[954.5,295.2],[964.1,316.2],[966,327.1],[928.5,320],[949.1,340.2],[953.2,347.7],[980.3,352.7],[980.3,352.7],[993.6,367.3],[995.2,384.4],[984.4,397.8],[1000.3,403.1],[1021.3,411.7],[1008.3,399.4],[1010,413.8],[989,421.3],[975.7,421.9],[957.1,420.3],[899.4,390.2],[911.2,383.3],[939.2,395.5],[914.2,383.2],[884.5,358.8],[894.6,357.6],[910.1,351],[923.6,340],[940.7,339.6],[958.1,339.7],[1010.6,368.1],[1015.5,373.7],[1016.4,371.8],[1024.2,379.2]]","[0,0.37864299999999995]","[0.37864299999999995,0.37864299999999995]","[-0.37864299999999995,0]","[-0.37864299999999995,-0.37864299999999995]","[0,0]","[0.37864299999999995,0]","[0,-0.37864299999999995]","[0.37864299999999995,-0.37864299999999995]",0,0,0,0,1,3,Laptop,11,9,9,1
