inst1_resp.keys,inst1_resp.rt,calibrationMouse.x,calibrationMouse.y,calibrationMouse.leftButton,calibrationMouse.midButton,calibrationMouse.rightButton,calibrationClick.x,calibrationClick.y,calibrationClick.leftButton,calibrationClick.midButton,calibrationClick.rightButton,calibrationClick.clicked_name,trialsc.thisRepN,trialsc.thisTrialN,trialsc.thisN,trialsc.thisIndex,trialsc.ran,calibration_x,calibration_y,participant,session,date,expName,psychopyVersion,OS,frameRate,ScreenRes_pixels,Camera_pixels,mouse_2.x,mouse_2.y,mouse_2.leftButton,mouse_2.midButton,mouse_2.rightButton,mouse_2.time,mouse_2.clicked_name,mouse.x,mouse.y,mouse.leftButton,mouse.midButton,mouse.rightButton,mouse.time,mouse.clicked_name,Choice,Trial,TrialDuration,MOUSE_GAZE,ET_GAZE,ET_GAZE_x_T,time,unixTime,ET_GAZE_NF,Loc_Option1_label,Loc_Option2_label,Loc_Cost_label,Loc_Qual_label,Loc_Option1_cost,Loc_Option2_cost,Loc_Option1_quality,Loc_Option2_quality,trials.thisRepN,trials.thisTrialN,trials.thisN,trials.thisIndex,trials.ran,Block,Device,cost1,qual1,cost2,qual2
space,2.6493,-0.203125,-0.162962963,1,0,0,-0.00625,0.32962963,1,0,0,calibration_square,0,0,0,12,1,0,0.33,02,001,2024-12-03_10h26.38.780,Attention_exp_legacy,2023.1.0,Win32,60.24096386,,,,,,,,,,,,,,,,,,,,,,,,,,,,,,,,,,,,,,,,,,,,
,,,,,,,-0.327083333,0.003703704,1,0,0,calibration_square,0,1,1,6,1,-0.33,0,02,001,2024-12-03_10h26.38.780,Attention_exp_legacy,2023.1.0,Win32,60.24096386,,,,,,,,,,,,,,,,,,,,,,,,,,,,,,,,,,,,,,,,,,,,
,,,,,,,-0.670833333,0.007407407,1,0,0,calibration_square,0,2,2,2,1,-0.67,0,02,001,2024-12-03_10h26.38.780,Attention_exp_legacy,2023.1.0,Win32,60.24096386,,,,,,,,,,,,,,,,,,,,,,,,,,,,,,,,,,,,,,,,,,,,
,,,,,,,0.004166667,-0.32037037,1,0,0,calibration_square,0,3,3,10,1,0,-0.33,02,001,2024-12-03_10h26.38.780,Attention_exp_legacy,2023.1.0,Win32,60.24096386,,,,,,,,,,,,,,,,,,,,,,,,,,,,,,,,,,,,,,,,,,,,
,,,,,,,0.325,-0.318518519,1,0,0,,0,4,4,15,1,0.33,-0.33,02,001,2024-12-03_10h26.38.780,Attention_exp_legacy,2023.1.0,Win32,60.24096386,,,,,,,,,,,,,,,,,,,,,,,,,,,,,,,,,,,,,,,,,,,,
,,,,,,,0.328125,-0.005555556,1,0,0,calibration_square,0,5,5,16,1,0.33,0,02,001,2024-12-03_10h26.38.780,Attention_exp_legacy,2023.1.0,Win32,60.24096386,,,,,,,,,,,,,,,,,,,,,,,,,,,,,,,,,,,,,,,,,,,,
,,,,,,,-0.68125,-0.662962963,1,0,0,,0,6,6,0,1,-0.67,-0.67,02,001,2024-12-03_10h26.38.780,Attention_exp_legacy,2023.1.0,Win32,60.24096386,,,,,,,,,,,,,,,,,,,,,,,,,,,,,,,,,,,,,,,,,,,,
,,,,,,,-0.667708333,0.325925926,1,0,0,calibration_square,0,7,7,3,1,-0.67,0.33,02,001,2024-12-03_10h26.38.780,Attention_exp_legacy,2023.1.0,Win32,60.24096386,,,,,,,,,,,,,,,,,,,,,,,,,,,,,,,,,,,,,,,,,,,,
,,,,,,,-0.327083333,-0.659259259,1,0,0,,0,8,8,4,1,-0.33,-0.67,02,001,2024-12-03_10h26.38.780,Attention_exp_legacy,2023.1.0,Win32,60.24096386,,,,,,,,,,,,,,,,,,,,,,,,,,,,,,,,,,,,,,,,,,,,
,,,,,,,-0.003125,0.674074074,1,0,0,calibration_square,0,9,9,13,1,0,0.67,02,001,2024-12-03_10h26.38.780,Attention_exp_legacy,2023.1.0,Win32,60.24096386,,,,,,,,,,,,,,,,,,,,,,,,,,,,,,,,,,,,,,,,,,,,
,,,,,,,0.003125,-0.003703704,1,0,0,calibration_square,0,10,10,11,1,0,0,02,001,2024-12-03_10h26.38.780,Attention_exp_legacy,2023.1.0,Win32,60.24096386,,,,,,,,,,,,,,,,,,,,,,,,,,,,,,,,,,,,,,,,,,,,
,,,,,,,-0.678125,-0.337037037,1,0,0,calibration_square,0,11,11,1,1,-0.67,-0.33,02,001,2024-12-03_10h26.38.780,Attention_exp_legacy,2023.1.0,Win32,60.24096386,,,,,,,,,,,,,,,,,,,,,,,,,,,,,,,,,,,,,,,,,,,,
,,,,,,,-0.328125,-0.338888889,1,0,0,calibration_square,0,12,12,5,1,-0.33,-0.33,02,001,2024-12-03_10h26.38.780,Attention_exp_legacy,2023.1.0,Win32,60.24096386,,,,,,,,,,,,,,,,,,,,,,,,,,,,,,,,,,,,,,,,,,,,
,,,,,,,-0.330208333,0.333333333,1,0,0,calibration_square,0,13,13,7,1,-0.33,0.33,02,001,2024-12-03_10h26.38.780,Attention_exp_legacy,2023.1.0,Win32,60.24096386,,,,,,,,,,,,,,,,,,,,,,,,,,,,,,,,,,,,,,,,,,,,
,,,,,,,-0.340625,0.67962963,1,0,0,,0,14,14,8,1,-0.33,0.67,02,001,2024-12-03_10h26.38.780,Attention_exp_legacy,2023.1.0,Win32,60.24096386,,,,,,,,,,,,,,,,,,,,,,,,,,,,,,,,,,,,,,,,,,,,
,,,,,,,0.327083333,0.342592593,1,0,0,,0,15,15,17,1,0.33,0.33,02,001,2024-12-03_10h26.38.780,Attention_exp_legacy,2023.1.0,Win32,60.24096386,,,,,,,,,,,,,,,,,,,,,,,,,,,,,,,,,,,,,,,,,,,,
,,,,,,,0.334375,-0.661111111,1,0,0,calibration_square,0,16,16,14,1,0.33,-0.67,02,001,2024-12-03_10h26.38.780,Attention_exp_legacy,2023.1.0,Win32,60.24096386,,,,,,,,,,,,,,,,,,,,,,,,,,,,,,,,,,,,,,,,,,,,
,,,,,,,0.663541667,0.677777778,1,0,0,calibration_square,0,17,17,19,1,0.67,0.67,02,001,2024-12-03_10h26.38.780,Attention_exp_legacy,2023.1.0,Win32,60.24096386,,,,,,,,,,,,,,,,,,,,,,,,,,,,,,,,,,,,,,,,,,,,
,,,,,,,0.677083333,-0.677777778,1,0,0,calibration_square,0,18,18,20,1,0.67,-0.67,02,001,2024-12-03_10h26.38.780,Attention_exp_legacy,2023.1.0,Win32,60.24096386,,,,,,,,,,,,,,,,,,,,,,,,,,,,,,,,,,,,,,,,,,,,
,,,,,,,0.329166667,0.677777778,1,0,0,calibration_square,0,19,19,18,1,0.33,0.67,02,001,2024-12-03_10h26.38.780,Attention_exp_legacy,2023.1.0,Win32,60.24096386,,,,,,,,,,,,,,,,,,,,,,,,,,,,,,,,,,,,,,,,,,,,
,,,,,,,0.009375,-0.674074074,1,0,0,calibration_square,0,20,20,9,1,0,-0.67,02,001,2024-12-03_10h26.38.780,Attention_exp_legacy,2023.1.0,Win32,60.24096386,,,,,,,,,,,,,,,,,,,,,,,,,,,,,,,,,,,,,,,,,,,,
,,,,,,,,,,,,,,,,,,,,02,001,2024-12-03_10h26.38.780,Attention_exp_legacy,2023.1.0,Win32,60.24096386,"[1920,1080]","[640,480]",[-0.052083333333333336],[-0.4981481481481482],[1],[0],[0],[4.380200000002986],"[""StartButton""]",[0.40729166666666666],[0.5462962962962963],[1],[0],[0],[4.0202999999970075],"[""Option2_label""]",Option2_label,1,5.0332,"[[-0.052083333333333336,-0.4981481481481482],[-0.052083333333333336,-0.4981481481481482],[-0.052083333333333336,-0.4981481481481482],[-0.052083333333333336,-0.4981481481481482],[-0.052083333333333336,-0.4981481481481482],[-0.052083333333333336,-0.4981481481481482],[-0.052083333333333336,-0.4981481481481482],[-0.052083333333333336,-0.4981481481481482],[-0.052083333333333336,-0.4981481481481482],[-0.052083333333333336,-0.4962962962962963],[-0.052083333333333336,-0.4962962962962963],[-0.052083333333333336,-0.4962962962962963],[-0.052083333333333336,-0.4962962962962963],[-0.052083333333333336,-0.4962962962962963],[-0.052083333333333336,-0.4962962962962963],[-0.052083333333333336,-0.4962962962962963],[-0.052083333333333336,-0.4962962962962963],[-0.052083333333333336,-0.4962962962962963],[-0.052083333333333336,-0.4962962962962963],[-0.052083333333333336,-0.4962962962962963],[-0.052083333333333336,-0.4962962962962963],[-0.052083333333333336,-0.4962962962962963],[-0.052083333333333336,-0.4962962962962963],[-0.052083333333333336,-0.4962962962962963],[-0.052083333333333336,-0.4962962962962963],[-0.052083333333333336,-0.4962962962962963],[-0.052083333333333336,-0.4962962962962963],[-0.052083333333333336,-0.4962962962962963],[-0.052083333333333336,-0.4962962962962963],[-0.052083333333333336,-0.4962962962962963],[-0.052083333333333336,-0.4962962962962963],[-0.052083333333333336,-0.4962962962962963],[-0.052083333333333336,-0.4962962962962963],[-0.052083333333333336,-0.4962962962962963],[-0.052083333333333336,-0.4962962962962963],[-0.052083333333333336,-0.4962962962962963],[-0.052083333333333336,-0.4962962962962963],[-0.052083333333333336,-0.4962962962962963],[-0.052083333333333336,-0.4962962962962963],[-0.052083333333333336,-0.4962962962962963],[-0.052083333333333336,-0.4962962962962963],[-0.052083333333333336,-0.4962962962962963],[-0.052083333333333336,-0.4962962962962963],[-0.052083333333333336,-0.4962962962962963],[-0.052083333333333336,-0.4962962962962963],[-0.052083333333333336,-0.4962962962962963],[-0.052083333333333336,-0.4962962962962963],[-0.052083333333333336,-0.4962962962962963],[-0.052083333333333336,-0.4962962962962963],[-0.052083333333333336,-0.4962962962962963],[-0.052083333333333336,-0.4962962962962963],[-0.052083333333333336,-0.4962962962962963],[-0.052083333333333336,-0.4962962962962963],[-0.052083333333333336,-0.4962962962962963],[-0.052083333333333336,-0.4962962962962963],[-0.052083333333333336,-0.4962962962962963],[-0.052083333333333336,-0.4962962962962963],[-0.052083333333333336,-0.4962962962962963],[-0.052083333333333336,-0.4962962962962963],[-0.052083333333333336,-0.4962962962962963],[-0.052083333333333336,-0.4962962962962963],[-0.052083333333333336,-0.4962962962962963],[-0.052083333333333336,-0.4962962962962963],[-0.052083333333333336,-0.4962962962962963],[-0.052083333333333336,-0.4962962962962963],[-0.052083333333333336,-0.4962962962962963],[-0.052083333333333336,-0.4962962962962963],[-0.052083333333333336,-0.4962962962962963],[-0.052083333333333336,-0.4962962962962963],[-0.052083333333333336,-0.4962962962962963],[-0.052083333333333336,-0.4962962962962963],[-0.052083333333333336,-0.4962962962962963],[-0.052083333333333336,-0.4962962962962963],[-0.052083333333333336,-0.4962962962962963],[-0.052083333333333336,-0.4962962962962963],[-0.052083333333333336,-0.4962962962962963],[-0.052083333333333336,-0.4962962962962963],[-0.052083333333333336,-0.4962962962962963],[-0.052083333333333336,-0.4962962962962963],[-0.052083333333333336,-0.4962962962962963],[-0.052083333333333336,-0.4962962962962963],[-0.052083333333333336,-0.4962962962962963],[-0.052083333333333336,-0.4962962962962963],[-0.052083333333333336,-0.4962962962962963],[-0.052083333333333336,-0.4962962962962963],[-0.052083333333333336,-0.4962962962962963],[-0.052083333333333336,-0.4962962962962963],[-0.052083333333333336,-0.4962962962962963],[-0.052083333333333336,-0.4962962962962963],[-0.052083333333333336,-0.4962962962962963],[-0.052083333333333336,-0.4962962962962963],[-0.052083333333333336,-0.4962962962962963],[-0.052083333333333336,-0.4962962962962963],[-0.052083333333333336,-0.4962962962962963],[-0.052083333333333336,-0.4962962962962963],[-0.052083333333333336,-0.4962962962962963],[-0.052083333333333336,-0.4962962962962963],[-0.052083333333333336,-0.4962962962962963],[-0.052083333333333336,-0.4962962962962963],[-0.052083333333333336,-0.4962962962962963],[-0.052083333333333336,-0.4962962962962963],[-0.052083333333333336,-0.4962962962962963],[-0.052083333333333336,-0.4962962962962963],[-0.052083333333333336,-0.4962962962962963],[-0.052083333333333336,-0.4962962962962963],[-0.052083333333333336,-0.4962962962962963],[-0.052083333333333336,-0.4962962962962963],[-0.052083333333333336,-0.4962962962962963],[-0.052083333333333336,-0.4962962962962963],[-0.052083333333333336,-0.4962962962962963],[-0.052083333333333336,-0.4962962962962963],[-0.052083333333333336,-0.4962962962962963],[-0.052083333333333336,-0.4962962962962963],[-0.052083333333333336,-0.4962962962962963],[-0.052083333333333336,-0.4962962962962963],[-0.052083333333333336,-0.4962962962962963],[-0.052083333333333336,-0.4962962962962963],[-0.052083333333333336,-0.4962962962962963],[-0.052083333333333336,-0.4962962962962963],[-0.052083333333333336,-0.4962962962962963],[-0.052083333333333336,-0.4962962962962963],[-0.052083333333333336,-0.4962962962962963],[-0.052083333333333336,-0.4962962962962963],[-0.052083333333333336,-0.4962962962962963],[-0.052083333333333336,-0.4962962962962963],[-0.052083333333333336,-0.4962962962962963],[-0.052083333333333336,-0.4962962962962963],[-0.052083333333333336,-0.4962962962962963],[-0.052083333333333336,-0.4962962962962963],[-0.052083333333333336,-0.4962962962962963],[-0.052083333333333336,-0.4962962962962963],[-0.052083333333333336,-0.4962962962962963],[-0.052083333333333336,-0.4962962962962963],[-0.052083333333333336,-0.4962962962962963],[-0.052083333333333336,-0.4962962962962963],[-0.052083333333333336,-0.4962962962962963],[-0.052083333333333336,-0.4962962962962963],[-0.052083333333333336,-0.4962962962962963],[-0.052083333333333336,-0.4962962962962963],[-0.052083333333333336,-0.4962962962962963],[-0.052083333333333336,-0.4962962962962963],[-0.052083333333333336,-0.4962962962962963],[-0.052083333333333336,-0.4962962962962963],[-0.052083333333333336,-0.4962962962962963],[-0.052083333333333336,-0.4962962962962963],[-0.052083333333333336,-0.4962962962962963],[-0.052083333333333336,-0.4962962962962963],[-0.052083333333333336,-0.4962962962962963],[-0.052083333333333336,-0.4962962962962963],[-0.052083333333333336,-0.4962962962962963],[-0.052083333333333336,-0.4962962962962963],[-0.052083333333333336,-0.4962962962962963],[-0.052083333333333336,-0.4962962962962963],[-0.052083333333333336,-0.4962962962962963],[-0.052083333333333336,-0.4962962962962963],[-0.052083333333333336,-0.49074074074074076],[-0.052083333333333336,-0.4759259259259259],[-0.04791666666666667,-0.43333333333333335],[-0.04583333333333333,-0.4185185185185185],[-0.03333333333333333,-0.37222222222222223],[-0.021875,-0.34629629629629627],[0.022916666666666665,-0.24259259259259258],[0.034375,-0.2074074074074074],[0.0875,-0.07592592592592592],[0.10833333333333334,-0.024074074074074074],[0.16979166666666667,0.11481481481481481],[0.19375,0.16666666666666666],[0.246875,0.2777777777777778],[0.25416666666666665,0.29444444444444445],[0.27291666666666664,0.3388888888888889],[0.278125,0.3537037037037037],[0.2947916666666667,0.387037037037037],[0.30104166666666665,0.4],[0.3177083333333333,0.43703703703703706],[0.321875,0.44814814814814813],[0.33125,0.4722222222222222],[0.33229166666666665,0.4759259259259259],[0.34270833333333334,0.4962962962962963],[0.3458333333333333,0.5],[0.35833333333333334,0.5185185185185185],[0.36041666666666666,0.5222222222222223],[0.3625,0.5259259259259259],[0.3625,0.5259259259259259],[0.36770833333333336,0.5296296296296297],[0.38333333333333336,0.5370370370370371],[0.4,0.5425925925925926],[0.40625,0.5444444444444444],[0.40729166666666666,0.5462962962962963],[0.40729166666666666,0.5462962962962963],[0.40729166666666666,0.5462962962962963],[0.40729166666666666,0.5462962962962963],[0.40729166666666666,0.5462962962962963],[0.40729166666666666,0.5462962962962963],[0.40729166666666666,0.5462962962962963],[0.40729166666666666,0.5462962962962963],[0.40729166666666666,0.5462962962962963],[0.40729166666666666,0.5462962962962963],[0.40729166666666666,0.5462962962962963],[0.40729166666666666,0.5462962962962963],[0.40729166666666666,0.5462962962962963],[0.40729166666666666,0.5462962962962963],[0.40729166666666666,0.5462962962962963],[0.40729166666666666,0.5462962962962963],[0.40729166666666666,0.5462962962962963],[0.40729166666666666,0.5462962962962963],[0.40729166666666666,0.5462962962962963],[0.40729166666666666,0.5462962962962963],[0.40729166666666666,0.5462962962962963],[0.40729166666666666,0.5462962962962963],[0.40729166666666666,0.5462962962962963],[0.40729166666666666,0.5462962962962963],[0.40729166666666666,0.5462962962962963],[0.40729166666666666,0.5462962962962963],[0.40729166666666666,0.5462962962962963],[0.40729166666666666,0.5462962962962963],[0.40729166666666666,0.5462962962962963],[0.40729166666666666,0.5462962962962963],[0.40729166666666666,0.5462962962962963],[0.40729166666666666,0.5462962962962963],[0.40729166666666666,0.5462962962962963],[0.40729166666666666,0.5462962962962963],[0.40729166666666666,0.5462962962962963],[0.40729166666666666,0.5462962962962963],[0.40729166666666666,0.5462962962962963],[0.40729166666666666,0.5462962962962963],[0.40729166666666666,0.5462962962962963],[0.40729166666666666,0.5462962962962963],[0.40729166666666666,0.5462962962962963],[0.40729166666666666,0.5462962962962963],[0.40729166666666666,0.5462962962962963],[0.40729166666666666,0.5462962962962963],[0.40729166666666666,0.5462962962962963],[0.40729166666666666,0.5462962962962963],[0.40729166666666666,0.5462962962962963],[0.40729166666666666,0.5462962962962963],[0.40729166666666666,0.5462962962962963],[0.40729166666666666,0.5462962962962963],[0.40729166666666666,0.5462962962962963],[0.40729166666666666,0.5462962962962963],[0.40729166666666666,0.5462962962962963],[0.40729166666666666,0.5462962962962963],[0.40729166666666666,0.5462962962962963],[0.40729166666666666,0.5462962962962963],[0.40729166666666666,0.5462962962962963],[0.40729166666666666,0.5462962962962963],[0.40729166666666666,0.5462962962962963],[0.40729166666666666,0.5462962962962963],[0.40729166666666666,0.5462962962962963],[0.40729166666666666,0.5462962962962963],[0.40729166666666666,0.5462962962962963],[0.40729166666666666,0.5462962962962963],[0.40729166666666666,0.5462962962962963],[0.40729166666666666,0.5462962962962963],[0.40729166666666666,0.5462962962962963],[0.40729166666666666,0.5462962962962963],[0.40729166666666666,0.5462962962962963],[0.40729166666666666,0.5462962962962963],[0.40729166666666666,0.5462962962962963],[0.40729166666666666,0.5462962962962963],[0.40729166666666666,0.5462962962962963],[0.40729166666666666,0.5462962962962963],[0.40729166666666666,0.5462962962962963],[0.40729166666666666,0.5462962962962963],[0.40729166666666666,0.5462962962962963],[0.40729166666666666,0.5462962962962963],[0.40729166666666666,0.5462962962962963],[0.40729166666666666,0.5462962962962963],[0.40729166666666666,0.5462962962962963],[0.40729166666666666,0.5462962962962963],[0.40729166666666666,0.5462962962962963],[0.40729166666666666,0.5462962962962963],[0.40729166666666666,0.5462962962962963],[0.40729166666666666,0.5462962962962963],[0.40729166666666666,0.5462962962962963],[0.40729166666666666,0.5462962962962963],[0.40729166666666666,0.5462962962962963],[0.40729166666666666,0.5462962962962963],[0.40729166666666666,0.5462962962962963],[0.40729166666666666,0.5462962962962963],[0.40729166666666666,0.5462962962962963],[0.40729166666666666,0.5462962962962963],[0.40729166666666666,0.5462962962962963],[0.40729166666666666,0.5462962962962963],[0.40729166666666666,0.5462962962962963],[0.40729166666666666,0.5462962962962963],[0.40729166666666666,0.5462962962962963],[0.40729166666666666,0.5462962962962963],[0.40729166666666666,0.5462962962962963],[0.40729166666666666,0.5462962962962963],[0.40729166666666666,0.5462962962962963],[0.40729166666666666,0.5462962962962963],[0.40729166666666666,0.5462962962962963],[0.40729166666666666,0.5462962962962963],[0.40729166666666666,0.5462962962962963],[0.40729166666666666,0.5462962962962963],[0.40729166666666666,0.5462962962962963],[0.40729166666666666,0.5462962962962963],[0.40729166666666666,0.5462962962962963],[0.40729166666666666,0.5462962962962963],[0.40729166666666666,0.5462962962962963],[0.40729166666666666,0.5462962962962963],[0.40729166666666666,0.5462962962962963]]","[[0.16927083333333334,0.20962962962962972],[0.16927083333333334,0.20962962962962972],[0.16927083333333334,0.20962962962962972],[0.16927083333333334,0.20962962962962972],[0.15322916666666658,0.2270370370370371],[0.15322916666666658,0.2270370370370371],[0.1443749999999999,0.2242592592592593],[0.1443749999999999,0.2242592592592593],[0.13552083333333323,0.22148148148148153],[0.13552083333333323,0.22148148148148153],[0.11197916666666667,0.25851851851851854],[0.11197916666666667,0.25851851851851854],[0.09604166666666672,0.2598148148148147],[0.09604166666666672,0.2598148148148147],[0.08677083333333328,0.28111111111111103],[0.08677083333333328,0.28111111111111103],[0.08031249999999991,0.3001851851851852],[0.08031249999999991,0.3001851851851852],[0.08302083333333338,0.30833333333333335],[0.08302083333333338,0.30833333333333335],[0.07979166666666657,0.33277777777777784],[0.07979166666666657,0.33277777777777784],[0.04125000000000002,0.3405555555555555],[0.04125000000000002,0.3405555555555555],[-0.013229166666666714,0.3375925925925925],[-0.013229166666666714,0.3375925925925925],[-0.06343749999999998,0.3025925925925925],[-0.06343749999999998,0.3025925925925925],[-0.11447916666666665,0.2698148148148149],[-0.11447916666666665,0.2698148148148149],[-0.14645833333333336,0.22888888888888892],[-0.14645833333333336,0.22888888888888892],[-0.1860416666666667,0.22370370370370363],[-0.1860416666666667,0.22370370370370363],[-0.2564583333333334,0.22759259259259254],[-0.2564583333333334,0.22759259259259254],[-0.32302083333333337,0.22462962962962954],[-0.32302083333333337,0.22462962962962954],[-0.36208333333333337,0.20500000000000007],[-0.36208333333333337,0.20500000000000007],[-0.40177083333333335,0.1300000000000001],[-0.40177083333333335,0.1300000000000001],[-0.4174999999999999,0.09870370370370361],[-0.4174999999999999,0.09870370370370361],[-0.42947916666666663,0.053703703703703705],[-0.42947916666666663,0.053703703703703705],[-0.4265625,0.06814814814814807],[-0.4265625,0.06814814814814807],[-0.4262500000000001,0.072037037037037],[-0.4262500000000001,0.072037037037037],[-0.4319791666666667,0.046481481481481526],[-0.4319791666666667,0.046481481481481526],[-0.4319791666666667,0.046481481481481526],[-0.4241666666666667,0.03518518518518519],[-0.4241666666666667,0.03518518518518519],[-0.3741666666666667,-0.00592592592592601],[-0.3741666666666667,-0.00592592592592601],[-0.3345833333333334,-0.0507407407407407],[-0.3345833333333334,-0.0507407407407407],[-0.36135416666666664,-0.014629629629629588],[-0.36135416666666664,-0.014629629629629588],[-0.34500000000000003,0.036481481481481566],[-0.34500000000000003,0.036481481481481566],[-0.30666666666666664,0.041666666666666664],[-0.30666666666666664,0.041666666666666664],[-0.255625,0.06518518518518526],[-0.255625,0.06518518518518526],[-0.2202083333333333,0.07314814814814814],[-0.2202083333333333,0.07314814814814814],[-0.17052083333333337,0.11203703703703703],[-0.17052083333333337,0.11203703703703703],[-0.10697916666666671,0.15703703703703695],[-0.10697916666666671,0.15703703703703695],[-0.028958333333333287,0.15314814814814823],[-0.028958333333333287,0.15314814814814823],[0.044479166666666715,0.1507407407407407],[0.044479166666666715,0.1507407407407407],[0.1252083333333334,0.1824074074074074],[0.1252083333333334,0.1824074074074074],[0.23708333333333323,0.14388888888888898],[0.23708333333333323,0.14388888888888898],[0.23708333333333323,0.14388888888888898],[0.23708333333333323,0.14388888888888898],[0.3164583333333333,0.15092592592592594],[0.3164583333333333,0.15092592592592594],[0.36697916666666663,0.2],[0.36697916666666663,0.2],[0.36697916666666663,0.2],[0.36697916666666663,0.2],[0.39031250000000006,0.19685185185185178],[0.39031250000000006,0.19685185185185178],[0.4202083333333334,0.23574074074074067],[0.4202083333333334,0.23574074074074067],[0.3707291666666668,0.26129629629629636],[0.3707291666666668,0.26129629629629636],[0.29583333333333334,0.2551851851851851],[0.29583333333333334,0.2551851851851851],[0.18354166666666671,0.31555555555555553],[0.18354166666666671,0.31555555555555553],[0.06843750000000005,0.3992592592592593],[0.06843750000000005,0.3992592592592593],[-0.04010416666666667,0.4148148148148148],[-0.04010416666666667,0.4148148148148148],[-0.11697916666666662,0.44166666666666665],[-0.11697916666666662,0.44166666666666665],[-0.20406249999999998,0.4359259259259259],[-0.20406249999999998,0.4359259259259259],[-0.2773958333333333,0.41444444444444434],[-0.2773958333333333,0.41444444444444434],[-0.2773958333333333,0.41444444444444434],[-0.2773958333333333,0.41444444444444434],[-0.3544791666666666,0.49296296296296305],[-0.3544791666666666,0.49296296296296305],[-0.44208333333333333,0.4918518518518519],[-0.44208333333333333,0.4918518518518519],[-0.41770833333333335,0.48259259259259263],[-0.41770833333333335,0.48259259259259263],[-0.35031249999999997,0.5050000000000001],[-0.35031249999999997,0.5050000000000001],[-0.2804166666666667,0.4861111111111111],[-0.2804166666666667,0.4861111111111111],[-0.2077083333333333,0.42907407407407416],[-0.2077083333333333,0.42907407407407416],[-0.14833333333333332,0.4331481481481481],[-0.14833333333333332,0.4331481481481481],[-0.09437500000000003,0.4625925925925925],[-0.09437500000000003,0.4625925925925925],[-0.06322916666666671,0.4872222222222223],[-0.06322916666666671,0.4872222222222223],[-0.06322916666666671,0.4872222222222223],[-0.06322916666666671,0.4872222222222223],[-0.006979166666666714,0.4801851851851851],[-0.006979166666666714,0.4801851851851851],[0.06385416666666661,0.44592592592592584],[0.06385416666666661,0.44592592592592584],[0.1564583333333334,0.4662962962962962],[0.1564583333333334,0.4662962962962962],[0.21354166666666666,0.469074074074074],[0.21354166666666666,0.469074074074074],[0.25020833333333337,0.4837037037037038],[0.25020833333333337,0.4837037037037038],[0.28635416666666674,0.4766666666666666],[0.28635416666666674,0.4766666666666666],[0.32708333333333334,0.5079629629629628],[0.32708333333333334,0.5079629629629628],[0.39072916666666657,0.4551851851851851],[0.39072916666666657,0.4551851851851851],[0.39072916666666657,0.4551851851851851],[0.39072916666666657,0.4551851851851851],[0.42854166666666677,0.397037037037037],[0.42854166666666677,0.397037037037037],[0.4921875,0.31851851851851853],[0.4921875,0.31851851851851853],[0.5136458333333332,0.2564814814814815],[0.5136458333333332,0.2564814814814815],[0.5527083333333332,0.2044444444444444],[0.5527083333333332,0.2044444444444444],[0.5349999999999999,0.18000000000000008],[0.5349999999999999,0.18000000000000008],[0.5151041666666667,0.13537037037037042],[0.5151041666666667,0.13537037037037042],[0.46895833333333337,0.09000000000000004],[0.46895833333333337,0.09000000000000004],[0.42635416666666665,0.05851851851851856],[0.42635416666666665,0.05851851851851856],[0.3793750000000001,-0.005555555555555556],[0.3793750000000001,-0.005555555555555556],[0.3016666666666666,-0.010185185185185186],[0.3016666666666666,-0.010185185185185186],[0.2361458333333334,0.011296296296296339],[0.2361458333333334,0.011296296296296339],[0.18083333333333323,0.027962962962963005],[0.18083333333333323,0.027962962962963005],[0.14697916666666658,0.04685185185185177],[0.14697916666666658,0.04685185185185177],[0.08989583333333329,0.057777777777777865],[0.08989583333333329,0.057777777777777865],[0.10374999999999991,0.0014814814814813973],[0.10374999999999991,0.0014814814814813973],[0.11958333333333329,-0.015370370370370286],[0.11958333333333329,-0.015370370370370286],[0.14406249999999995,-0.025185185185185227],[0.14406249999999995,-0.025185185185185227],[0.17708333333333334,-0.025925925925925925],[0.17708333333333334,-0.025925925925925925],[0.20010416666666658,-0.072037037037037],[0.20010416666666658,-0.072037037037037],[0.23479166666666676,-0.05759259259259263],[0.23479166666666676,-0.05759259259259263],[0.27072916666666674,-0.15018518518518523],[0.27072916666666674,-0.15018518518518523],[0.27072916666666674,-0.15018518518518523],[0.27447916666666666,-0.11129629629629634],[0.27447916666666666,-0.11129629629629634],[0.2791666666666667,-0.12407407407407407],[0.2791666666666667,-0.12407407407407407],[0.3098958333333333,-0.21296296296296297],[0.3098958333333333,-0.21296296296296297],[0.32874999999999993,-0.267037037037037],[0.32874999999999993,-0.267037037037037],[0.3078125,-0.3068518518518518],[0.3078125,-0.3068518518518518],[0.29958333333333326,-0.3831481481481481],[0.29958333333333326,-0.3831481481481481],[0.2747916666666666,-0.34388888888888886],[0.2747916666666666,-0.34388888888888886],[0.2747916666666666,-0.34388888888888886],[0.22125000000000009,-0.22037037037037038],[0.22125000000000009,-0.22037037037037038],[0.22125000000000009,-0.22037037037037038],[0.17531249999999995,-0.1633333333333333],[0.17531249999999995,-0.1633333333333333],[0.13760416666666658,-0.06018518518518518],[0.13760416666666658,-0.06018518518518518],[0.13239583333333324,-0.06222222222222226],[0.13239583333333324,-0.06222222222222226],[0.11645833333333329,-0.013518518518518435],[0.11645833333333329,-0.013518518518518435],[0.06447916666666664,0.12314814814814815],[0.06447916666666664,0.12314814814814815],[-0.0007291666666667141,0.2485185185185186],[-0.0007291666666667141,0.2485185185185186],[-0.033958333333333354,0.35537037037037034],[-0.033958333333333354,0.35537037037037034],[-0.05531250000000002,0.47314814814814815],[-0.05531250000000002,0.47314814814814815],[-0.0626041666666667,0.46888888888888897],[-0.0626041666666667,0.46888888888888897],[-0.06593749999999995,0.4377777777777777],[-0.06593749999999995,0.4377777777777777],[-0.09156249999999998,0.4385185185185184],[-0.09156249999999998,0.4385185185185184],[-0.12437499999999997,0.443888888888889],[-0.12437499999999997,0.443888888888889],[-0.19166666666666668,0.4714814814814815],[-0.19166666666666668,0.4714814814814815],[-0.253125,0.5366666666666666],[-0.253125,0.5366666666666666],[-0.27531249999999996,0.5199999999999999],[-0.27531249999999996,0.5199999999999999],[-0.28479166666666667,0.48333333333333334],[-0.28479166666666667,0.48333333333333334],[-0.28531249999999997,0.4222222222222222],[-0.28531249999999997,0.4222222222222222],[-0.2961458333333333,0.3755555555555555],[-0.2961458333333333,0.3755555555555555],[-0.3115625,0.3351851851851852],[-0.3115625,0.3351851851851852],[-0.25354166666666667,0.2490740740740741],[-0.25354166666666667,0.2490740740740741],[-0.22312500000000005,0.16537037037037028],[-0.22312500000000005,0.16537037037037028],[-0.1935416666666666,0.10981481481481473],[-0.1935416666666666,0.10981481481481473],[-0.13958333333333334,0.02962962962962963],[-0.13958333333333334,0.02962962962962963],[-0.10125000000000005,-0.08037037037037033],[-0.10125000000000005,-0.08037037037037033],[-0.05635416666666669,-0.15722222222222218],[-0.05635416666666669,-0.15722222222222218],[-0.03854166666666667,-0.20388888888888893],[-0.03854166666666667,-0.20388888888888893],[-0.02677083333333338,-0.22185185185185188],[-0.02677083333333338,-0.22185185185185188],[-0.011354166666666643,-0.2492592592592593],[-0.011354166666666643,-0.2492592592592593],[-0.000833333333333286,-0.2687037037037037],[-0.000833333333333286,-0.2687037037037037],[-0.008541666666666715,-0.2890740740740741],[-0.008541666666666715,-0.2890740740740741],[-0.009583333333333381,-0.2492592592592593],[-0.009583333333333381,-0.2492592592592593],[0.00302083333333331,-0.2433333333333333],[0.00302083333333331,-0.2433333333333333],[0.05499999999999995,-0.25833333333333336],[0.05499999999999995,-0.25833333333333336],[0.13572916666666662,-0.2607407407407408],[0.13572916666666662,-0.2607407407407408],[0.1881249999999999,-0.2448148148148148],[0.1881249999999999,-0.2448148148148148],[0.25885416666666666,-0.24462962962962967],[0.25885416666666666,-0.24462962962962967],[0.31906249999999997,-0.24722222222222223],[0.31906249999999997,-0.24722222222222223],[0.37531249999999994,-0.2577777777777778],[0.37531249999999994,-0.2577777777777778],[0.44989583333333344,-0.21074074074074076],[0.44989583333333344,-0.21074074074074076],[0.4866666666666667,-0.15796296296296297],[0.4866666666666667,-0.15796296296296297],[0.5520833333333334,-0.11962962962962967],[0.5520833333333334,-0.11962962962962967],[0.6247916666666666,-0.10407407407407405],[0.6247916666666666,-0.10407407407407405],[0.6334374999999999,0.009999999999999959],[0.6334374999999999,0.009999999999999959],[0.6255208333333333,0.10055555555555547],[0.6255208333333333,0.10055555555555547],[0.5941666666666667,0.16351851851851842],[0.5941666666666667,0.16351851851851842],[0.583125,0.16425925925925935],[0.583125,0.16425925925925935]]","[[0.16927083333333334,0.20962962962962972,0.0002999999970256795],[0.16927083333333334,0.20962962962962972,0.0379999999999967],[0.16927083333333334,0.20962962962962972,0.041899999991059644],[0.16927083333333334,0.20962962962962972,0.06119999998807657],[0.15322916666666658,0.2270370370370371,0.09449999999999648],[0.15322916666666658,0.2270370370370371,0.10200000000000387],[0.1443749999999999,0.2242592592592593,0.12749999999999773],[0.1443749999999999,0.2242592592592593,0.13509999999403988],[0.13552083333333323,0.22148148148148153,0.16079999999702466],[0.13552083333333323,0.22148148148148153,0.17569999998808328],[0.11197916666666667,0.25851851851851854,0.19599999999999795],[0.11197916666666667,0.25851851851851854,0.20239999999105862],[0.09604166666666672,0.2598148148148147,0.2259999999999991],[0.09604166666666672,0.2598148148148147,0.23339999999106453],[0.08677083333333328,0.28111111111111103,0.259299999997026],[0.08677083333333328,0.28111111111111103,0.2664999999999935],[0.08031249999999991,0.3001851851851852,0.29259999999403874],[0.08031249999999991,0.3001851851851852,0.3001999999880809],[0.08302083333333338,0.30833333333333335,0.3259999999999934],[0.08302083333333338,0.30833333333333335,0.33339999999105885],[0.07979166666666657,0.33277777777777784,0.3607999999970133],[0.07979166666666657,0.33277777777777784,0.36789999999105305],[0.04125000000000002,0.3405555555555555,0.3943999999910659],[0.04125000000000002,0.3405555555555555,0.40119999998808],[-0.013229166666666714,0.3375925925925925,0.42739999999105294],[-0.013229166666666714,0.3375925925925925,0.43419999998808123],[-0.06343749999999998,0.3025925925925925,0.46119999998808225],[-0.06343749999999998,0.3025925925925925,0.4691999999880778],[-0.11447916666666665,0.2698148148148149,0.49409999999403453],[-0.11447916666666665,0.2698148148148149,0.5011999999880743],[-0.14645833333333336,0.22888888888888892,0.5259999999999962],[-0.14645833333333336,0.22888888888888892,0.5326999999880826],[-0.1860416666666667,0.22370370370370363,0.5607999999970161],[-0.1860416666666667,0.22370370370370363,0.5676999999880792],[-0.2564583333333334,0.22759259259259254,0.5949999999999989],[-0.2564583333333334,0.22759259259259254,0.6018999999910619],[-0.32302083333333337,0.22462962962962954,0.6273999999910558],[-0.32302083333333337,0.22462962962962954,0.6341999999880841],[-0.36208333333333337,0.20500000000000007,0.6606999999880827],[-0.36208333333333337,0.20500000000000007,0.6677999999970154],[-0.40177083333333335,0.1300000000000001,0.6941999999880863],[-0.40177083333333335,0.1300000000000001,0.7009999999999934],[-0.4174999999999999,0.09870370370370361,0.7273999999910643],[-0.4174999999999999,0.09870370370370361,0.7351999999880832],[-0.42947916666666663,0.053703703703703705,0.760699999988077],[-0.42947916666666663,0.053703703703703705,0.7680000000000007],[-0.4265625,0.06814814814814807,0.7944999999999993],[-0.4265625,0.06814814814814807,0.8020000000000067],[-0.4262500000000001,0.072037037037037,0.8273999999910586],[-0.4262500000000001,0.072037037037037,0.8340000000000032],[-0.4319791666666667,0.046481481481481526,0.8611999999880737],[-0.4319791666666667,0.046481481481481526,0.8709999999999951],[-0.4319791666666667,0.046481481481481526,0.8806999999880816],[-0.4241666666666667,0.03518518518518519,0.9110999999940361],[-0.4241666666666667,0.03518518518518519,0.9189999999999969],[-0.3741666666666667,-0.00592592592592601,0.9486999999880794],[-0.3741666666666667,-0.00592592592592601,0.9560000000000031],[-0.3345833333333334,-0.0507407407407407,0.9817999999970226],[-0.3345833333333334,-0.0507407407407407,0.9891999999880738],[-0.36135416666666664,-0.014629629629629588,1.0132999999970167],[-0.36135416666666664,-0.014629629629629588,1.0206999999880821],[-0.34500000000000003,0.036481481481481566,1.0465999999940436],[-0.34500000000000003,0.036481481481481566,1.0540999999940368],[-0.30666666666666664,0.041666666666666664,1.0795999999940449],[-0.30666666666666664,0.041666666666666664,1.0895999999940358],[-0.255625,0.06518518518518526,1.1129999999999995],[-0.255625,0.06518518518518526,1.120399999991065],[-0.2202083333333333,0.07314814814814814,1.1462999999970265],[-0.2202083333333333,0.07314814814814814,1.154299999997022],[-0.17052083333333337,0.11203703703703703,1.1798999999910649],[-0.17052083333333337,0.11203703703703703,1.1876999999880837],[-0.10697916666666671,0.15703703703703695,1.2126999999880752],[-0.10697916666666671,0.15703703703703695,1.2200999999940336],[-0.028958333333333287,0.15314814814814823,1.2425000000000068],[-0.028958333333333287,0.15314814814814823,1.2501999999880837],[0.044479166666666715,0.1507407407407407,1.2777999999970149],[0.044479166666666715,0.1507407407407407,1.284699999988078],[0.1252083333333334,0.1824074074074074,1.3090999999940465],[0.1252083333333334,0.1824074074074074,1.3170000000000073],[0.23708333333333323,0.14388888888888898,1.3428999999910616],[0.23708333333333323,0.14388888888888898,1.351799999997013],[0.23708333333333323,0.14388888888888898,1.3585000000000065],[0.23708333333333323,0.14388888888888898,1.3768999999910534],[0.3164583333333333,0.15092592592592594,1.4091999999880755],[0.3164583333333333,0.15092592592592594,1.4176999999880735],[0.36697916666666663,0.2,1.4447999999970165],[0.36697916666666663,0.2,1.4530999999940377],[0.36697916666666663,0.2,1.4585999999940356],[0.36697916666666663,0.2,1.4770000000000039],[0.39031250000000006,0.19685185185185178,1.510699999988077],[0.39031250000000006,0.19685185185185178,1.517699999988082],[0.4202083333333334,0.23574074074074067,1.5425999999940387],[0.4202083333333334,0.23574074074074067,1.5507999999970252],[0.3707291666666668,0.26129629629629636,1.5773999999910586],[0.3707291666666668,0.26129629629629636,1.5841999999880727],[0.29583333333333334,0.2551851851851851,1.6107999999970133],[0.29583333333333334,0.2551851851851851,1.6177999999970183],[0.18354166666666671,0.31555555555555553,1.642599999994033],[0.18354166666666671,0.31555555555555553,1.6500000000000057],[0.06843750000000005,0.3992592592592593,1.67589999999106],[0.06843750000000005,0.3992592592592593,1.6836999999880788],[-0.04010416666666667,0.4148148148148148,1.7106999999880799],[-0.04010416666666667,0.4148148148148148,1.717599999994036],[-0.11697916666666662,0.44166666666666665,1.744599999994037],[-0.11697916666666662,0.44166666666666665,1.751599999994042],[-0.20406249999999998,0.4359259259259259,1.7773999999910615],[-0.20406249999999998,0.4359259259259259,1.784699999988078],[-0.2773958333333333,0.41444444444444434,1.8107999999970161],[-0.2773958333333333,0.41444444444444434,1.819399999991063],[-0.2773958333333333,0.41444444444444434,1.8251999999880724],[-0.2773958333333333,0.41444444444444434,1.8435999999940407],[-0.3544791666666666,0.49296296296296305,1.8776999999880815],[-0.3544791666666666,0.49296296296296305,1.8846999999880722],[-0.44208333333333333,0.4918518518518519,1.9106999999880827],[-0.44208333333333333,0.4918518518518519,1.9186999999880783],[-0.41770833333333335,0.48259259259259263,1.9440999999940374],[-0.41770833333333335,0.48259259259259263,1.951299999997019],[-0.35031249999999997,0.5050000000000001,1.9773999999910643],[-0.35031249999999997,0.5050000000000001,1.9842999999970203],[-0.2804166666666667,0.4861111111111111,2.009299999997026],[-0.2804166666666667,0.4861111111111111,2.016899999991054],[-0.2077083333333333,0.42907407407407416,2.0425999999940387],[-0.2077083333333333,0.42907407407407416,2.0503999999910576],[-0.14833333333333332,0.4331481481481481,2.0775000000000006],[-0.14833333333333332,0.4331481481481481,2.0845999999940403],[-0.09437500000000003,0.4625925925925925,2.111000000000004],[-0.09437500000000003,0.4625925925925925,2.117899999991053],[-0.06322916666666671,0.4872222222222223,2.1445999999940426],[-0.06322916666666671,0.4872222222222223,2.151899999991059],[-0.06322916666666671,0.4872222222222223,2.1585000000000036],[-0.06322916666666671,0.4872222222222223,2.178199999988081],[-0.006979166666666714,0.4801851851851851,2.21069999998808],[-0.006979166666666714,0.4801851851851851,2.2180999999940383],[0.06385416666666661,0.44592592592592584,2.2439999999999998],[0.06385416666666661,0.44592592592592584,2.2510999999940395],[0.1564583333333334,0.4662962962962962,2.2772999999970267],[0.1564583333333334,0.4662962962962962,2.2865000000000038],[0.21354166666666666,0.469074074074074,2.310699999988074],[0.21354166666666666,0.469074074074074,2.3181999999880816],[0.25020833333333337,0.4837037037037038,2.3442999999970198],[0.25020833333333337,0.4837037037037038,2.351899999991062],[0.28635416666666674,0.4766666666666666,2.377299999997021],[0.28635416666666674,0.4766666666666666,2.3845999999940375],[0.32708333333333334,0.5079629629629628,2.4091999999880755],[0.32708333333333334,0.5079629629629628,2.4168999999910596],[0.39072916666666657,0.4551851851851851,2.444500000000005],[0.39072916666666657,0.4551851851851851,2.452099999994033],[0.39072916666666657,0.4551851851851851,2.4585999999940356],[0.39072916666666657,0.4551851851851851,2.477000000000004],[0.42854166666666677,0.397037037037037,2.509299999997026],[0.42854166666666677,0.397037037037037,2.516799999997019],[0.4921875,0.31851851851851853,2.5443999999910574],[0.4921875,0.31851851851851853,2.5513999999910624],[0.5136458333333332,0.2564814814814815,2.5773999999910586],[0.5136458333333332,0.2564814814814815,2.5851999999880775],[0.5527083333333332,0.2044444444444444,2.6121999999880785],[0.5527083333333332,0.2044444444444444,2.6192999999970255],[0.5349999999999999,0.18000000000000008,2.64409999999404],[0.5349999999999999,0.18000000000000008,2.653499999999994],[0.5151041666666667,0.13537037037037042,2.679899999991065],[0.5151041666666667,0.13537037037037042,2.6869999999999976],[0.46895833333333337,0.09000000000000004,2.710799999997022],[0.46895833333333337,0.09000000000000004,2.718500000000006],[0.42635416666666665,0.05851851851851856,2.746899999991058],[0.42635416666666665,0.05851851851851856,2.7540999999940396],[0.3793750000000001,-0.005555555555555556,2.7759999999999962],[0.3793750000000001,-0.005555555555555556,2.7833999999910617],[0.3016666666666666,-0.010185185185185186,2.8135000000000048],[0.3016666666666666,-0.010185185185185186,2.8205999999940445],[0.2361458333333334,0.011296296296296339,2.844199999988078],[0.2361458333333334,0.011296296296296339,2.8515000000000015],[0.18083333333333323,0.027962962962963005,2.8800999999940444],[0.18083333333333323,0.027962962962963005,2.8877999999970143],[0.14697916666666658,0.04685185185185177,2.9107999999970247],[0.14697916666666658,0.04685185185185177,2.918099999994041],[0.08989583333333329,0.057777777777777865,2.9471999999880722],[0.08989583333333329,0.057777777777777865,2.954499999999996],[0.10374999999999991,0.0014814814814813973,2.9773999999910643],[0.10374999999999991,0.0014814814814813973,2.985299999997025],[0.11958333333333329,-0.015370370370370286,3.0141999999880795],[0.11958333333333329,-0.015370370370370286,3.0210999999940356],[0.14406249999999995,-0.025185185185185227,3.0466999999880784],[0.14406249999999995,-0.025185185185185227,3.054599999994039],[0.17708333333333334,-0.025925925925925925,3.082599999994045],[0.17708333333333334,-0.025925925925925925,3.0911999999880777],[0.20010416666666658,-0.072037037037037,3.112599999994046],[0.20010416666666658,-0.072037037037037,3.120500000000007],[0.23479166666666676,-0.05759259259259263,3.1491999999880846],[0.23479166666666676,-0.05759259259259263,3.1567999999970198],[0.27072916666666674,-0.15018518518518523,3.1800999999940416],[0.27072916666666674,-0.15018518518518523,3.188299999997014],[0.27072916666666674,-0.15018518518518523,3.1976999999880746],[0.27447916666666666,-0.11129629629629634,3.2295999999940364],[0.27447916666666666,-0.11129629629629634,3.237799999997023],[0.2791666666666667,-0.12407407407407407,3.2631999999880748],[0.2791666666666667,-0.12407407407407407,3.2703999999910565],[0.3098958333333333,-0.21296296296296297,3.2964999999999947],[0.3098958333333333,-0.21296296296296297,3.3034999999999997],[0.32874999999999993,-0.267037037037037,3.3307999999970264],[0.32874999999999993,-0.267037037037037,3.337799999997017],[0.3078125,-0.3068518518518518,3.362799999997023],[0.3078125,-0.3068518518518518,3.369500000000002],[0.29958333333333326,-0.3831481481481481,3.3963999999910612],[0.29958333333333326,-0.3831481481481481,3.402899999991064],[0.2747916666666666,-0.34388888888888886,3.4295000000000044],[0.2747916666666666,-0.34388888888888886,3.4364999999999952],[0.2747916666666666,-0.34388888888888886,3.4463999999910584],[0.22125000000000009,-0.22037037037037038,3.4776999999880758],[0.22125000000000009,-0.22037037037037038,3.485199999988083],[0.22125000000000009,-0.22037037037037038,3.497],[0.17531249999999995,-0.1633333333333333,3.5294999999999987],[0.17531249999999995,-0.1633333333333333,3.536399999991062],[0.13760416666666658,-0.06018518518518518,3.5626999999880837],[0.13760416666666658,-0.06018518518518518,3.570199999988077],[0.13239583333333324,-0.06222222222222226,3.5974999999999966],[0.13239583333333324,-0.06222222222222226,3.6053999999910644],[0.11645833333333329,-0.013518518518518435,3.6291999999880744],[0.11645833333333329,-0.013518518518518435,3.637199999988084],[0.06447916666666664,0.12314814814814815,3.6592999999970175],[0.06447916666666664,0.12314814814814815,3.666799999997025],[-0.0007291666666667141,0.2485185185185186,3.695199999988077],[-0.0007291666666667141,0.2485185185185186,3.703699999988075],[-0.033958333333333354,0.35537037037037034,3.7273999999910643],[-0.033958333333333354,0.35537037037037034,3.744599999994037],[-0.05531250000000002,0.47314814814814815,3.7605999999940423],[-0.05531250000000002,0.47314814814814815,3.7695999999940426],[-0.0626041666666667,0.46888888888888897,3.7941999999880807],[-0.0626041666666667,0.46888888888888897,3.8011999999880857],[-0.06593749999999995,0.4377777777777777,3.8259999999999934],[-0.06593749999999995,0.4377777777777777,3.8326999999880798],[-0.09156249999999998,0.4385185185185184,3.8591999999880784],[-0.09156249999999998,0.4385185185185184,3.8662999999970253],[-0.12437499999999997,0.443888888888889,3.892799999997024],[-0.12437499999999997,0.443888888888889,3.9014999999999986],[-0.19166666666666668,0.4714814814814815,3.92589999999106],[-0.19166666666666668,0.4714814814814815,3.933499999999995],[-0.253125,0.5366666666666666,3.9622999999970148],[-0.253125,0.5366666666666666,3.9694999999999965],[-0.27531249999999996,0.5199999999999999,3.994500000000002],[-0.27531249999999996,0.5199999999999999,4.001199999988074],[-0.28479166666666667,0.48333333333333334,4.027599999994038],[-0.28479166666666667,0.48333333333333334,4.03519999998808],[-0.28531249999999997,0.4222222222222222,4.059399999991058],[-0.28531249999999997,0.4222222222222222,4.067099999994042],[-0.2961458333333333,0.3755555555555555,4.092799999997027],[-0.2961458333333333,0.3755555555555555,4.100399999991055],[-0.3115625,0.3351851851851852,4.1283999999910606],[-0.3115625,0.3351851851851852,4.134699999988072],[-0.25354166666666667,0.2490740740740741,4.160699999988083],[-0.25354166666666667,0.2490740740740741,4.167199999988085],[-0.22312500000000005,0.16537037037037028,4.192799999997021],[-0.22312500000000005,0.16537037037037028,4.200099999994038],[-0.1935416666666666,0.10981481481481473,4.227299999997015],[-0.1935416666666666,0.10981481481481473,4.234199999988078],[-0.13958333333333334,0.02962962962962963,4.259299999997026],[-0.13958333333333334,0.02962962962962963,4.266299999997017],[-0.10125000000000005,-0.08037037037037033,4.294299999997023],[-0.10125000000000005,-0.08037037037037033,4.301500000000004],[-0.05635416666666669,-0.15722222222222218,4.327299999997024],[-0.05635416666666669,-0.15722222222222218,4.333899999991061],[-0.03854166666666667,-0.20388888888888893,4.359199999988078],[-0.03854166666666667,-0.20388888888888893,4.366599999994037],[-0.02677083333333338,-0.22185185185185188,4.392599999994033],[-0.02677083333333338,-0.22185185185185188,4.400999999999996],[-0.011354166666666643,-0.2492592592592593,4.428599999994034],[-0.011354166666666643,-0.2492592592592593,4.435699999988074],[-0.000833333333333286,-0.2687037037037037,4.459399999991064],[-0.000833333333333286,-0.2687037037037037,4.46629999999702],[-0.008541666666666715,-0.2890740740740741,4.492599999994042],[-0.008541666666666715,-0.2890740740740741,4.500799999997014],[-0.009583333333333381,-0.2492592592592593,4.527299999997027],[-0.009583333333333381,-0.2492592592592593,4.534000000000006],[0.00302083333333331,-0.2433333333333333,4.561099999994042],[0.00302083333333331,-0.2433333333333333,4.568099999994047],[0.05499999999999995,-0.25833333333333336,4.59469999998808],[0.05499999999999995,-0.25833333333333336,4.601899999991062],[0.13572916666666662,-0.2607407407407408,4.627399999991056],[0.13572916666666662,-0.2607407407407408,4.6345999999940375],[0.1881249999999999,-0.2448148148148148,4.660699999988083],[0.1881249999999999,-0.2448148148148148,4.667099999994036],[0.25885416666666666,-0.24462962962962967,4.694299999997014],[0.25885416666666666,-0.24462962962962967,4.701099999994042],[0.31906249999999997,-0.24722222222222223,4.725999999999999],[0.31906249999999997,-0.24722222222222223,4.733899999991053],[0.37531249999999994,-0.2577777777777778,4.760899999991054],[0.37531249999999994,-0.2577777777777778,4.767599999994033],[0.44989583333333344,-0.21074074074074076,4.794199999988081],[0.44989583333333344,-0.21074074074074076,4.80089999999106],[0.4866666666666667,-0.15796296296296297,4.827299999997024],[0.4866666666666667,-0.15796296296296297,4.834199999988073],[0.5520833333333334,-0.11962962962962967,4.860599999994037],[0.5520833333333334,-0.11962962962962967,4.867699999988076],[0.6247916666666666,-0.10407407407407405,4.892699999988082],[0.6247916666666666,-0.10407407407407405,4.902000000000001],[0.6334374999999999,0.009999999999999959,4.927299999997018],[0.6334374999999999,0.009999999999999959,4.933499999999995],[0.6255208333333333,0.10055555555555547,4.959199999988073],[0.6255208333333333,0.10055555555555547,4.966199999988078],[0.5941666666666667,0.16351851851851842,4.992999999999995],[0.5941666666666667,0.16351851851851842,4.999899999991058],[0.583125,0.16425925925925935,5.025999999999996],[0.583125,0.16425925925925935,5.033199999988085]]","[0.0002999999970256795,0.0379999999999967,0.041899999991059644,0.06119999998807657,0.09449999999999648,0.10200000000000387,0.12749999999999773,0.13509999999403988,0.16079999999702466,0.17569999998808328,0.19599999999999795,0.20239999999105862,0.2259999999999991,0.23339999999106453,0.259299999997026,0.2664999999999935,0.29259999999403874,0.3001999999880809,0.3259999999999934,0.33339999999105885,0.3607999999970133,0.36789999999105305,0.3943999999910659,0.40119999998808,0.42739999999105294,0.43419999998808123,0.46119999998808225,0.4691999999880778,0.49409999999403453,0.5011999999880743,0.5259999999999962,0.5326999999880826,0.5607999999970161,0.5676999999880792,0.5949999999999989,0.6018999999910619,0.6273999999910558,0.6341999999880841,0.6606999999880827,0.6677999999970154,0.6941999999880863,0.7009999999999934,0.7273999999910643,0.7351999999880832,0.760699999988077,0.7680000000000007,0.7944999999999993,0.8020000000000067,0.8273999999910586,0.8340000000000032,0.8611999999880737,0.8709999999999951,0.8806999999880816,0.9110999999940361,0.9189999999999969,0.9486999999880794,0.9560000000000031,0.9817999999970226,0.9891999999880738,1.0132999999970167,1.0206999999880821,1.0465999999940436,1.0540999999940368,1.0795999999940449,1.0895999999940358,1.1129999999999995,1.120399999991065,1.1462999999970265,1.154299999997022,1.1798999999910649,1.1876999999880837,1.2126999999880752,1.2200999999940336,1.2425000000000068,1.2501999999880837,1.2777999999970149,1.284699999988078,1.3090999999940465,1.3170000000000073,1.3428999999910616,1.351799999997013,1.3585000000000065,1.3768999999910534,1.4091999999880755,1.4176999999880735,1.4447999999970165,1.4530999999940377,1.4585999999940356,1.4770000000000039,1.510699999988077,1.517699999988082,1.5425999999940387,1.5507999999970252,1.5773999999910586,1.5841999999880727,1.6107999999970133,1.6177999999970183,1.642599999994033,1.6500000000000057,1.67589999999106,1.6836999999880788,1.7106999999880799,1.717599999994036,1.744599999994037,1.751599999994042,1.7773999999910615,1.784699999988078,1.8107999999970161,1.819399999991063,1.8251999999880724,1.8435999999940407,1.8776999999880815,1.8846999999880722,1.9106999999880827,1.9186999999880783,1.9440999999940374,1.951299999997019,1.9773999999910643,1.9842999999970203,2.009299999997026,2.016899999991054,2.0425999999940387,2.0503999999910576,2.0775000000000006,2.0845999999940403,2.111000000000004,2.117899999991053,2.1445999999940426,2.151899999991059,2.1585000000000036,2.178199999988081,2.21069999998808,2.2180999999940383,2.2439999999999998,2.2510999999940395,2.2772999999970267,2.2865000000000038,2.310699999988074,2.3181999999880816,2.3442999999970198,2.351899999991062,2.377299999997021,2.3845999999940375,2.4091999999880755,2.4168999999910596,2.444500000000005,2.452099999994033,2.4585999999940356,2.477000000000004,2.509299999997026,2.516799999997019,2.5443999999910574,2.5513999999910624,2.5773999999910586,2.5851999999880775,2.6121999999880785,2.6192999999970255,2.64409999999404,2.653499999999994,2.679899999991065,2.6869999999999976,2.710799999997022,2.718500000000006,2.746899999991058,2.7540999999940396,2.7759999999999962,2.7833999999910617,2.8135000000000048,2.8205999999940445,2.844199999988078,2.8515000000000015,2.8800999999940444,2.8877999999970143,2.9107999999970247,2.918099999994041,2.9471999999880722,2.954499999999996,2.9773999999910643,2.985299999997025,3.0141999999880795,3.0210999999940356,3.0466999999880784,3.054599999994039,3.082599999994045,3.0911999999880777,3.112599999994046,3.120500000000007,3.1491999999880846,3.1567999999970198,3.1800999999940416,3.188299999997014,3.1976999999880746,3.2295999999940364,3.237799999997023,3.2631999999880748,3.2703999999910565,3.2964999999999947,3.3034999999999997,3.3307999999970264,3.337799999997017,3.362799999997023,3.369500000000002,3.3963999999910612,3.402899999991064,3.4295000000000044,3.4364999999999952,3.4463999999910584,3.4776999999880758,3.485199999988083,3.497,3.5294999999999987,3.536399999991062,3.5626999999880837,3.570199999988077,3.5974999999999966,3.6053999999910644,3.6291999999880744,3.637199999988084,3.6592999999970175,3.666799999997025,3.695199999988077,3.703699999988075,3.7273999999910643,3.744599999994037,3.7605999999940423,3.7695999999940426,3.7941999999880807,3.8011999999880857,3.8259999999999934,3.8326999999880798,3.8591999999880784,3.8662999999970253,3.892799999997024,3.9014999999999986,3.92589999999106,3.933499999999995,3.9622999999970148,3.9694999999999965,3.994500000000002,4.001199999988074,4.027599999994038,4.03519999998808,4.059399999991058,4.067099999994042,4.092799999997027,4.100399999991055,4.1283999999910606,4.134699999988072,4.160699999988083,4.167199999988085,4.192799999997021,4.200099999994038,4.227299999997015,4.234199999988078,4.259299999997026,4.266299999997017,4.294299999997023,4.301500000000004,4.327299999997024,4.333899999991061,4.359199999988078,4.366599999994037,4.392599999994033,4.400999999999996,4.428599999994034,4.435699999988074,4.459399999991064,4.46629999999702,4.492599999994042,4.500799999997014,4.527299999997027,4.534000000000006,4.561099999994042,4.568099999994047,4.59469999998808,4.601899999991062,4.627399999991056,4.6345999999940375,4.660699999988083,4.667099999994036,4.694299999997014,4.701099999994042,4.725999999999999,4.733899999991053,4.760899999991054,4.767599999994033,4.794199999988081,4.80089999999106,4.827299999997024,4.834199999988073,4.860599999994037,4.867699999988076,4.892699999988082,4.902000000000001,4.927299999997018,4.933499999999995,4.959199999988073,4.966199999988078,4.992999999999995,4.999899999991058,5.025999999999996,5.033199999988085]","[1733192857513,1733192857543,1733192857547,1733192857566,1733192857600,1733192857607,1733192857633,1733192857640,1733192857666,1733192857681,1733192857701,1733192857707,1733192857731,1733192857738,1733192857764,1733192857771,1733192857798,1733192857805,1733192857831,1733192857838,1733192857866,1733192857873,1733192857899,1733192857906,1733192857932,1733192857939,1733192857966,1733192857974,1733192857999,1733192858006,1733192858031,1733192858038,1733192858066,1733192858073,1733192858100,1733192858107,1733192858132,1733192858139,1733192858166,1733192858173,1733192858199,1733192858206,1733192858232,1733192858240,1733192858266,1733192858273,1733192858300,1733192858307,1733192858332,1733192858339,1733192858366,1733192858376,1733192858386,1733192858416,1733192858424,1733192858454,1733192858461,1733192858487,1733192858494,1733192858518,1733192858526,1733192858552,1733192858559,1733192858585,1733192858595,1733192858618,1733192858625,1733192858651,1733192858659,1733192858685,1733192858693,1733192858718,1733192858725,1733192858748,1733192858755,1733192858783,1733192858790,1733192858814,1733192858822,1733192858848,1733192858857,1733192858864,1733192858882,1733192858914,1733192858923,1733192858950,1733192858958,1733192858964,1733192858982,1733192859016,1733192859023,1733192859048,1733192859056,1733192859082,1733192859089,1733192859116,1733192859123,1733192859148,1733192859155,1733192859181,1733192859189,1733192859216,1733192859223,1733192859250,1733192859257,1733192859282,1733192859290,1733192859316,1733192859324,1733192859330,1733192859349,1733192859383,1733192859390,1733192859416,1733192859424,1733192859449,1733192859456,1733192859482,1733192859489,1733192859514,1733192859522,1733192859548,1733192859555,1733192859582,1733192859590,1733192859616,1733192859623,1733192859650,1733192859657,1733192859664,1733192859683,1733192859716,1733192859723,1733192859749,1733192859756,1733192859782,1733192859792,1733192859816,1733192859823,1733192859849,1733192859857,1733192859882,1733192859890,1733192859914,1733192859922,1733192859950,1733192859957,1733192859964,1733192859982,1733192860014,1733192860022,1733192860049,1733192860057,1733192860082,1733192860090,1733192860117,1733192860124,1733192860149,1733192860159,1733192860185,1733192860192,1733192860216,1733192860224,1733192860252,1733192860259,1733192860281,1733192860288,1733192860319,1733192860326,1733192860349,1733192860357,1733192860385,1733192860393,1733192860416,1733192860423,1733192860452,1733192860460,1733192860482,1733192860490,1733192860519,1733192860526,1733192860552,1733192860560,1733192860588,1733192860596,1733192860618,1733192860626,1733192860654,1733192860662,1733192860685,1733192860693,1733192860703,1733192860735,1733192860743,1733192860768,1733192860776,1733192860802,1733192860809,1733192860836,1733192860843,1733192860868,1733192860875,1733192860901,1733192860908,1733192860935,1733192860942,1733192860951,1733192860983,1733192860990,1733192861002,1733192861034,1733192861041,1733192861068,1733192861075,1733192861102,1733192861110,1733192861134,1733192861142,1733192861164,1733192861172,1733192861200,1733192861209,1733192861232,1733192861250,1733192861266,1733192861275,1733192861299,1733192861306,1733192861331,1733192861338,1733192861364,1733192861371,1733192861398,1733192861407,1733192861431,1733192861439,1733192861467,1733192861475,1733192861500,1733192861506,1733192861533,1733192861540,1733192861565,1733192861572,1733192861598,1733192861605,1733192861633,1733192861640,1733192861666,1733192861672,1733192861698,1733192861705,1733192861732,1733192861739,1733192861764,1733192861771,1733192861799,1733192861807,1733192861832,1733192861839,1733192861864,1733192861872,1733192861898,1733192861906,1733192861934,1733192861941,1733192861964,1733192861971,1733192861998,1733192862006,1733192862032,1733192862039,1733192862066,1733192862073,1733192862100,1733192862107,1733192862132,1733192862140,1733192862166,1733192862172,1733192862199,1733192862206,1733192862231,1733192862239,1733192862266,1733192862273,1733192862299,1733192862306,1733192862332,1733192862339,1733192862366,1733192862373,1733192862398,1733192862407,1733192862432,1733192862439,1733192862464,1733192862471,1733192862498,1733192862505,1733192862531,1733192862538]","[[1122.5,653.2],[1122.5,653.2],[1122.5,653.2],[1122.5,653.2],[1107.1,662.6],[1107.1,662.6],[1098.6,661.1],[1098.6,661.1],[1090.1,659.6],[1090.1,659.6],[1067.5,679.6],[1067.5,679.6],[1052.2,680.3],[1052.2,680.3],[1043.3,691.8],[1043.3,691.8],[1037.1,702.1],[1037.1,702.1],[1039.7,706.5],[1039.7,706.5],[1036.6,719.7],[1036.6,719.7],[999.6,723.9],[999.6,723.9],[947.3,722.3],[947.3,722.3],[899.1,703.4],[899.1,703.4],[850.1,685.7],[850.1,685.7],[819.4,663.6],[819.4,663.6],[781.4,660.8],[781.4,660.8],[713.8,662.9],[713.8,662.9],[649.9,661.3],[649.9,661.3],[612.4,650.7],[612.4,650.7],[574.3,610.2],[574.3,610.2],[559.2,593.3],[559.2,593.3],[547.7,569],[547.7,569],[550.5,576.8],[550.5,576.8],[550.8,578.9],[550.8,578.9],[545.3,565.1],[545.3,565.1],[545.3,565.1],[552.8,559],[552.8,559],[600.8,536.8],[600.8,536.8],[638.8,512.6],[638.8,512.6],[613.1,532.1],[613.1,532.1],[628.8,559.7],[628.8,559.7],[665.6,562.5],[665.6,562.5],[714.6,575.2],[714.6,575.2],[748.6,579.5],[748.6,579.5],[796.3,600.5],[796.3,600.5],[857.3,624.8],[857.3,624.8],[932.2,622.7],[932.2,622.7],[1002.7,621.4],[1002.7,621.4],[1080.2,638.5],[1080.2,638.5],[1187.6,617.7],[1187.6,617.7],[1187.6,617.7],[1187.6,617.7],[1263.8,621.5],[1263.8,621.5],[1312.3,648],[1312.3,648],[1312.3,648],[1312.3,648],[1334.7,646.3],[1334.7,646.3],[1363.4,667.3],[1363.4,667.3],[1315.9,681.1],[1315.9,681.1],[1244,677.8],[1244,677.8],[1136.2,710.4],[1136.2,710.4],[1025.7,755.6],[1025.7,755.6],[921.5,764],[921.5,764],[847.7,778.5],[847.7,778.5],[764.1,775.4],[764.1,775.4],[693.7,763.8],[693.7,763.8],[693.7,763.8],[693.7,763.8],[619.7,806.2],[619.7,806.2],[535.6,805.6],[535.6,805.6],[559,800.6],[559,800.6],[623.7,812.7],[623.7,812.7],[690.8,802.5],[690.8,802.5],[760.6,771.7],[760.6,771.7],[817.6,773.9],[817.6,773.9],[869.4,789.8],[869.4,789.8],[899.3,803.1],[899.3,803.1],[899.3,803.1],[899.3,803.1],[953.3,799.3],[953.3,799.3],[1021.3,780.8],[1021.3,780.8],[1110.2,791.8],[1110.2,791.8],[1165,793.3],[1165,793.3],[1200.2,801.2],[1200.2,801.2],[1234.9,797.4],[1234.9,797.4],[1274,814.3],[1274,814.3],[1335.1,785.8],[1335.1,785.8],[1335.1,785.8],[1335.1,785.8],[1371.4,754.4],[1371.4,754.4],[1432.5,712],[1432.5,712],[1453.1,678.5],[1453.1,678.5],[1490.6,650.4],[1490.6,650.4],[1473.6,637.2],[1473.6,637.2],[1454.5,613.1],[1454.5,613.1],[1410.2,588.6],[1410.2,588.6],[1369.3,571.6],[1369.3,571.6],[1324.2,537],[1324.2,537],[1249.6,534.5],[1249.6,534.5],[1186.7,546.1],[1186.7,546.1],[1133.6,555.1],[1133.6,555.1],[1101.1,565.3],[1101.1,565.3],[1046.3,571.2],[1046.3,571.2],[1059.6,540.8],[1059.6,540.8],[1074.8,531.7],[1074.8,531.7],[1098.3,526.4],[1098.3,526.4],[1130,526],[1130,526],[1152.1,501.1],[1152.1,501.1],[1185.4,508.9],[1185.4,508.9],[1219.9,458.9],[1219.9,458.9],[1219.9,458.9],[1223.5,479.9],[1223.5,479.9],[1228,473],[1228,473],[1257.5,425],[1257.5,425],[1275.6,395.8],[1275.6,395.8],[1255.5,374.3],[1255.5,374.3],[1247.6,333.1],[1247.6,333.1],[1223.8,354.3],[1223.8,354.3],[1223.8,354.3],[1172.4,421],[1172.4,421],[1172.4,421],[1128.3,451.8],[1128.3,451.8],[1092.1,507.5],[1092.1,507.5],[1087.1,506.4],[1087.1,506.4],[1071.8,532.7],[1071.8,532.7],[1021.9,606.5],[1021.9,606.5],[959.3,674.2],[959.3,674.2],[927.4,731.9],[927.4,731.9],[906.9,795.5],[906.9,795.5],[899.9,793.2],[899.9,793.2],[896.7,776.4],[896.7,776.4],[872.1,776.8],[872.1,776.8],[840.6,779.7],[840.6,779.7],[776,794.6],[776,794.6],[717,829.8],[717,829.8],[695.7,820.8],[695.7,820.8],[686.6,801],[686.6,801],[686.1,768],[686.1,768],[675.7,742.8],[675.7,742.8],[660.9,721],[660.9,721],[716.6,674.5],[716.6,674.5],[745.8,629.3],[745.8,629.3],[774.2,599.3],[774.2,599.3],[826,556],[826,556],[862.8,496.6],[862.8,496.6],[905.9,455.1],[905.9,455.1],[923,429.9],[923,429.9],[934.3,420.2],[934.3,420.2],[949.1,405.4],[949.1,405.4],[959.2,394.9],[959.2,394.9],[951.8,383.9],[951.8,383.9],[950.8,405.4],[950.8,405.4],[962.9,408.6],[962.9,408.6],[1012.8,400.5],[1012.8,400.5],[1090.3,399.2],[1090.3,399.2],[1140.6,407.8],[1140.6,407.8],[1208.5,407.9],[1208.5,407.9],[1266.3,406.5],[1266.3,406.5],[1320.3,400.8],[1320.3,400.8],[1391.9,426.2],[1391.9,426.2],[1427.2,454.7],[1427.2,454.7],[1490,475.4],[1490,475.4],[1559.8,483.8],[1559.8,483.8],[1568.1,545.4],[1568.1,545.4],[1560.5,594.3],[1560.5,594.3],[1530.4,628.3],[1530.4,628.3],[1519.8,628.7],[1519.8,628.7]]","[0,0.5333]","[0.5333,0.5333]","[-0.5333,-0.5333]","[-0.5333,0]","[0,-0.5333]","[0.5333,-0.5333]","[0,0]","[0.5333,0]",0,0,0,0,1,2,Monitor,7,1,11,9
