inst1_resp.keys,inst1_resp.rt,calibrationMouse.x,calibrationMouse.y,calibrationMouse.leftButton,calibrationMouse.midButton,calibrationMouse.rightButton,calibrationClick.x,calibrationClick.y,calibrationClick.leftButton,calibrationClick.midButton,calibrationClick.rightButton,trialsc.thisRepN,trialsc.thisTrialN,trialsc.thisN,trialsc.thisIndex,trialsc.ran,calibration_x,calibration_y,participant,session,date,expName,psychopyVersion,OS,frameRate,calibrationClick.clicked_name,ScreenRes_pixels,Camera_pixels,mouse_2.x,mouse_2.y,mouse_2.leftButton,mouse_2.midButton,mouse_2.rightButton,mouse_2.time,mouse_2.clicked_name,mouse.x,mouse.y,mouse.leftButton,mouse.midButton,mouse.rightButton,mouse.time,mouse.clicked_name,Choice,Trial,TrialDuration,MOUSE_GAZE,ET_GAZE,ET_GAZE_x_T,time,unixTime,ET_GAZE_NF,Loc_Option1_label,Loc_Option2_label,Loc_Cost_label,Loc_Qual_label,Loc_Option1_cost,Loc_Option2_cost,Loc_Option1_quality,Loc_Option2_quality,trials.thisRepN,trials.thisTrialN,trials.thisN,trials.thisIndex,trials.ran,Block,Device,cost1,qual1,cost2,qual2
space,1.3497,0.19375,-0.266666667,1,0,0,-0.682291667,0.340740741,1,0,0,0,0,0,3,1,-0.67,0.33,41,001,2024-12-02_17h28.31.957,Attention_exp_legacy,2023.1.0,Win32,59.88023952,,,,,,,,,,,,,,,,,,,,,,,,,,,,,,,,,,,,,,,,,,,,,
,,,,,,,-0.65625,-0.346296296,1,0,0,0,1,1,1,1,-0.67,-0.33,41,001,2024-12-02_17h28.31.957,Attention_exp_legacy,2023.1.0,Win32,59.88023952,,,,,,,,,,,,,,,,,,,,,,,,,,,,,,,,,,,,,,,,,,,,,
,,,,,,,0.66875,0.666666667,1,0,0,0,2,2,19,1,0.67,0.67,41,001,2024-12-02_17h28.31.957,Attention_exp_legacy,2023.1.0,Win32,59.88023952,calibration_square,,,,,,,,,,,,,,,,,,,,,,,,,,,,,,,,,,,,,,,,,,,,
,,,,,,,-0.33125,-0.331481481,1,0,0,0,3,3,5,1,-0.33,-0.33,41,001,2024-12-02_17h28.31.957,Attention_exp_legacy,2023.1.0,Win32,59.88023952,calibration_square,,,,,,,,,,,,,,,,,,,,,,,,,,,,,,,,,,,,,,,,,,,,
,,,,,,,-0.333333333,0.325925926,1,0,0,0,4,4,7,1,-0.33,0.33,41,001,2024-12-02_17h28.31.957,Attention_exp_legacy,2023.1.0,Win32,59.88023952,calibration_square,,,,,,,,,,,,,,,,,,,,,,,,,,,,,,,,,,,,,,,,,,,,
,,,,,,,0.326041667,0.664814815,1,0,0,0,5,5,18,1,0.33,0.67,41,001,2024-12-02_17h28.31.957,Attention_exp_legacy,2023.1.0,Win32,59.88023952,calibration_square,,,,,,,,,,,,,,,,,,,,,,,,,,,,,,,,,,,,,,,,,,,,
,,,,,,,-0.001041667,0.674074074,1,0,0,0,6,6,13,1,0,0.67,41,001,2024-12-02_17h28.31.957,Attention_exp_legacy,2023.1.0,Win32,59.88023952,calibration_square,,,,,,,,,,,,,,,,,,,,,,,,,,,,,,,,,,,,,,,,,,,,
,,,,,,,-0.659375,-0.672222222,1,0,0,0,7,7,0,1,-0.67,-0.67,41,001,2024-12-02_17h28.31.957,Attention_exp_legacy,2023.1.0,Win32,59.88023952,,,,,,,,,,,,,,,,,,,,,,,,,,,,,,,,,,,,,,,,,,,,,
,,,,,,,0.329166667,-0.325925926,1,0,0,0,8,8,15,1,0.33,-0.33,41,001,2024-12-02_17h28.31.957,Attention_exp_legacy,2023.1.0,Win32,59.88023952,calibration_square,,,,,,,,,,,,,,,,,,,,,,,,,,,,,,,,,,,,,,,,,,,,
,,,,,,,-0.678125,-0.007407407,1,0,0,0,9,9,2,1,-0.67,0,41,001,2024-12-02_17h28.31.957,Attention_exp_legacy,2023.1.0,Win32,59.88023952,calibration_square,,,,,,,,,,,,,,,,,,,,,,,,,,,,,,,,,,,,,,,,,,,,
,,,,,,,0.658333333,-0.661111111,1,0,0,0,10,10,20,1,0.67,-0.67,41,001,2024-12-02_17h28.31.957,Attention_exp_legacy,2023.1.0,Win32,59.88023952,,,,,,,,,,,,,,,,,,,,,,,,,,,,,,,,,,,,,,,,,,,,,
,,,,,,,-0.3375,-0.662962963,1,0,0,0,11,11,4,1,-0.33,-0.67,41,001,2024-12-02_17h28.31.957,Attention_exp_legacy,2023.1.0,Win32,59.88023952,calibration_square,,,,,,,,,,,,,,,,,,,,,,,,,,,,,,,,,,,,,,,,,,,,
,,,,,,,-0.325,0.690740741,1,0,0,0,12,12,8,1,-0.33,0.67,41,001,2024-12-02_17h28.31.957,Attention_exp_legacy,2023.1.0,Win32,59.88023952,,,,,,,,,,,,,,,,,,,,,,,,,,,,,,,,,,,,,,,,,,,,,
,,,,,,,0.009375,-0.322222222,1,0,0,0,13,13,10,1,0,-0.33,41,001,2024-12-02_17h28.31.957,Attention_exp_legacy,2023.1.0,Win32,59.88023952,calibration_square,,,,,,,,,,,,,,,,,,,,,,,,,,,,,,,,,,,,,,,,,,,,
,,,,,,,-0.008333333,0.011111111,1,0,0,0,14,14,11,1,0,0,41,001,2024-12-02_17h28.31.957,Attention_exp_legacy,2023.1.0,Win32,59.88023952,,,,,,,,,,,,,,,,,,,,,,,,,,,,,,,,,,,,,,,,,,,,,
,,,,,,,0.323958333,-0.005555556,1,0,0,0,15,15,16,1,0.33,0,41,001,2024-12-02_17h28.31.957,Attention_exp_legacy,2023.1.0,Win32,59.88023952,calibration_square,,,,,,,,,,,,,,,,,,,,,,,,,,,,,,,,,,,,,,,,,,,,
,,,,,,,0.003125,0.327777778,1,0,0,0,16,16,12,1,0,0.33,41,001,2024-12-02_17h28.31.957,Attention_exp_legacy,2023.1.0,Win32,59.88023952,calibration_square,,,,,,,,,,,,,,,,,,,,,,,,,,,,,,,,,,,,,,,,,,,,
,,,,,,,0.320833333,-0.67037037,1,0,0,0,17,17,14,1,0.33,-0.67,41,001,2024-12-02_17h28.31.957,Attention_exp_legacy,2023.1.0,Win32,59.88023952,calibration_square,,,,,,,,,,,,,,,,,,,,,,,,,,,,,,,,,,,,,,,,,,,,
,,,,,,,-0.330208333,-0.005555556,1,0,0,0,18,18,6,1,-0.33,0,41,001,2024-12-02_17h28.31.957,Attention_exp_legacy,2023.1.0,Win32,59.88023952,calibration_square,,,,,,,,,,,,,,,,,,,,,,,,,,,,,,,,,,,,,,,,,,,,
,,,,,,,0,-0.657407407,1,0,0,0,19,19,9,1,0,-0.67,41,001,2024-12-02_17h28.31.957,Attention_exp_legacy,2023.1.0,Win32,59.88023952,,,,,,,,,,,,,,,,,,,,,,,,,,,,,,,,,,,,,,,,,,,,,
,,,,,,,0.335416667,0.344444444,1,0,0,0,20,20,17,1,0.33,0.33,41,001,2024-12-02_17h28.31.957,Attention_exp_legacy,2023.1.0,Win32,59.88023952,,,,,,,,,,,,,,,,,,,,,,,,,,,,,,,,,,,,,,,,,,,,,
,,,,,,,,,,,,,,,,,,,41,001,2024-12-02_17h28.31.957,Attention_exp_legacy,2023.1.0,Win32,59.88023952,,"[1920,1080]","[640,480]",[-0.003125],[-0.5],[1],[0],[0],[7.749499999999998],"[""StartButton""]",[0.3645833333333333],[0.3314814814814815],[1],[0],[0],[1.3141999999992606],"[""Option2_label""]",Option2_label,1,2.3379,"[[0,-0.48333333333333334],[0,-0.48333333333333334],[0,-0.48333333333333334],[0,-0.48333333333333334],[0,-0.48333333333333334],[0,-0.48333333333333334],[0,-0.48333333333333334],[0,-0.48333333333333334],[0,-0.48333333333333334],[0,-0.48333333333333334],[0,-0.48333333333333334],[0,-0.48333333333333334],[0,-0.48333333333333334],[0,-0.48333333333333334],[0,-0.48333333333333334],[0,-0.48333333333333334],[0,-0.48333333333333334],[0,-0.48333333333333334],[0,-0.48333333333333334],[0,-0.48333333333333334],[0,-0.48333333333333334],[0,-0.48333333333333334],[0,-0.48333333333333334],[0,-0.48333333333333334],[0,-0.48333333333333334],[0,-0.48333333333333334],[0,-0.48333333333333334],[0,-0.48333333333333334],[0,-0.48333333333333334],[0,-0.48333333333333334],[0,-0.48333333333333334],[0,-0.48333333333333334],[0,-0.48333333333333334],[0,-0.48333333333333334],[0,-0.48333333333333334],[0,-0.48333333333333334],[0,-0.48333333333333334],[0,-0.48333333333333334],[0,-0.48333333333333334],[0,-0.48333333333333334],[0,-0.48333333333333334],[0,-0.48333333333333334],[0,-0.48333333333333334],[0,-0.48333333333333334],[0,-0.48333333333333334],[0,-0.48333333333333334],[0,-0.48333333333333334],[0,-0.48333333333333334],[0.0020833333333333333,-0.4722222222222222],[0.007291666666666667,-0.45555555555555555],[0.01875,-0.42777777777777776],[0.078125,-0.3111111111111111],[0.128125,-0.20185185185185187],[0.16666666666666666,-0.08888888888888889],[0.190625,0.014814814814814815],[0.20520833333333333,0.08333333333333333],[0.21041666666666667,0.1259259259259259],[0.2125,0.16666666666666666],[0.2125,0.19814814814814816],[0.2125,0.2222222222222222],[0.21666666666666667,0.24444444444444444],[0.221875,0.26666666666666666],[0.22708333333333333,0.2796296296296296],[0.23229166666666667,0.2962962962962963],[0.23645833333333333,0.30185185185185187],[0.240625,0.3074074074074074],[0.24375,0.30925925925925923],[0.24895833333333334,0.31296296296296294],[0.253125,0.31296296296296294],[0.2708333333333333,0.31296296296296294],[0.296875,0.31296296296296294],[0.32395833333333335,0.31296296296296294],[0.34479166666666666,0.31666666666666665],[0.36041666666666666,0.32592592592592595],[0.3625,0.3277777777777778],[0.36354166666666665,0.3314814814814815],[0.36354166666666665,0.3314814814814815],[0.3645833333333333,0.3314814814814815],[0.3645833333333333,0.3314814814814815],[0.3645833333333333,0.3314814814814815],[0.3645833333333333,0.3314814814814815],[0.3645833333333333,0.3314814814814815],[0.3645833333333333,0.3314814814814815],[0.3645833333333333,0.3314814814814815],[0.3645833333333333,0.3314814814814815],[0.3645833333333333,0.3314814814814815],[0.3645833333333333,0.3314814814814815],[0.3645833333333333,0.3314814814814815],[0.3645833333333333,0.3314814814814815],[0.36354166666666665,0.3277777777777778],[0.3625,0.32407407407407407],[0.3614583333333333,0.32222222222222224],[0.36041666666666666,0.31851851851851853],[0.35833333333333334,0.31296296296296294],[0.35625,0.3055555555555556],[0.353125,0.29814814814814816],[0.3489583333333333,0.2851851851851852],[0.34479166666666666,0.27037037037037037],[0.33958333333333335,0.2462962962962963],[0.3260416666666667,0.15185185185185185],[0.315625,0.06296296296296296],[0.30833333333333335,-0.03148148148148148],[0.3072916666666667,-0.12407407407407407],[0.3072916666666667,-0.18703703703703703],[0.3072916666666667,-0.22962962962962963],[0.3072916666666667,-0.27037037037037037],[0.3072916666666667,-0.3037037037037037],[0.3072916666666667,-0.32592592592592595],[0.3072916666666667,-0.34629629629629627],[0.3072916666666667,-0.3574074074074074],[0.3072916666666667,-0.362962962962963],[0.3072916666666667,-0.36666666666666664],[0.3072916666666667,-0.36666666666666664],[0.3072916666666667,-0.36666666666666664],[0.3072916666666667,-0.36666666666666664],[0.3072916666666667,-0.36666666666666664],[0.3072916666666667,-0.36666666666666664],[0.3072916666666667,-0.36666666666666664],[0.3072916666666667,-0.36666666666666664],[0.3072916666666667,-0.36666666666666664],[0.3072916666666667,-0.36666666666666664],[0.3072916666666667,-0.36666666666666664],[0.3072916666666667,-0.36666666666666664],[0.3072916666666667,-0.36666666666666664],[0.3072916666666667,-0.36666666666666664],[0.3072916666666667,-0.36666666666666664],[0.3072916666666667,-0.36666666666666664],[0.3072916666666667,-0.36666666666666664],[0.3072916666666667,-0.36666666666666664],[0.3072916666666667,-0.36666666666666664],[0.3072916666666667,-0.36666666666666664],[0.3072916666666667,-0.36666666666666664],[0.3072916666666667,-0.37037037037037035],[0.3072916666666667,-0.37222222222222223],[0.3072916666666667,-0.37222222222222223],[0.3072916666666667,-0.37407407407407406],[0.3072916666666667,-0.37407407407407406],[0.3072916666666667,-0.37592592592592594],[0.3072916666666667,-0.37592592592592594],[0.3072916666666667,-0.37592592592592594]]","[[0.04010416666666667,0.1124074074074075],[0.04010416666666667,0.1124074074074075],[0.021249999999999977,0.09759259259259268],[0.021249999999999977,0.09759259259259268],[0.002916666666666619,0.16888888888888898],[0.002916666666666619,0.16888888888888898],[-0.0390625,0.17555555555555546],[-0.0390625,0.17555555555555546],[-0.04031250000000005,0.23592592592592587],[-0.06041666666666667,0.2705555555555556],[-0.07708333333333334,0.3140740740740741],[-0.09343750000000005,0.3148148148148148],[-0.08729166666666661,0.3446296296296297],[-0.07177083333333331,0.3712962962962963],[-0.10041666666666664,0.4124074074074075],[-0.12864583333333332,0.45388888888888895],[-0.15791666666666668,0.4329629629629629],[-0.15333333333333338,0.4637037037037037],[-0.1554166666666667,0.47314814814814815],[-0.16739583333333338,0.49685185185185177],[-0.17906249999999999,0.5266666666666666],[-0.2001041666666667,0.5446296296296297],[-0.23635416666666664,0.5746296296296295],[-0.26979166666666665,0.6057407407407408],[-0.2820833333333333,0.6114814814814815],[-0.2820833333333333,0.6114814814814815],[-0.29020833333333335,0.6214814814814815],[-0.29020833333333335,0.6214814814814815],[-0.28552083333333333,0.6457407407407408],[-0.3008333333333333,0.6668518518518519],[-0.28312499999999996,0.7094444444444444],[-0.24729166666666663,0.7425925925925926],[-0.255625,0.7461111111111111],[-0.25125000000000003,0.7568518518518519],[-0.23624999999999996,0.7601851851851852],[-0.22406250000000003,0.7624074074074075],[-0.1944791666666667,0.7516666666666666],[-0.1648958333333333,0.740925925925926],[-0.1820833333333333,0.7162962962962962],[-0.17374999999999996,0.6900000000000001],[-0.1984375,0.6422222222222221],[-0.19166666666666668,0.6127777777777778],[-0.15343749999999995,0.5972222222222222],[-0.12083333333333333,0.5772222222222223],[-0.09885416666666665,0.5646296296296296],[-0.08052083333333329,0.5674074074074074],[-0.06989583333333335,0.5833333333333334],[-0.06875,0.5742592592592592],[-0.035312499999999976,0.5664814814814815],[0.004479166666666619,0.5525925925925925],[0.004479166666666619,0.5525925925925925],[0.02041666666666669,0.5403703703703703],[0.033958333333333354,0.528888888888889],[0.050937499999999976,0.5253703703703705],[0.0515625,0.5062962962962962],[0.058854166666666666,0.48518518518518516],[0.058854166666666666,0.48518518518518516],[0.06416666666666669,0.44944444444444454],[0.09229166666666658,0.4196296296296297],[0.11624999999999991,0.36944444444444446],[0.14354166666666662,0.3314814814814815],[0.14364583333333342,0.29907407407407405],[0.14364583333333342,0.29907407407407405],[0.18250000000000005,0.2522222222222223],[0.18250000000000005,0.2522222222222223],[0.19229166666666658,0.18629629629629635],[0.18583333333333343,0.1449999999999999],[0.1962500000000001,0.09962962962962954],[0.2029166666666666,0.05740740740740741],[0.20572916666666666,0.016111111111111194],[0.20572916666666666,0.016111111111111194],[0.2040625000000001,-0.05388888888888893],[0.20833333333333334,-0.046481481481481526],[0.22395833333333334,-0.05814814814814811],[0.22625000000000003,-0.09425925925925922],[0.20593750000000005,-0.14055555555555552],[0.19270833333333334,-0.20462962962962963],[0.19572916666666676,-0.2933333333333333],[0.20187499999999994,-0.3138888888888889],[0.20510416666666675,-0.33555555555555555],[0.21531250000000005,-0.34888888888888886],[0.20625,-0.34222222222222226],[0.21927083333333333,-0.36259259259259263],[0.221875,-0.3690740740740741],[0.2275000000000001,-0.3737037037037037],[0.2513541666666666,-0.31870370370370377],[0.2607291666666666,-0.24981481481481477],[0.27010416666666665,-0.1809259259259259],[0.27531249999999996,-0.14907407407407408],[0.27677083333333335,-0.12777777777777777],[0.28135416666666657,-0.14333333333333328],[0.2926041666666668,-0.14574074074074073],[0.2894791666666668,-0.15314814814814812],[0.2724999999999999,-0.1757407407407407],[0.2764583333333334,-0.16407407407407412],[0.2626041666666666,-0.18796296296296297],[0.2561458333333334,-0.207962962962963],[0.2196875000000001,-0.22666666666666663],[0.2,-0.22814814814814813],[0.18395833333333325,-0.20722222222222217],[0.18229166666666666,-0.17222222222222222],[0.17489583333333342,-0.14759259259259258],[0.1756249999999999,-0.11351851851851855],[0.16145833333333334,-0.05814814814814811],[0.20989583333333334,-0.04611111111111107],[0.2504166666666668,-0.01518518518518527],[0.3102083333333333,0.01444444444444436],[0.38958333333333334,0.026851851851851852],[0.39375,0.03685185185185181],[0.42604166666666665,0.04592592592592584],[0.4573958333333332,0.07925925925925917],[0.46635416666666674,0.11777777777777781],[0.4671875,0.14685185185185176],[0.5130208333333334,0.14648148148148152],[0.47937500000000005,0.19388888888888897],[0.4630208333333333,0.22629629629629638],[0.4630208333333333,0.22629629629629638],[0.4014583333333334,0.24870370370370362],[0.3538541666666667,0.2796296296296296],[0.3538541666666667,0.2796296296296296],[0.37958333333333344,0.2957407407407408],[0.34479166666666666,0.28129629629629627],[0.30656249999999996,0.2711111111111111],[0.30656249999999996,0.2711111111111111],[0.2907291666666666,0.25574074074074077],[0.2873958333333334,0.22555555555555548],[0.2873958333333334,0.22555555555555548],[0.2608333333333334,0.22592592592592592],[0.22989583333333338,0.1992592592592593],[0.2271874999999999,0.17796296296296302],[0.2423958333333334,0.16537037037037028],[0.21520833333333325,0.15203703703703708],[0.18947916666666675,0.13111111111111104],[0.21583333333333338,0.16296296296296298],[0.21645833333333328,0.1705555555555556],[0.21708333333333343,0.17814814814814822],[0.21489583333333329,0.19018518518518526],[0.22770833333333323,0.16833333333333328],[0.25114583333333323,0.1574074074074074],[0.22708333333333333,0.1337037037037038]]","[[0.04010416666666667,0.1124074074074075,0.000199999999253464],[0.04010416666666667,0.1124074074074075,0.04039999999851318],[0.021249999999999977,0.09759259259259268,0.054500000000004434],[0.021249999999999977,0.09759259259259268,0.07119999999925852],[0.002916666666666619,0.16888888888888898,0.08789999999851261],[0.002916666666666619,0.16888888888888898,0.10719999999925278],[-0.0390625,0.17555555555555546,0.12119999999925568],[-0.0390625,0.17555555555555546,0.13789999999850977],[-0.04031250000000005,0.23592592592592587,0.15459999999776386],[-0.06041666666666667,0.2705555555555556,0.17119999999925284],[-0.07708333333333334,0.3140740740740741,0.18789999999851403],[-0.09343750000000005,0.3148148148148148,0.2047999999970216],[-0.08729166666666661,0.3446296296296297,0.22379999999701994],[-0.07177083333333331,0.3712962962962963,0.23979999999701818],[-0.10041666666666664,0.4124074074074075,0.25500000000000256],[-0.12864583333333332,0.45388888888888895,0.2710999999977659],[-0.15791666666666668,0.4329629629629629,0.28789999999850835],[-0.15333333333333338,0.4637037037037037,0.304399999998509],[-0.1554166666666667,0.47314814814814815,0.32129999999702363],[-0.16739583333333338,0.49685185185185177,0.3378999999985126],[-0.17906249999999999,0.5266666666666666,0.3545000000000016],[-0.2001041666666667,0.5446296296296297,0.3711999999992557],[-0.23635416666666664,0.5746296296296295,0.38789999999850977],[-0.26979166666666665,0.6057407407407408,0.40449999999999875],[-0.2820833333333333,0.6114814814814815,0.4266999999992578],[-0.2820833333333333,0.6114814814814815,0.4455999999977678],[-0.29020833333333335,0.6214814814814815,0.46139999999851256],[-0.29020833333333335,0.6214814814814815,0.4712999999970222],[-0.28552083333333333,0.6457407407407408,0.4878999999985112],[-0.3008333333333333,0.6668518518518519,0.5045000000000002],[-0.28312499999999996,0.7094444444444444,0.5211999999992543],[-0.24729166666666663,0.7425925925925926,0.5378999999985083],[-0.255625,0.7461111111111111,0.5545000000000044],[-0.25125000000000003,0.7568518518518519,0.5710999999977631],[-0.23624999999999996,0.7601851851851852,0.5878999999985126],[-0.22406250000000003,0.7624074074074075,0.6045000000000016],[-0.1944791666666667,0.7516666666666666,0.6211999999992557],[-0.1648958333333333,0.740925925925926,0.6379999999999981],[-0.1820833333333333,0.7162962962962962,0.6545999999977639],[-0.17374999999999996,0.6900000000000001,0.6711999999992528],[-0.1984375,0.6422222222222221,0.6877999999970186],[-0.19166666666666668,0.6127777777777778,0.704500000000003],[-0.15343749999999995,0.5972222222222222,0.7211999999992571],[-0.12083333333333333,0.5772222222222223,0.7378999999985112],[-0.09885416666666665,0.5646296296296296,0.7545000000000002],[-0.08052083333333329,0.5674074074074074,0.7710999999977659],[-0.06989583333333335,0.5833333333333334,0.78779999999702],[-0.06875,0.5742592592592592,0.8045000000000044],[-0.035312499999999976,0.5664814814814815,0.8235999999977679],[0.004479166666666619,0.5525925925925925,0.8380999999977661],[0.004479166666666619,0.5525925925925925,0.8546999999992551],[0.02041666666666669,0.5403703703703703,0.8763999999985117],[0.033958333333333354,0.528888888888889,0.890500000000003],[0.050937499999999976,0.5253703703703705,0.9046999999992593],[0.0515625,0.5062962962962962,0.921299999997018],[0.058854166666666666,0.48518518518518516,0.9417999999970235],[0.058854166666666666,0.48518518518518516,0.9547999999970216],[0.06416666666666669,0.44944444444444454,0.9713999999985106],[0.09229166666666658,0.4196296296296297,0.9902999999970206],[0.11624999999999991,0.36944444444444446,1.0046999999992536],[0.14354166666666662,0.3314814814814815,1.0212999999970194],[0.14364583333333342,0.29907407407407405,1.0420000000000016],[0.14364583333333342,0.29907407407407405,1.054699999999258],[0.18250000000000005,0.2522222222222223,1.0712999999970236],[0.18250000000000005,0.2522222222222223,1.088099999997766],[0.19229166666666658,0.18629629629629635,1.1077999999970203],[0.18583333333333343,0.1449999999999999,1.1213999999985091],[0.1962500000000001,0.09962962962962954,1.1380999999977632],[0.2029166666666666,0.05740740740740741,1.1545999999977639],[0.20572916666666666,0.016111111111111194,1.1746999999992553],[0.20572916666666666,0.016111111111111194,1.1880000000000024],[0.2040625000000001,-0.05388888888888893,1.2045999999977681],[0.20833333333333334,-0.046481481481481526,1.2231999999992595],[0.22395833333333334,-0.05814814814814811,1.239299999997023],[0.22625000000000003,-0.09425925925925922,1.257099999997763],[0.20593750000000005,-0.14055555555555552,1.2751999999992591],[0.19270833333333334,-0.20462962962962963,1.2918999999985132],[0.19572916666666676,-0.2933333333333333,1.3057999999970207],[0.20187499999999994,-0.3138888888888889,1.3211999999992585],[0.20510416666666675,-0.33555555555555555,1.3378999999985126],[0.21531250000000005,-0.34888888888888886,1.3582999999970227],[0.20625,-0.34222222222222226,1.3711999999992557],[0.21927083333333333,-0.36259259259259263,1.3878999999985098],[0.221875,-0.3690740740740741,1.4044999999999987],[0.2275000000000001,-0.3737037037037037,1.4211999999992528],[0.2513541666666666,-0.31870370370370377,1.437899999998514],[0.2607291666666666,-0.24981481481481477,1.4572999999970193],[0.27010416666666665,-0.1809259259259259,1.4710999999977687],[0.27531249999999996,-0.14907407407407408,1.4877999999970228],[0.27677083333333335,-0.12777777777777777,1.5082999999970212],[0.28135416666666657,-0.14333333333333328,1.5212999999970194],[0.2926041666666668,-0.14574074074074073,1.5380000000000038],[0.2894791666666668,-0.15314814814814812,1.5548999999985114],[0.2724999999999999,-0.1757407407407407,1.573599999997768],[0.2764583333333334,-0.16407407407407412,1.588000000000001],[0.2626041666666666,-0.18796296296296297,1.6045999999977667],[0.2561458333333334,-0.207962962962963,1.6236999999992534],[0.2196875000000001,-0.22666666666666663,1.6380999999977632],[0.2,-0.22814814814814813,1.6546999999992593],[0.18395833333333325,-0.20722222222222217,1.6735999999977693],[0.18229166666666666,-0.17222222222222222,1.6880999999977675],[0.17489583333333342,-0.14759259259259258,1.7046999999992565],[0.1756249999999999,-0.11351851851851855,1.7213999999985106],[0.16145833333333334,-0.05814814814814811,1.7406999999992578],[0.20989583333333334,-0.04611111111111107,1.7557999999970235],[0.2504166666666668,-0.01518518518518527,1.7731999999992567],[0.3102083333333333,0.01444444444444436,1.788099999997769],[0.38958333333333334,0.026851851851851852,1.8070000000000022],[0.39375,0.03685185185185181,1.8216999999992538],[0.42604166666666665,0.04592592592592584,1.8386999999992568],[0.4573958333333332,0.07925925925925917,1.8581999999992576],[0.46635416666666674,0.11777777777777781,1.872099999997765],[0.4671875,0.14685185185185176,1.8878999999985098],[0.5130208333333334,0.14648148148148152,1.9043999999985104],[0.47937500000000005,0.19388888888888897,1.9210999999977645],[0.4630208333333333,0.22629629629629638,1.937899999998514],[0.4630208333333333,0.22629629629629638,1.954500000000003],[0.4014583333333334,0.24870370370370362,1.9710999999977687],[0.3538541666666667,0.2796296296296296,1.9886999999992554],[0.3538541666666667,0.2796296296296296,2.0045],[0.37958333333333344,0.2957407407407408,2.021099999997766],[0.34479166666666666,0.28129629629629627,2.0416999999992527],[0.30656249999999996,0.2711111111111111,2.0590999999977626],[0.30656249999999996,0.2711111111111111,2.0711999999992585],[0.2907291666666666,0.25574074074074077,2.0877999999970243],[0.2873958333333334,0.22555555555555548,2.110199999999253],[0.2873958333333334,0.22555555555555548,2.1211999999992557],[0.2608333333333334,0.22592592592592592,2.1378999999985098],[0.22989583333333338,0.1992592592592593,2.1562999999970245],[0.2271874999999999,0.17796296296296302,2.1710999999977645],[0.2423958333333334,0.16537037037037028,2.1877999999970186],[0.21520833333333325,0.15203703703703708,2.204500000000003],[0.18947916666666675,0.13111111111111104,2.223399999998513],[0.21583333333333338,0.16296296296296298,2.2380999999977647],[0.21645833333333328,0.1705555555555556,2.2545],[0.21708333333333343,0.17814814814814822,2.273799999997024],[0.21489583333333329,0.19018518518518526,2.28779999999702],[0.22770833333333323,0.16833333333333328,2.3045999999977695],[0.25114583333333323,0.1574074074074074,2.321099999997763],[0.22708333333333333,0.1337037037037038,2.3378999999985126]]","[0.000199999999253464,0.04039999999851318,0.054500000000004434,0.07119999999925852,0.08789999999851261,0.10719999999925278,0.12119999999925568,0.13789999999850977,0.15459999999776386,0.17119999999925284,0.18789999999851403,0.2047999999970216,0.22379999999701994,0.23979999999701818,0.25500000000000256,0.2710999999977659,0.28789999999850835,0.304399999998509,0.32129999999702363,0.3378999999985126,0.3545000000000016,0.3711999999992557,0.38789999999850977,0.40449999999999875,0.4266999999992578,0.4455999999977678,0.46139999999851256,0.4712999999970222,0.4878999999985112,0.5045000000000002,0.5211999999992543,0.5378999999985083,0.5545000000000044,0.5710999999977631,0.5878999999985126,0.6045000000000016,0.6211999999992557,0.6379999999999981,0.6545999999977639,0.6711999999992528,0.6877999999970186,0.704500000000003,0.7211999999992571,0.7378999999985112,0.7545000000000002,0.7710999999977659,0.78779999999702,0.8045000000000044,0.8235999999977679,0.8380999999977661,0.8546999999992551,0.8763999999985117,0.890500000000003,0.9046999999992593,0.921299999997018,0.9417999999970235,0.9547999999970216,0.9713999999985106,0.9902999999970206,1.0046999999992536,1.0212999999970194,1.0420000000000016,1.054699999999258,1.0712999999970236,1.088099999997766,1.1077999999970203,1.1213999999985091,1.1380999999977632,1.1545999999977639,1.1746999999992553,1.1880000000000024,1.2045999999977681,1.2231999999992595,1.239299999997023,1.257099999997763,1.2751999999992591,1.2918999999985132,1.3057999999970207,1.3211999999992585,1.3378999999985126,1.3582999999970227,1.3711999999992557,1.3878999999985098,1.4044999999999987,1.4211999999992528,1.437899999998514,1.4572999999970193,1.4710999999977687,1.4877999999970228,1.5082999999970212,1.5212999999970194,1.5380000000000038,1.5548999999985114,1.573599999997768,1.588000000000001,1.6045999999977667,1.6236999999992534,1.6380999999977632,1.6546999999992593,1.6735999999977693,1.6880999999977675,1.7046999999992565,1.7213999999985106,1.7406999999992578,1.7557999999970235,1.7731999999992567,1.788099999997769,1.8070000000000022,1.8216999999992538,1.8386999999992568,1.8581999999992576,1.872099999997765,1.8878999999985098,1.9043999999985104,1.9210999999977645,1.937899999998514,1.954500000000003,1.9710999999977687,1.9886999999992554,2.0045,2.021099999997766,2.0416999999992527,2.0590999999977626,2.0711999999992585,2.0877999999970243,2.110199999999253,2.1211999999992557,2.1378999999985098,2.1562999999970245,2.1710999999977645,2.1877999999970186,2.204500000000003,2.223399999998513,2.2380999999977647,2.2545,2.273799999997024,2.28779999999702,2.3045999999977695,2.321099999997763,2.3378999999985126]","[1733131757221,1733131757255,1733131757269,1733131757286,1733131757302,1733131757322,1733131757336,1733131757352,1733131757369,1733131757385,1733131757402,1733131757419,1733131757438,1733131757454,1733131757469,1733131757485,1733131757502,1733131757519,1733131757536,1733131757552,1733131757569,1733131757585,1733131757602,1733131757619,1733131757641,1733131757660,1733131757676,1733131757686,1733131757702,1733131757719,1733131757735,1733131757752,1733131757769,1733131757785,1733131757802,1733131757819,1733131757835,1733131757852,1733131757869,1733131757885,1733131757902,1733131757919,1733131757936,1733131757952,1733131757969,1733131757985,1733131758002,1733131758019,1733131758038,1733131758052,1733131758069,1733131758091,1733131758105,1733131758119,1733131758136,1733131758156,1733131758169,1733131758186,1733131758205,1733131758219,1733131758236,1733131758256,1733131758269,1733131758286,1733131758302,1733131758322,1733131758336,1733131758352,1733131758369,1733131758389,1733131758402,1733131758419,1733131758437,1733131758454,1733131758471,1733131758489,1733131758506,1733131758520,1733131758536,1733131758552,1733131758573,1733131758585,1733131758602,1733131758619,1733131758635,1733131758652,1733131758672,1733131758685,1733131758702,1733131758723,1733131758736,1733131758752,1733131758769,1733131758788,1733131758802,1733131758819,1733131758838,1733131758852,1733131758869,1733131758888,1733131758902,1733131758919,1733131758936,1733131758955,1733131758970,1733131758988,1733131759002,1733131759021,1733131759036,1733131759053,1733131759072,1733131759086,1733131759102,1733131759119,1733131759135,1733131759152,1733131759169,1733131759185,1733131759203,1733131759219,1733131759235,1733131759256,1733131759273,1733131759285,1733131759302,1733131759324,1733131759335,1733131759352,1733131759371,1733131759385,1733131759402,1733131759419,1733131759438,1733131759452,1733131759469,1733131759488,1733131759502,1733131759519,1733131759535,1733131759552]","[[998.5,600.7],[998.5,600.7],[980.4,592.7],[980.4,592.7],[962.8,631.2],[962.8,631.2],[922.5,634.8],[922.5,634.8],[921.3,667.4],[902,686.1],[886,709.6],[870.3,710],[876.2,726.1],[891.1,740.5],[863.6,762.7],[836.5,785.1],[808.4,773.8],[812.8,790.4],[810.8,795.5],[799.3,808.3],[788.1,824.4],[767.9,834.1],[733.1,850.3],[701,867.1],[689.2,870.2],[689.2,870.2],[681.4,875.6],[681.4,875.6],[685.9,888.7],[671.2,900.1],[688.2,923.1],[722.6,941],[714.6,942.9],[718.8,948.7],[733.2,950.5],[744.9,951.7],[773.3,945.9],[801.7,940.1],[785.2,926.8],[793.2,912.6],[769.5,886.8],[776,870.9],[812.7,862.5],[844,851.7],[865.1,844.9],[882.7,846.4],[892.9,855],[894,850.1],[926.1,845.9],[964.3,838.4],[964.3,838.4],[979.6,831.8],[992.6,825.6],[1008.9,823.7],[1009.5,813.4],[1016.5,802],[1016.5,802],[1021.6,782.7],[1048.6,766.6],[1071.6,739.5],[1097.8,719],[1097.9,701.5],[1097.9,701.5],[1135.2,676.2],[1135.2,676.2],[1144.6,640.6],[1138.4,618.3],[1148.4,593.8],[1154.8,571],[1157.5,548.7],[1157.5,548.7],[1155.9,510.9],[1160,514.9],[1175,508.6],[1177.2,489.1],[1157.7,464.1],[1145,429.5],[1147.9,381.6],[1153.8,370.5],[1156.9,358.8],[1166.7,351.6],[1158,355.2],[1170.5,344.2],[1173,340.7],[1178.4,338.2],[1201.3,367.9],[1210.3,405.1],[1219.3,442.3],[1224.3,459.5],[1225.7,471],[1230.1,462.6],[1240.9,461.3],[1237.9,457.3],[1221.6,445.1],[1225.4,451.4],[1212.1,438.5],[1205.9,427.7],[1170.9,417.6],[1152,416.8],[1136.6,428.1],[1135,447],[1127.9,460.3],[1128.6,478.7],[1115,508.6],[1161.5,515.1],[1200.4,531.8],[1257.8,547.8],[1334,554.5],[1338,559.9],[1369,564.8],[1399.1,582.8],[1407.7,603.6],[1408.5,619.3],[1452.5,619.1],[1420.2,644.7],[1404.5,662.2],[1404.5,662.2],[1345.4,674.3],[1299.7,691],[1299.7,691],[1324.4,699.7],[1291,691.9],[1254.3,686.4],[1254.3,686.4],[1239.1,678.1],[1235.9,661.8],[1235.9,661.8],[1210.4,662],[1180.7,647.6],[1178.1,636.1],[1192.7,629.3],[1166.6,622.1],[1141.9,610.8],[1167.2,628],[1167.8,632.1],[1168.4,636.2],[1166.3,642.7],[1178.6,630.9],[1201.1,625],[1178,612.2]]","[0,0.3527331528]","[0.3527331528,0.3527331528]","[-0.3527331528,-0.3527331528]","[-0.3527331528,0]","[0,-0.3527331528]","[0.3527331528,-0.3527331528]","[0,0]","[0.3527331528,0]",0,0,0,0,1,2,Tablet,7,1,11,9
,,,,,,,,,,,,,,,,,,,41,001,2024-12-02_17h28.31.957,Attention_exp_legacy,2023.1.0,Win32,59.88023952,,,,,,,,,,,[0.0020833333333333333],[0.3592592592592593],[1],[0],[0],[1.7006000000014865],"[""Option1_label""]",Option1_label,2,2.7048,"[[0.3072916666666667,-0.37592592592592594],[0.3072916666666667,-0.37592592592592594],[0.3072916666666667,-0.37592592592592594],[0.3072916666666667,-0.37592592592592594],[0.3072916666666667,-0.37592592592592594],[0.3072916666666667,-0.37592592592592594],[0.3072916666666667,-0.37592592592592594],[0.3072916666666667,-0.37592592592592594],[0.3072916666666667,-0.37592592592592594],[0.3072916666666667,-0.37592592592592594],[0.3072916666666667,-0.37592592592592594],[0.3072916666666667,-0.37592592592592594],[0.3072916666666667,-0.37592592592592594],[0.3072916666666667,-0.37592592592592594],[0.3072916666666667,-0.37592592592592594],[0.3072916666666667,-0.37592592592592594],[0.3072916666666667,-0.37592592592592594],[0.3072916666666667,-0.37592592592592594],[0.3072916666666667,-0.37592592592592594],[0.3072916666666667,-0.37592592592592594],[0.3072916666666667,-0.37592592592592594],[0.3072916666666667,-0.37592592592592594],[0.3072916666666667,-0.37592592592592594],[0.3072916666666667,-0.37592592592592594],[0.3072916666666667,-0.37592592592592594],[0.3072916666666667,-0.37592592592592594],[0.3072916666666667,-0.37592592592592594],[0.3072916666666667,-0.37592592592592594],[0.3072916666666667,-0.37592592592592594],[0.3072916666666667,-0.37592592592592594],[0.3072916666666667,-0.37592592592592594],[0.3072916666666667,-0.37592592592592594],[0.3072916666666667,-0.37592592592592594],[0.3072916666666667,-0.37592592592592594],[0.3072916666666667,-0.37592592592592594],[0.3072916666666667,-0.37592592592592594],[0.3072916666666667,-0.37592592592592594],[0.3072916666666667,-0.37592592592592594],[0.3072916666666667,-0.37592592592592594],[0.3072916666666667,-0.37592592592592594],[0.3072916666666667,-0.37592592592592594],[0.3072916666666667,-0.37592592592592594],[0.3072916666666667,-0.37592592592592594],[0.30833333333333335,-0.37407407407407406],[0.30833333333333335,-0.37037037037037035],[0.30833333333333335,-0.37037037037037035],[0.30833333333333335,-0.37037037037037035],[0.30833333333333335,-0.37037037037037035],[0.30833333333333335,-0.37037037037037035],[0.30833333333333335,-0.37037037037037035],[0.30833333333333335,-0.37037037037037035],[0.30833333333333335,-0.37037037037037035],[0.30833333333333335,-0.37037037037037035],[0.30833333333333335,-0.37037037037037035],[0.30833333333333335,-0.37037037037037035],[0.30833333333333335,-0.37037037037037035],[0.30833333333333335,-0.37037037037037035],[0.30833333333333335,-0.37037037037037035],[0.30833333333333335,-0.37037037037037035],[0.30833333333333335,-0.37037037037037035],[0.30833333333333335,-0.37037037037037035],[0.30833333333333335,-0.37037037037037035],[0.30833333333333335,-0.37037037037037035],[0.30833333333333335,-0.37037037037037035],[0.30833333333333335,-0.37037037037037035],[0.30833333333333335,-0.37037037037037035],[0.30833333333333335,-0.37037037037037035],[0.30833333333333335,-0.37037037037037035],[0.30833333333333335,-0.37037037037037035],[0.30833333333333335,-0.37037037037037035],[0.30833333333333335,-0.37037037037037035],[0.30833333333333335,-0.37037037037037035],[0.30833333333333335,-0.37037037037037035],[0.30833333333333335,-0.37037037037037035],[0.30833333333333335,-0.37037037037037035],[0.30833333333333335,-0.36666666666666664],[0.30833333333333335,-0.3648148148148148],[0.303125,-0.35],[0.303125,-0.35],[0.265625,-0.32592592592592595],[0.24895833333333334,-0.31666666666666665],[0.16979166666666667,-0.2611111111111111],[0.13958333333333334,-0.2351851851851852],[0.051041666666666666,-0.12777777777777777],[0.0375,-0.1],[0.010416666666666666,0.007407407407407408],[0.008333333333333333,0.03148148148148148],[0.005208333333333333,0.13518518518518519],[0.007291666666666667,0.1537037037037037],[0.010416666666666666,0.20185185185185187],[0.011458333333333333,0.21296296296296297],[0.011458333333333333,0.25],[0.011458333333333333,0.26481481481481484],[0.011458333333333333,0.30185185185185187],[0.011458333333333333,0.31296296296296294],[0.010416666666666666,0.3351851851851852],[0.008333333333333333,0.34629629629629627],[0.003125,0.3574074074074074],[0.0020833333333333333,0.3592592592592593],[0.0020833333333333333,0.3592592592592593],[0.0020833333333333333,0.3592592592592593],[0.0020833333333333333,0.3592592592592593],[0.0020833333333333333,0.3592592592592593],[0.0020833333333333333,0.3592592592592593],[0.0020833333333333333,0.3592592592592593],[0.0020833333333333333,0.3592592592592593],[0.0020833333333333333,0.3592592592592593],[0.0020833333333333333,0.3592592592592593],[0.0020833333333333333,0.3592592592592593],[0.0020833333333333333,0.3574074074074074],[0.0010416666666666667,0.35185185185185186],[0.0010416666666666667,0.31851851851851853],[0.0010416666666666667,0.31851851851851853],[0.004166666666666667,0.24259259259259258],[0.009375,0.20555555555555555],[0.030208333333333334,0.07407407407407407],[0.03854166666666667,0.024074074074074074],[0.06770833333333333,-0.1111111111111111],[0.07395833333333333,-0.1388888888888889],[0.084375,-0.18518518518518517],[0.08645833333333333,-0.19444444444444445],[0.08958333333333333,-0.20925925925925926],[0.08958333333333333,-0.21296296296296297],[0.090625,-0.21851851851851853],[0.090625,-0.21851851851851853],[0.090625,-0.21851851851851853],[0.090625,-0.21851851851851853],[0.090625,-0.21851851851851853],[0.09166666666666666,-0.22037037037037038],[0.09166666666666666,-0.22037037037037038],[0.09166666666666666,-0.22037037037037038],[0.09166666666666666,-0.2222222222222222],[0.09166666666666666,-0.2222222222222222],[0.09166666666666666,-0.2222222222222222],[0.09166666666666666,-0.2222222222222222],[0.09270833333333334,-0.22407407407407406],[0.09270833333333334,-0.22407407407407406],[0.09270833333333334,-0.22407407407407406],[0.09270833333333334,-0.22407407407407406],[0.09270833333333334,-0.22407407407407406],[0.09270833333333334,-0.22407407407407406],[0.09270833333333334,-0.22407407407407406],[0.09270833333333334,-0.22407407407407406],[0.09270833333333334,-0.22407407407407406],[0.09270833333333334,-0.22407407407407406],[0.09270833333333334,-0.22407407407407406],[0.09270833333333334,-0.22407407407407406],[0.09270833333333334,-0.22407407407407406],[0.09270833333333334,-0.22407407407407406],[0.09270833333333334,-0.22407407407407406],[0.09270833333333334,-0.22407407407407406],[0.09270833333333334,-0.22407407407407406],[0.09270833333333334,-0.22407407407407406],[0.09270833333333334,-0.22407407407407406],[0.09270833333333334,-0.22407407407407406],[0.09270833333333334,-0.22407407407407406],[0.09270833333333334,-0.22407407407407406],[0.09270833333333334,-0.22407407407407406],[0.09270833333333334,-0.22407407407407406],[0.09270833333333334,-0.22407407407407406],[0.09270833333333334,-0.22407407407407406],[0.09270833333333334,-0.22407407407407406]]","[[0.3264583333333334,-0.46055555555555555],[0.31260416666666657,-0.46592592592592597],[0.2821875000000001,-0.4988888888888888],[0.2568749999999999,-0.517962962962963],[0.3003124999999999,-0.5666666666666667],[0.3238541666666668,-0.5833333333333334],[0.3741666666666667,-0.6327777777777778],[0.40625,-0.6907407407407408],[0.4444791666666667,-0.7348148148148148],[0.48427083333333343,-0.7868518518518518],[0.5259375000000001,-0.8679629629629629],[0.5416666666666666,-0.9355555555555556],[0.5965625,-0.9640740740740741],[0.6375,-1.0307407407407407],[0.6331249999999999,-1.0927777777777778],[0.5818749999999999,-1.1527777777777777],[0.5497916666666666,-1.1581481481481481],[0.5277083333333332,-1.1792592592592592],[0.5099999999999999,-1.1925925925925926],[0.4632291666666667,-1.2425925925925927],[0.4483333333333334,-1.267962962962963],[0.43385416666666665,-1.2944444444444445],[0.4045833333333334,-1.3661111111111113],[0.3724999999999999,-1.4111111111111112],[0.3220833333333334,-1.4514814814814814],[0.3185416666666666,-1.493888888888889],[0.2713541666666667,-1.5935185185185186],[0.25885416666666666,-1.6398148148148148],[0.23187499999999991,-1.733148148148148],[0.2189583333333334,-1.8031481481481482],[0.1678124999999999,-1.8853703703703704],[0.1412499999999999,-1.957037037037037],[0.1068749999999999,-1.9949999999999999],[0.08427083333333343,-2.0107407407407405],[0.07999999999999995,-2.031111111111111],[0.08468749999999996,-2.065],[0.0890625,-2.0814814814814815],[0.0890625,-2.0814814814814815],[0.06729166666666657,-2.1275925925925927],[0.06729166666666657,-2.1275925925925927],[0.06635416666666671,-2.106111111111111],[0.06635416666666671,-2.106111111111111],[0.050937499999999976,-2.0814814814814815],[0.059895833333333336,-2.0677777777777777],[0.059895833333333336,-2.0677777777777777],[0.09156250000000009,-1.766851851851852],[0.09156250000000009,-1.766851851851852],[0.13604166666666656,-1.5335185185185185],[0.13604166666666656,-1.5335185185185185],[0.1631249999999999,-1.2805555555555554],[0.1631249999999999,-1.2805555555555554],[0.1984375,-1.0753703703703705],[0.1984375,-1.0753703703703705],[0.2243750000000001,-0.8337037037037037],[0.2243750000000001,-0.8337037037037037],[0.25062499999999993,-0.5788888888888889],[0.25062499999999993,-0.5788888888888889],[0.37822916666666656,-0.30462962962962964],[0.37822916666666656,-0.30462962962962964],[0.4548958333333334,-0.030000000000000086],[0.4548958333333334,-0.030000000000000086],[0.5535416666666667,0.2264814814814814],[0.5535416666666667,0.2264814814814814],[0.6551041666666667,0.47388888888888886],[0.6551041666666667,0.47388888888888886],[0.7320833333333333,0.43629629629629635],[0.7320833333333333,0.43629629629629635],[0.8166666666666667,0.49666666666666676],[0.8166666666666667,0.49666666666666676],[0.8948958333333332,0.48555555555555563],[0.8948958333333332,0.48555555555555563],[0.9594791666666665,0.4964814814814815],[0.9594791666666665,0.4964814814814815],[1.0447916666666666,0.5083333333333333],[1.0447916666666666,0.5083333333333333],[1.1030208333333333,0.47240740740740744],[1.1030208333333333,0.47240740740740744],[1.0172916666666665,0.497037037037037],[1.0172916666666665,0.497037037037037],[0.9659375,0.46703703703703714],[0.9659375,0.46703703703703714],[0.9009375000000001,0.41999999999999993],[0.9009375000000001,0.41999999999999993],[0.8086458333333333,0.40425925925925915],[0.8086458333333333,0.40425925925925915],[0.7055208333333333,0.37333333333333335],[0.7055208333333333,0.37333333333333335],[0.6090625000000001,0.3044444444444444],[0.6090625000000001,0.3044444444444444],[0.5141666666666665,0.3177777777777778],[0.5141666666666665,0.3177777777777778],[0.4096874999999999,0.3411111111111112],[0.4096874999999999,0.3411111111111112],[0.28572916666666665,0.26944444444444443],[0.28572916666666665,0.26944444444444443],[0.1734375,0.24148148148148144],[0.1734375,0.24148148148148144],[0.12927083333333325,0.11166666666666658],[0.12927083333333325,0.11166666666666658],[0.08270833333333343,0.011111111111111112],[0.08270833333333343,0.011111111111111112],[0.05562499999999997,-0.04814814814814815],[0.05562499999999997,-0.04814814814814815],[0.01885416666666669,-0.08648148148148146],[0.01885416666666669,-0.08648148148148146],[0.01885416666666669,-0.08648148148148146],[0.01885416666666669,-0.08648148148148146],[0.016562499999999977,-0.062407407407407384],[0.016562499999999977,-0.062407407407407384],[-0.018124999999999978,-0.11277777777777774],[-0.018124999999999978,-0.11277777777777774],[-0.025312499999999953,-0.23111111111111113],[-0.025312499999999953,-0.23111111111111113],[-0.03114583333333331,-0.33425925925925926],[-0.03114583333333331,-0.33425925925925926],[-0.016354166666666715,-0.3277777777777778],[-0.016354166666666715,-0.3277777777777778],[0.0140625,-0.3055555555555556],[0.0140625,-0.3055555555555556],[0.025312499999999953,-0.28351851851851856],[0.025312499999999953,-0.28351851851851856],[0.024374999999999977,-0.3207407407407407],[0.024374999999999977,-0.3207407407407407],[0.02052083333333338,-0.22037037037037038],[0.02052083333333338,-0.22037037037037038],[0.059791666666666646,-0.13259259259259262],[0.059791666666666646,-0.13259259259259262],[0.08729166666666661,-0.12407407407407407],[0.08729166666666661,-0.12407407407407407],[0.09260416666666677,-0.059814814814814835],[0.09260416666666677,-0.059814814814814835],[0.078125,0.04981481481481477],[0.078125,0.04981481481481477],[0.09770833333333329,0.18111111111111103],[0.09770833333333329,0.18111111111111103],[0.09416666666666676,0.23055555555555557],[0.09416666666666676,0.23055555555555557],[0.09010416666666667,0.27148148148148155],[0.09010416666666667,0.27148148148148155],[0.0853125000000001,0.3431481481481481],[0.0853125000000001,0.3431481481481481],[0.10625,0.4412962962962962],[0.10625,0.4412962962962962],[0.12979166666666658,0.4222222222222222],[0.12979166666666658,0.4222222222222222],[0.14697916666666658,0.36425925925925934],[0.14697916666666658,0.36425925925925934],[0.15333333333333338,0.3337037037037038],[0.15333333333333338,0.3337037037037038],[0.18624999999999994,0.34018518518518526],[0.18624999999999994,0.34018518518518526],[0.2521874999999999,0.2855555555555556],[0.2521874999999999,0.2855555555555556],[0.27364583333333337,0.19000000000000003],[0.27364583333333337,0.19000000000000003],[0.3012500000000001,0.13055555555555556],[0.3012500000000001,0.13055555555555556],[0.35489583333333335,0.012592592592592508],[0.35489583333333335,0.012592592592592508],[0.4018749999999999,-0.10666666666666672],[0.4018749999999999,-0.10666666666666672],[0.4580208333333334,-0.19370370370370374]]","[[0.3264583333333334,-0.46055555555555555,0],[0.31260416666666657,-0.46592592592592597,0.016500000000000625],[0.2821875000000001,-0.4988888888888888,0.03290000000223614],[0.2568749999999999,-0.517962962962963,0.049800000000743694],[0.3003124999999999,-0.5666666666666667,0.06640000000223267],[0.3238541666666668,-0.5833333333333334,0.08299999999999841],[0.3741666666666667,-0.6327777777777778,0.09970000000298285],[0.40625,-0.6907407407407408,0.11640000000223694],[0.4444791666666667,-0.7348148148148148,0.13300000000000267],[0.48427083333333343,-0.7868518518518518,0.14970000000298],[0.5259375000000001,-0.8679629629629629,0.16630000000074574],[0.5416666666666666,-0.9355555555555556,0.18299999999999983],[0.5965625,-0.9640740740740741,0.1996000000014888],[0.6375,-1.0307407407407407,0.21640000000223836],[0.6331249999999999,-1.0927777777777778,0.23290000000223898],[0.5818749999999999,-1.1527777777777777,0.24970000000298143],[0.5497916666666666,-1.1581481481481481,0.26630000000074716],[0.5277083333333332,-1.1792592592592592,0.2831000000014896],[0.5099999999999999,-1.1925925925925926,0.2997000000029786],[0.4632291666666667,-1.2425925925925927,0.3164000000022327],[0.4483333333333334,-1.267962962962963,0.3329999999999984],[0.43385416666666665,-1.2944444444444445,0.34970000000298285],[0.4045833333333334,-1.3661111111111113,0.3663000000007486],[0.3724999999999999,-1.4111111111111112,0.3873000000007494],[0.3220833333333334,-1.4514814814814814,0.402000000000001],[0.3185416666666666,-1.493888888888889,0.41630000000074574],[0.2713541666666667,-1.5935185185185186,0.4335000000000022],[0.25885416666666666,-1.6398148148148148,0.4496000000014888],[0.23187499999999991,-1.733148148148148,0.46640000000223836],[0.2189583333333334,-1.8031481481481482,0.4830000000000041],[0.1678124999999999,-1.8853703703703704,0.4997000000029814],[0.1412499999999999,-1.957037037037037,0.5163000000007472],[0.1068749999999999,-1.9949999999999999,0.5331000000014896],[0.08427083333333343,-2.0107407407407405,0.5496000000014902],[0.07999999999999995,-2.031111111111111,0.5663000000007443],[0.08468749999999996,-2.065,0.5874000000022335],[0.0890625,-2.0814814814814815,0.6044000000022365],[0.0890625,-2.0814814814814815,0.6164000000022369],[0.06729166666666657,-2.1275925925925927,0.6330000000000027],[0.06729166666666657,-2.1275925925925927,0.6496000000014917],[0.06635416666666671,-2.106111111111111,0.6664000000022341],[0.06635416666666671,-2.106111111111111,0.6831000000014882],[0.050937499999999976,-2.0814814814814815,0.6998000000007494],[0.059895833333333336,-2.0677777777777777,0.7326000000014901],[0.059895833333333336,-2.0677777777777777,0.7606000000014888],[0.09156250000000009,-1.766851851851852,0.7734999999999985],[0.09156250000000009,-1.766851851851852,0.7827000000029827],[0.13604166666666656,-1.5335185185185185,0.8019000000022345],[0.13604166666666656,-1.5335185185185185,0.8085000000000022],[0.1631249999999999,-1.2805555555555554,0.8337000000029846],[0.1631249999999999,-1.2805555555555554,0.8407000000029825],[0.1984375,-1.0753703703703705,0.8671000000014928],[0.1984375,-1.0753703703703705,0.8743000000007441],[0.2243750000000001,-0.8337037037037037,0.9009000000022382],[0.2243750000000001,-0.8337037037037037,0.9081000000014896],[0.25062499999999993,-0.5788888888888889,0.9337000000029789],[0.25062499999999993,-0.5788888888888889,0.9406000000014885],[0.37822916666666656,-0.30462962962962964,0.9671000000014942],[0.37822916666666656,-0.30462962962962964,0.9744000000022339],[0.4548958333333334,-0.030000000000000086,1.000300000000749],[0.4548958333333334,-0.030000000000000086,1.0089000000022352],[0.5535416666666667,0.2264814814814814,1.0337000000029803],[0.5535416666666667,0.2264814814814814,1.0411000000014923],[0.6551041666666667,0.47388888888888886,1.0671000000014885],[0.6551041666666667,0.47388888888888886,1.075400000002233],[0.7320833333333333,0.43629629629629635,1.1019000000022388],[0.7320833333333333,0.43629629629629635,1.1081000000014924],[0.8166666666666667,0.49666666666666676,1.1337000000029818],[0.8166666666666667,0.49666666666666676,1.1411000000014937],[0.8948958333333332,0.48555555555555563,1.1670000000000016],[0.8948958333333332,0.48555555555555563,1.1743000000007484],[0.9594791666666665,0.4964814814814815,1.200400000002233],[0.9594791666666665,0.4964814814814815,1.2077000000029798],[1.0447916666666666,0.5083333333333333,1.2338000000007483],[1.0447916666666666,0.5083333333333333,1.240700000002981],[1.1030208333333333,0.47240740740740744,1.2689000000022332],[1.1030208333333333,0.47240740740740744,1.2748000000007451],[1.0172916666666665,0.497037037037037,1.3004999999999995],[1.0172916666666665,0.497037037037037,1.3071000000014905],[0.9659375,0.46703703703703714,1.336500000000001],[0.9659375,0.46703703703703714,1.3426000000014895],[0.9009375000000001,0.41999999999999993,1.368300000000744],[0.9009375000000001,0.41999999999999993,1.375],[0.8086458333333333,0.40425925925925915,1.4031000000014942],[0.8086458333333333,0.40425925925925915,1.4100000000000037],[0.7055208333333333,0.37333333333333335,1.4350000000000023],[0.7055208333333333,0.37333333333333335,1.4418000000007467],[0.6090625000000001,0.3044444444444444,1.471100000001492],[0.6090625000000001,0.3044444444444444,1.477700000002983],[0.5141666666666665,0.3177777777777778,1.5019000000022373],[0.5141666666666665,0.3177777777777778,1.5082000000029794],[0.4096874999999999,0.3411111111111112,1.536999999999999],[0.4096874999999999,0.3411111111111112,1.5429999999999993],[0.28572916666666665,0.26944444444444443,1.5684000000022351],[0.28572916666666665,0.26944444444444443,1.5747000000029843],[0.1734375,0.24148148148148144,1.6031000000014899],[0.1734375,0.24148148148148144,1.609400000002239],[0.12927083333333325,0.11166666666666658,1.6352000000029818],[0.12927083333333325,0.11166666666666658,1.6417000000029844],[0.08270833333333343,0.011111111111111112,1.6688000000007435],[0.08270833333333343,0.011111111111111112,1.675200000002981],[0.05562499999999997,-0.04814814814814815,1.7024000000022355],[0.05562499999999997,-0.04814814814814815,1.7087000000029846],[0.01885416666666669,-0.08648148148148146,1.7336000000014877],[0.01885416666666669,-0.08648148148148146,1.7491000000014907],[0.01885416666666669,-0.08648148148148146,1.754400000002235],[0.01885416666666669,-0.08648148148148146,1.7674000000022332],[0.016562499999999977,-0.062407407407407384,1.8029000000022393],[0.016562499999999977,-0.062407407407407384,1.8093000000007464],[-0.018124999999999978,-0.11277777777777774,1.8374000000022335],[-0.018124999999999978,-0.11277777777777774,1.8438000000007477],[-0.025312499999999953,-0.23111111111111113,1.8684999999999974],[-0.025312499999999953,-0.23111111111111113,1.8752000000029838],[-0.03114583333333331,-0.33425925925925926,1.9033000000007476],[-0.03114583333333331,-0.33425925925925926,1.9098000000007431],[-0.016354166666666715,-0.3277777777777778,1.935300000000744],[-0.016354166666666715,-0.3277777777777778,1.944499999999998],[0.0140625,-0.3055555555555556,1.9699999999999989],[0.0140625,-0.3055555555555556,1.9773000000007457],[0.025312499999999953,-0.28351851851851856,2.0019000000022373],[0.025312499999999953,-0.28351851851851856,2.008100000001491],[0.024374999999999977,-0.3207407407407407,2.037300000000748],[0.024374999999999977,-0.3207407407407407,2.0441000000014924],[0.02052083333333338,-0.22037037037037038,2.0685000000000002],[0.02052083333333338,-0.22037037037037038,2.0747000000029843],[0.059791666666666646,-0.13259259259259262,2.1004000000022387],[0.059791666666666646,-0.13259259259259262,2.108300000000746],[0.08729166666666661,-0.12407407407407407,2.135200000002982],[0.08729166666666661,-0.12407407407407407,2.1514000000022335],[0.09260416666666677,-0.059814814814814835,2.1687000000029784],[0.09260416666666677,-0.059814814814814835,2.1751000000014926],[0.078125,0.04981481481481477,2.203400000002233],[0.078125,0.04981481481481477,2.2094999999999985],[0.09770833333333329,0.18111111111111103,2.2352000000029832],[0.09770833333333329,0.18111111111111103,2.241500000000002],[0.09416666666666676,0.23055555555555557,2.2697000000029846],[0.09416666666666676,0.23055555555555557,2.2757000000029777],[0.09010416666666667,0.27148148148148155,2.303300000000746],[0.09010416666666667,0.27148148148148155,2.3095],[0.0853125000000001,0.3431481481481481,2.335400000002238],[0.0853125000000001,0.3431481481481481,2.341600000001492],[0.10625,0.4412962962962962,2.3669999999999973],[0.10625,0.4412962962962962,2.3744000000022325],[0.12979166666666658,0.4222222222222222,2.4003000000007475],[0.12979166666666658,0.4222222222222222,2.4074000000022338],[0.14697916666666658,0.36425925925925934,2.433700000002979],[0.14697916666666658,0.36425925925925934,2.441499999999998],[0.15333333333333338,0.3337037037037038,2.468499999999999],[0.15333333333333338,0.3337037037037038,2.474700000002983],[0.18624999999999994,0.34018518518518526,2.5020000000000024],[0.18624999999999994,0.34018518518518526,2.5086000000014934],[0.2521874999999999,0.2855555555555556,2.5337000000029803],[0.2521874999999999,0.2855555555555556,2.5407000000029782],[0.27364583333333337,0.19000000000000003,2.568800000000749],[0.27364583333333337,0.19000000000000003,2.575000000000003],[0.3012500000000001,0.13055555555555556,2.600900000002234],[0.3012500000000001,0.13055555555555556,2.6096000000014925],[0.35489583333333335,0.012592592592592508,2.636400000002233],[0.35489583333333335,0.012592592592592508,2.6432000000029845],[0.4018749999999999,-0.10666666666666672,2.671200000002983],[0.4018749999999999,-0.10666666666666672,2.6781000000014927],[0.4580208333333334,-0.19370370370370374,2.704800000000745]]","[0,0.016500000000000625,0.03290000000223614,0.049800000000743694,0.06640000000223267,0.08299999999999841,0.09970000000298285,0.11640000000223694,0.13300000000000267,0.14970000000298,0.16630000000074574,0.18299999999999983,0.1996000000014888,0.21640000000223836,0.23290000000223898,0.24970000000298143,0.26630000000074716,0.2831000000014896,0.2997000000029786,0.3164000000022327,0.3329999999999984,0.34970000000298285,0.3663000000007486,0.3873000000007494,0.402000000000001,0.41630000000074574,0.4335000000000022,0.4496000000014888,0.46640000000223836,0.4830000000000041,0.4997000000029814,0.5163000000007472,0.5331000000014896,0.5496000000014902,0.5663000000007443,0.5874000000022335,0.6044000000022365,0.6164000000022369,0.6330000000000027,0.6496000000014917,0.6664000000022341,0.6831000000014882,0.6998000000007494,0.7326000000014901,0.7606000000014888,0.7734999999999985,0.7827000000029827,0.8019000000022345,0.8085000000000022,0.8337000000029846,0.8407000000029825,0.8671000000014928,0.8743000000007441,0.9009000000022382,0.9081000000014896,0.9337000000029789,0.9406000000014885,0.9671000000014942,0.9744000000022339,1.000300000000749,1.0089000000022352,1.0337000000029803,1.0411000000014923,1.0671000000014885,1.075400000002233,1.1019000000022388,1.1081000000014924,1.1337000000029818,1.1411000000014937,1.1670000000000016,1.1743000000007484,1.200400000002233,1.2077000000029798,1.2338000000007483,1.240700000002981,1.2689000000022332,1.2748000000007451,1.3004999999999995,1.3071000000014905,1.336500000000001,1.3426000000014895,1.368300000000744,1.375,1.4031000000014942,1.4100000000000037,1.4350000000000023,1.4418000000007467,1.471100000001492,1.477700000002983,1.5019000000022373,1.5082000000029794,1.536999999999999,1.5429999999999993,1.5684000000022351,1.5747000000029843,1.6031000000014899,1.609400000002239,1.6352000000029818,1.6417000000029844,1.6688000000007435,1.675200000002981,1.7024000000022355,1.7087000000029846,1.7336000000014877,1.7491000000014907,1.754400000002235,1.7674000000022332,1.8029000000022393,1.8093000000007464,1.8374000000022335,1.8438000000007477,1.8684999999999974,1.8752000000029838,1.9033000000007476,1.9098000000007431,1.935300000000744,1.944499999999998,1.9699999999999989,1.9773000000007457,2.0019000000022373,2.008100000001491,2.037300000000748,2.0441000000014924,2.0685000000000002,2.0747000000029843,2.1004000000022387,2.108300000000746,2.135200000002982,2.1514000000022335,2.1687000000029784,2.1751000000014926,2.203400000002233,2.2094999999999985,2.2352000000029832,2.241500000000002,2.2697000000029846,2.2757000000029777,2.303300000000746,2.3095,2.335400000002238,2.341600000001492,2.3669999999999973,2.3744000000022325,2.4003000000007475,2.4074000000022338,2.433700000002979,2.441499999999998,2.468499999999999,2.474700000002983,2.5020000000000024,2.5086000000014934,2.5337000000029803,2.5407000000029782,2.568800000000749,2.575000000000003,2.600900000002234,2.6096000000014925,2.636400000002233,2.6432000000029845,2.671200000002983,2.6781000000014927,2.704800000000745]","[1733131760571,1733131760586,1733131760602,1733131760619,1733131760635,1733131760652,1733131760669,1733131760685,1733131760702,1733131760719,1733131760735,1733131760752,1733131760769,1733131760785,1733131760802,1733131760819,1733131760835,1733131760852,1733131760869,1733131760885,1733131760902,1733131760919,1733131760935,1733131760956,1733131760971,1733131760985,1733131761003,1733131761019,1733131761035,1733131761052,1733131761069,1733131761085,1733131761102,1733131761119,1733131761135,1733131761157,1733131761174,1733131761185,1733131761202,1733131761219,1733131761235,1733131761252,1733131761269,1733131761302,1733131761330,1733131761343,1733131761352,1733131761371,1733131761378,1733131761403,1733131761410,1733131761436,1733131761443,1733131761470,1733131761477,1733131761503,1733131761510,1733131761536,1733131761543,1733131761569,1733131761578,1733131761603,1733131761610,1733131761636,1733131761644,1733131761671,1733131761677,1733131761703,1733131761710,1733131761736,1733131761743,1733131761769,1733131761777,1733131761803,1733131761810,1733131761838,1733131761844,1733131761870,1733131761876,1733131761906,1733131761912,1733131761937,1733131761944,1733131761972,1733131761979,1733131762004,1733131762011,1733131762040,1733131762047,1733131762071,1733131762077,1733131762106,1733131762112,1733131762137,1733131762144,1733131762172,1733131762179,1733131762204,1733131762211,1733131762238,1733131762244,1733131762271,1733131762278,1733131762303,1733131762318,1733131762323,1733131762337,1733131762372,1733131762378,1733131762407,1733131762413,1733131762438,1733131762444,1733131762472,1733131762479,1733131762505,1733131762514,1733131762539,1733131762546,1733131762571,1733131762577,1733131762606,1733131762613,1733131762638,1733131762644,1733131762669,1733131762677,1733131762704,1733131762721,1733131762738,1733131762744,1733131762773,1733131762779,1733131762804,1733131762811,1733131762839,1733131762845,1733131762872,1733131762879,1733131762904,1733131762911,1733131762936,1733131762943,1733131762969,1733131762976,1733131763003,1733131763011,1733131763038,1733131763044,1733131763071,1733131763078,1733131763103,1733131763110,1733131763138,1733131763144,1733131763170,1733131763179,1733131763205,1733131763212,1733131763240,1733131763247,1733131763274]","[[1273.4,291.3],[1260.1,288.4],[1230.9,270.6],[1206.6,260.3],[1248.3,234],[1270.9,225],[1319.2,198.3],[1350,167],[1386.7,143.2],[1424.9,115.1],[1464.9,71.3],[1480,34.8],[1532.7,19.4],[1572,-16.6],[1567.8,-50.1],[1518.6,-82.5],[1487.8,-85.4],[1466.6,-96.8],[1449.6,-104],[1404.7,-131],[1390.4,-144.7],[1376.5,-159],[1348.4,-197.7],[1317.6,-222],[1269.2,-243.8],[1265.8,-266.7],[1220.5,-320.5],[1208.5,-345.5],[1182.6,-395.9],[1170.2,-433.7],[1121.1,-478.1],[1095.6,-516.8],[1062.6,-537.3],[1040.9,-545.8],[1036.8,-556.8],[1041.3,-575.1],[1045.5,-584],[1045.5,-584],[1024.6,-608.9],[1024.6,-608.9],[1023.7,-597.3],[1023.7,-597.3],[1008.9,-584],[1017.5,-576.6],[1017.5,-576.6],[1047.9,-414.1],[1047.9,-414.1],[1090.6,-288.1],[1090.6,-288.1],[1116.6,-151.5],[1116.6,-151.5],[1150.5,-40.7],[1150.5,-40.7],[1175.4,89.8],[1175.4,89.8],[1200.6,227.4],[1200.6,227.4],[1323.1,375.5],[1323.1,375.5],[1396.7,523.8],[1396.7,523.8],[1491.4,662.3],[1491.4,662.3],[1588.9,795.9],[1588.9,795.9],[1662.8,775.6],[1662.8,775.6],[1744,808.2],[1744,808.2],[1819.1,802.2],[1819.1,802.2],[1881.1,808.1],[1881.1,808.1],[1963,814.5],[1963,814.5],[2018.9,795.1],[2018.9,795.1],[1936.6,808.4],[1936.6,808.4],[1887.3,792.2],[1887.3,792.2],[1824.9,766.8],[1824.9,766.8],[1736.3,758.3],[1736.3,758.3],[1637.3,741.6],[1637.3,741.6],[1544.7,704.4],[1544.7,704.4],[1453.6,711.6],[1453.6,711.6],[1353.3,724.2],[1353.3,724.2],[1234.3,685.5],[1234.3,685.5],[1126.5,670.4],[1126.5,670.4],[1084.1,600.3],[1084.1,600.3],[1039.4,546],[1039.4,546],[1013.4,514],[1013.4,514],[978.1,493.3],[978.1,493.3],[978.1,493.3],[978.1,493.3],[975.9,506.3],[975.9,506.3],[942.6,479.1],[942.6,479.1],[935.7,415.2],[935.7,415.2],[930.1,359.5],[930.1,359.5],[944.3,363],[944.3,363],[973.5,375],[973.5,375],[984.3,386.9],[984.3,386.9],[983.4,366.8],[983.4,366.8],[979.7,421],[979.7,421],[1017.4,468.4],[1017.4,468.4],[1043.8,473],[1043.8,473],[1048.9,507.7],[1048.9,507.7],[1035,566.9],[1035,566.9],[1053.8,637.8],[1053.8,637.8],[1050.4,664.5],[1050.4,664.5],[1046.5,686.6],[1046.5,686.6],[1041.9,725.3],[1041.9,725.3],[1062,778.3],[1062,778.3],[1084.6,768],[1084.6,768],[1101.1,736.7],[1101.1,736.7],[1107.2,720.2],[1107.2,720.2],[1138.8,723.7],[1138.8,723.7],[1202.1,694.2],[1202.1,694.2],[1222.7,642.6],[1222.7,642.6],[1249.2,610.5],[1249.2,610.5],[1300.7,546.8],[1300.7,546.8],[1345.8,482.4],[1345.8,482.4],[1399.7,435.4]]","[0,0.3527331528]","[0.3527331528,0.3527331528]","[-0.3527331528,0]","[-0.3527331528,-0.3527331528]","[0,0]","[0.3527331528,0]","[0,-0.3527331528]","[0.3527331528,-0.3527331528]",0,1,1,1,1,2,Tablet,13,7,11,1
