inst1_resp.keys,inst1_resp.rt,calibrationMouse.x,calibrationMouse.y,calibrationMouse.leftButton,calibrationMouse.midButton,calibrationMouse.rightButton,calibrationClick.x,calibrationClick.y,calibrationClick.leftButton,calibrationClick.midButton,calibrationClick.rightButton,trialsc.thisRepN,trialsc.thisTrialN,trialsc.thisN,trialsc.thisIndex,trialsc.ran,calibration_x,calibration_y,participant,session,date,expName,psychopyVersion,OS,frameRate,calibrationClick.clicked_name,ScreenRes_pixels,Camera_pixels,mouse_2.x,mouse_2.y,mouse_2.leftButton,mouse_2.midButton,mouse_2.rightButton,mouse_2.time,mouse_2.clicked_name,mouse.x,mouse.y,mouse.leftButton,mouse.midButton,mouse.rightButton,mouse.time,mouse.clicked_name,Choice,Trial,TrialDuration,MOUSE_GAZE,ET_GAZE,ET_GAZE_x_T,time,unixTime,ET_GAZE_NF,Loc_Option1_label,Loc_Option2_label,Loc_Cost_label,Loc_Qual_label,Loc_Option1_cost,Loc_Option2_cost,Loc_Option1_quality,Loc_Option2_quality,trials.thisRepN,trials.thisTrialN,trials.thisN,trials.thisIndex,trials.ran,Block,Device,cost1,qual1,cost2,qual2
space,0.8953,-0.175,-0.642592593,1,0,0,-0.329166667,-0.683333333,1,0,0,0,0,0,4,1,-0.33,-0.67,19,001,2024-12-03_12h15.57.131,Attention_exp_legacy,2023.1.0,Win32,59.88023952,,,,,,,,,,,,,,,,,,,,,,,,,,,,,,,,,,,,,,,,,,,,,
,,,,,,,0.326041667,0.012962963,1,0,0,0,1,1,16,1,0.33,0,19,001,2024-12-03_12h15.57.131,Attention_exp_legacy,2023.1.0,Win32,59.88023952,,,,,,,,,,,,,,,,,,,,,,,,,,,,,,,,,,,,,,,,,,,,,
,,,,,,,-0.014583333,0.672222222,1,0,0,0,2,2,13,1,0,0.67,19,001,2024-12-03_12h15.57.131,Attention_exp_legacy,2023.1.0,Win32,59.88023952,,,,,,,,,,,,,,,,,,,,,,,,,,,,,,,,,,,,,,,,,,,,,
,,,,,,,0.327083333,0.674074074,1,0,0,0,3,3,18,1,0.33,0.67,19,001,2024-12-03_12h15.57.131,Attention_exp_legacy,2023.1.0,Win32,59.88023952,calibration_square,,,,,,,,,,,,,,,,,,,,,,,,,,,,,,,,,,,,,,,,,,,,
,,,,,,,0.326041667,0.337037037,1,0,0,0,4,4,17,1,0.33,0.33,19,001,2024-12-03_12h15.57.131,Attention_exp_legacy,2023.1.0,Win32,59.88023952,calibration_square,,,,,,,,,,,,,,,,,,,,,,,,,,,,,,,,,,,,,,,,,,,,
,,,,,,,-0.669791667,0.346296296,1,0,0,0,5,5,3,1,-0.67,0.33,19,001,2024-12-03_12h15.57.131,Attention_exp_legacy,2023.1.0,Win32,59.88023952,,,,,,,,,,,,,,,,,,,,,,,,,,,,,,,,,,,,,,,,,,,,,
,,,,,,,0.333333333,-0.325925926,1,0,0,0,6,6,15,1,0.33,-0.33,19,001,2024-12-03_12h15.57.131,Attention_exp_legacy,2023.1.0,Win32,59.88023952,calibration_square,,,,,,,,,,,,,,,,,,,,,,,,,,,,,,,,,,,,,,,,,,,,
,,,,,,,-0.333333333,0.67037037,1,0,0,0,7,7,8,1,-0.33,0.67,19,001,2024-12-03_12h15.57.131,Attention_exp_legacy,2023.1.0,Win32,59.88023952,calibration_square,,,,,,,,,,,,,,,,,,,,,,,,,,,,,,,,,,,,,,,,,,,,
,,,,,,,0.678125,0.681481481,1,0,0,0,8,8,19,1,0.67,0.67,19,001,2024-12-03_12h15.57.131,Attention_exp_legacy,2023.1.0,Win32,59.88023952,,,,,,,,,,,,,,,,,,,,,,,,,,,,,,,,,,,,,,,,,,,,,
,,,,,,,-0.332291667,0.011111111,1,0,0,0,9,9,6,1,-0.33,0,19,001,2024-12-03_12h15.57.131,Attention_exp_legacy,2023.1.0,Win32,59.88023952,,,,,,,,,,,,,,,,,,,,,,,,,,,,,,,,,,,,,,,,,,,,,
,,,,,,,-0.677083333,0.016666667,1,0,0,0,10,10,2,1,-0.67,0,19,001,2024-12-03_12h15.57.131,Attention_exp_legacy,2023.1.0,Win32,59.88023952,,,,,,,,,,,,,,,,,,,,,,,,,,,,,,,,,,,,,,,,,,,,,
,,,,,,,-0.009375,0.003703704,1,0,0,0,11,11,11,1,0,0,19,001,2024-12-03_12h15.57.131,Attention_exp_legacy,2023.1.0,Win32,59.88023952,calibration_square,,,,,,,,,,,,,,,,,,,,,,,,,,,,,,,,,,,,,,,,,,,,
,,,,,,,-0.672916667,-0.32037037,1,0,0,0,12,12,1,1,-0.67,-0.33,19,001,2024-12-03_12h15.57.131,Attention_exp_legacy,2023.1.0,Win32,59.88023952,calibration_square,,,,,,,,,,,,,,,,,,,,,,,,,,,,,,,,,,,,,,,,,,,,
,,,,,,,-0.008333333,-0.32962963,1,0,0,0,13,13,10,1,0,-0.33,19,001,2024-12-03_12h15.57.131,Attention_exp_legacy,2023.1.0,Win32,59.88023952,calibration_square,,,,,,,,,,,,,,,,,,,,,,,,,,,,,,,,,,,,,,,,,,,,
,,,,,,,-0.33125,0.337037037,1,0,0,0,14,14,7,1,-0.33,0.33,19,001,2024-12-03_12h15.57.131,Attention_exp_legacy,2023.1.0,Win32,59.88023952,calibration_square,,,,,,,,,,,,,,,,,,,,,,,,,,,,,,,,,,,,,,,,,,,,
,,,,,,,0.665625,-0.674074074,1,0,0,0,15,15,20,1,0.67,-0.67,19,001,2024-12-03_12h15.57.131,Attention_exp_legacy,2023.1.0,Win32,59.88023952,calibration_square,,,,,,,,,,,,,,,,,,,,,,,,,,,,,,,,,,,,,,,,,,,,
,,,,,,,-0.002083333,-0.67037037,1,0,0,0,16,16,9,1,0,-0.67,19,001,2024-12-03_12h15.57.131,Attention_exp_legacy,2023.1.0,Win32,59.88023952,calibration_square,,,,,,,,,,,,,,,,,,,,,,,,,,,,,,,,,,,,,,,,,,,,
,,,,,,,-0.332291667,-0.32962963,1,0,0,0,17,17,5,1,-0.33,-0.33,19,001,2024-12-03_12h15.57.131,Attention_exp_legacy,2023.1.0,Win32,59.88023952,calibration_square,,,,,,,,,,,,,,,,,,,,,,,,,,,,,,,,,,,,,,,,,,,,
,,,,,,,-0.004166667,0.318518519,1,0,0,0,18,18,12,1,0,0.33,19,001,2024-12-03_12h15.57.131,Attention_exp_legacy,2023.1.0,Win32,59.88023952,,,,,,,,,,,,,,,,,,,,,,,,,,,,,,,,,,,,,,,,,,,,,
,,,,,,,0.333333333,-0.67962963,1,0,0,0,19,19,14,1,0.33,-0.67,19,001,2024-12-03_12h15.57.131,Attention_exp_legacy,2023.1.0,Win32,59.88023952,calibration_square,,,,,,,,,,,,,,,,,,,,,,,,,,,,,,,,,,,,,,,,,,,,
,,,,,,,-0.664583333,-0.664814815,1,0,0,0,20,20,0,1,-0.67,-0.67,19,001,2024-12-03_12h15.57.131,Attention_exp_legacy,2023.1.0,Win32,59.88023952,calibration_square,,,,,,,,,,,,,,,,,,,,,,,,,,,,,,,,,,,,,,,,,,,,
,,,,,,,,,,,,,,,,,,,19,001,2024-12-03_12h15.57.131,Attention_exp_legacy,2023.1.0,Win32,59.88023952,,"[1920,1080]","[640,480]",[0.009375],[-0.5018518518518519],[1],[0],[0],[1.2985000000000042],"[""StartButton""]",[-0.06458333333333334],[0.42592592592592593],[1],[0],[0],[2.6382999999970167],"[""Option1_label""]",Option1_label,1,3.6622,"[[0.096875,-0.2814814814814815],[0.096875,-0.2814814814814815],[0.096875,-0.2814814814814815],[0.096875,-0.2814814814814815],[0.096875,-0.2814814814814815],[0.096875,-0.2814814814814815],[0.096875,-0.2814814814814815],[0.096875,-0.2814814814814815],[0.096875,-0.2814814814814815],[0.096875,-0.2814814814814815],[0.096875,-0.2814814814814815],[0.096875,-0.2814814814814815],[0.096875,-0.2814814814814815],[0.096875,-0.2814814814814815],[0.096875,-0.2814814814814815],[0.096875,-0.2814814814814815],[0.096875,-0.2814814814814815],[0.096875,-0.2814814814814815],[0.096875,-0.2814814814814815],[0.096875,-0.2814814814814815],[0.096875,-0.2814814814814815],[0.096875,-0.2814814814814815],[0.096875,-0.2814814814814815],[0.096875,-0.2814814814814815],[0.096875,-0.2814814814814815],[0.096875,-0.2814814814814815],[0.096875,-0.2814814814814815],[0.096875,-0.2814814814814815],[0.096875,-0.2814814814814815],[0.096875,-0.2814814814814815],[0.096875,-0.2814814814814815],[0.096875,-0.2814814814814815],[0.096875,-0.2814814814814815],[0.096875,-0.2814814814814815],[0.096875,-0.2814814814814815],[0.096875,-0.2814814814814815],[0.096875,-0.2814814814814815],[0.096875,-0.2814814814814815],[0.096875,-0.2814814814814815],[0.096875,-0.2814814814814815],[0.09479166666666666,-0.28703703703703703],[0.09270833333333334,-0.29259259259259257],[0.09166666666666666,-0.2962962962962963],[0.090625,-0.3],[0.08958333333333333,-0.30185185185185187],[0.08958333333333333,-0.30185185185185187],[0.08958333333333333,-0.30185185185185187],[0.08854166666666667,-0.3055555555555556],[0.0875,-0.3074074074074074],[0.08541666666666667,-0.3148148148148148],[0.084375,-0.31666666666666665],[0.084375,-0.31851851851851853],[0.08333333333333333,-0.32222222222222224],[0.08229166666666667,-0.32592592592592595],[0.08125,-0.3296296296296296],[0.08020833333333334,-0.3333333333333333],[0.08020833333333334,-0.3351851851851852],[0.08020833333333334,-0.3351851851851852],[0.08020833333333334,-0.3351851851851852],[0.08020833333333334,-0.3351851851851852],[0.08020833333333334,-0.3351851851851852],[0.08020833333333334,-0.3351851851851852],[0.08020833333333334,-0.3351851851851852],[0.08020833333333334,-0.3351851851851852],[0.08020833333333334,-0.3351851851851852],[0.08020833333333334,-0.3351851851851852],[0.08020833333333334,-0.3351851851851852],[0.08020833333333334,-0.3351851851851852],[0.08020833333333334,-0.3351851851851852],[0.08020833333333334,-0.3351851851851852],[0.08020833333333334,-0.3351851851851852],[0.08020833333333334,-0.3351851851851852],[0.08020833333333334,-0.3351851851851852],[0.08020833333333334,-0.3351851851851852],[0.08020833333333334,-0.3351851851851852],[0.08020833333333334,-0.3351851851851852],[0.08020833333333334,-0.3351851851851852],[0.08020833333333334,-0.3351851851851852],[0.08020833333333334,-0.3351851851851852],[0.08020833333333334,-0.3351851851851852],[0.08020833333333334,-0.3351851851851852],[0.08020833333333334,-0.3351851851851852],[0.08020833333333334,-0.3351851851851852],[0.08020833333333334,-0.3351851851851852],[0.08020833333333334,-0.3351851851851852],[0.078125,-0.3333333333333333],[0.07708333333333334,-0.3314814814814815],[0.07708333333333334,-0.3277777777777778],[0.075,-0.32592592592592595],[0.075,-0.32592592592592595],[0.075,-0.32407407407407407],[0.075,-0.32222222222222224],[0.075,-0.32222222222222224],[0.075,-0.32222222222222224],[0.075,-0.32222222222222224],[0.075,-0.32222222222222224],[0.075,-0.32222222222222224],[0.075,-0.32222222222222224],[0.075,-0.32222222222222224],[0.075,-0.32222222222222224],[0.075,-0.32222222222222224],[0.075,-0.32222222222222224],[0.075,-0.32222222222222224],[0.075,-0.32222222222222224],[0.075,-0.32222222222222224],[0.075,-0.32222222222222224],[0.075,-0.32222222222222224],[0.075,-0.32222222222222224],[0.075,-0.32222222222222224],[0.075,-0.32222222222222224],[0.075,-0.32222222222222224],[0.075,-0.32222222222222224],[0.075,-0.32222222222222224],[0.07395833333333333,-0.32037037037037036],[0.07395833333333333,-0.31851851851851853],[0.07395833333333333,-0.31851851851851853],[0.07395833333333333,-0.31851851851851853],[0.07395833333333333,-0.31851851851851853],[0.07395833333333333,-0.31851851851851853],[0.07291666666666667,-0.31851851851851853],[0.07291666666666667,-0.31851851851851853],[0.07291666666666667,-0.31851851851851853],[0.07291666666666667,-0.31851851851851853],[0.07291666666666667,-0.31851851851851853],[0.07291666666666667,-0.31851851851851853],[0.07291666666666667,-0.31851851851851853],[0.07291666666666667,-0.31666666666666665],[0.07291666666666667,-0.31666666666666665],[0.07291666666666667,-0.31666666666666665],[0.07291666666666667,-0.31666666666666665],[0.07291666666666667,-0.31666666666666665],[0.07291666666666667,-0.31296296296296294],[0.07291666666666667,-0.3055555555555556],[0.071875,-0.2962962962962963],[0.07083333333333333,-0.2833333333333333],[0.06979166666666667,-0.2722222222222222],[0.06666666666666667,-0.2537037037037037],[0.06354166666666666,-0.22592592592592592],[0.05416666666666667,-0.16666666666666666],[0.034375,-0.05],[0.014583333333333334,0.07407407407407407],[-0.005208333333333333,0.15],[-0.01875,0.20925925925925926],[-0.036458333333333336,0.2759259259259259],[-0.03854166666666667,0.29074074074074074],[-0.04895833333333333,0.3333333333333333],[-0.05416666666666667,0.3574074074074074],[-0.058333333333333334,0.38333333333333336],[-0.06145833333333333,0.4],[-0.06145833333333333,0.4074074074074074],[-0.0625,0.4148148148148148],[-0.06354166666666666,0.4185185185185185],[-0.06458333333333334,0.4222222222222222],[-0.06458333333333334,0.42592592592592593],[-0.06458333333333334,0.42592592592592593],[-0.06458333333333334,0.42592592592592593],[-0.06458333333333334,0.42592592592592593],[-0.06458333333333334,0.42592592592592593],[-0.06458333333333334,0.42592592592592593],[-0.06458333333333334,0.42592592592592593],[-0.06458333333333334,0.42592592592592593],[-0.06458333333333334,0.42592592592592593],[-0.06458333333333334,0.42592592592592593],[-0.06458333333333334,0.42592592592592593],[-0.06458333333333334,0.42592592592592593],[-0.06458333333333334,0.42592592592592593],[-0.06458333333333334,0.42592592592592593],[-0.06458333333333334,0.42592592592592593],[-0.06458333333333334,0.42592592592592593],[-0.06458333333333334,0.42592592592592593],[-0.06458333333333334,0.42592592592592593],[-0.06458333333333334,0.42592592592592593],[-0.06458333333333334,0.42592592592592593],[-0.06458333333333334,0.42592592592592593],[-0.06458333333333334,0.42592592592592593],[-0.06354166666666666,0.42592592592592593],[-0.06354166666666666,0.42592592592592593],[-0.06354166666666666,0.42592592592592593],[-0.06354166666666666,0.42592592592592593],[-0.06354166666666666,0.42592592592592593],[-0.06354166666666666,0.42592592592592593],[-0.06354166666666666,0.42592592592592593],[-0.06354166666666666,0.42592592592592593],[-0.06354166666666666,0.42592592592592593],[-0.06354166666666666,0.42407407407407405],[-0.06354166666666666,0.42407407407407405],[-0.06354166666666666,0.4222222222222222],[-0.06354166666666666,0.4222222222222222],[-0.06354166666666666,0.4203703703703704],[-0.06354166666666666,0.4203703703703704],[-0.06354166666666666,0.4185185185185185],[-0.06354166666666666,0.4166666666666667],[-0.06354166666666666,0.4166666666666667],[-0.0625,0.4148148148148148],[-0.0625,0.4148148148148148],[-0.0625,0.412962962962963],[-0.06145833333333333,0.4111111111111111],[-0.06145833333333333,0.4111111111111111],[-0.06145833333333333,0.4111111111111111],[-0.06145833333333333,0.40925925925925927],[-0.06145833333333333,0.4074074074074074],[-0.06145833333333333,0.4074074074074074],[-0.06145833333333333,0.4074074074074074],[-0.06145833333333333,0.4074074074074074],[-0.06145833333333333,0.4074074074074074],[-0.06145833333333333,0.4074074074074074],[-0.06145833333333333,0.4074074074074074],[-0.06145833333333333,0.4074074074074074],[-0.06145833333333333,0.4074074074074074],[-0.06145833333333333,0.4074074074074074],[-0.06145833333333333,0.4074074074074074],[-0.06145833333333333,0.4074074074074074],[-0.06145833333333333,0.4074074074074074],[-0.06145833333333333,0.4074074074074074],[-0.06145833333333333,0.4074074074074074],[-0.06145833333333333,0.4074074074074074],[-0.06145833333333333,0.4074074074074074],[-0.06145833333333333,0.4074074074074074],[-0.06145833333333333,0.4074074074074074],[-0.06145833333333333,0.4074074074074074]]","[[0.15729166666666666,-0.1398148148148148],[0.15729166666666666,-0.1398148148148148],[0.13114583333333343,-0.1331481481481481],[0.1243750000000001,-0.1259259259259259],[0.14333333333333323,-0.14351851851851852],[0.14197916666666663,-0.15462962962962962],[0.17239583333333333,-0.16018518518518518],[0.20281250000000003,-0.16574074074074074],[0.18791666666666676,-0.19462962962962968],[0.1883333333333333,-0.21851851851851853],[0.1944791666666667,-0.2227777777777778],[0.19364583333333343,-0.22407407407407406],[0.22177083333333342,-0.21944444444444444],[0.22760416666666666,-0.20777777777777776],[0.2037499999999999,-0.19888888888888884],[0.2205208333333334,-0.18277777777777776],[0.215625,-0.17814814814814814],[0.203125,-0.16500000000000004],[0.2257291666666667,-0.17166666666666663],[0.23302083333333337,-0.18333333333333332],[0.21677083333333325,-0.175],[0.21281249999999996,-0.20555555555555555],[0.19874999999999995,-0.22444444444444442],[0.18125,-0.2331481481481481],[0.19343750000000004,-0.2390740740740741],[0.18624999999999994,-0.247037037037037],[0.1805208333333333,-0.2418518518518519],[0.19229166666666658,-0.2627777777777777],[0.20958333333333337,-0.259074074074074],[0.1779166666666666,-0.2375925925925926],[0.1546875,-0.23648148148148146],[0.12614583333333323,-0.19944444444444442],[0.10854166666666672,-0.17796296296296302],[0.08916666666666657,-0.16074074074074077],[0.07208333333333337,-0.12037037037037036],[0.05406249999999998,-0.09166666666666666],[0.0655208333333333,-0.08148148148148149],[0.06708333333333343,-0.053703703703703705],[0.07104166666666671,-0.0477777777777777],[0.12395833333333334,-0.05962962962962961],[0.16666666666666666,-0.05351851851851848],[0.1877083333333334,-0.025185185185185227],[0.23781249999999995,-0.019259259259259216],[0.28791666666666677,-0.013333333333333417],[0.33135416666666656,-0.03129629629629625],[0.3423958333333334,-0.02555555555555547],[0.32395833333333335,-0.0012962962962963806],[0.32395833333333335,-0.0012962962962963806],[0.30791666666666656,0.05259259259259255],[0.2786458333333333,0.08518518518518518],[0.24572916666666675,0.12074074074074083],[0.2267708333333334,0.12759259259259256],[0.24541666666666656,0.11370370370370367],[0.21479166666666671,0.14370370370370375],[0.16677083333333323,0.2074074074074074],[0.13854166666666667,0.255925925925926],[0.1243750000000001,0.27759259259259256],[0.11020833333333328,0.2992592592592593],[0.11604166666666677,0.2824074074074074],[0.12489583333333343,0.28777777777777774],[0.13354166666666673,0.29685185185185176],[0.12447916666666667,0.31740740740740736],[0.11729166666666657,0.3146296296296296],[0.11937499999999991,0.305925925925926],[0.11666666666666667,0.2868518518518518],[0.10333333333333337,0.26722222222222214],[0.1196875000000001,0.25092592592592594],[0.13604166666666656,0.23462962962962972],[0.13145833333333337,0.22074074074074082],[0.12510416666666657,0.22555555555555548],[0.12062499999999995,0.22259259259259268],[0.1171875,0.23925925925925934],[0.09375,0.27148148148148155],[0.05458333333333331,0.2977777777777777],[0.03760416666666669,0.3007407407407407],[0.01270833333333338,0.31500000000000006],[-0.024791666666666618,0.3351851851851852],[-0.04666666666666662,0.3483333333333334],[-0.07000000000000005,0.36796296296296305],[-0.09156249999999998,0.368888888888889],[-0.09177083333333336,0.3668518518518519],[-0.09572916666666664,0.3368518518518518],[-0.09156249999999998,0.32092592592592584],[-0.07166666666666661,0.3109259259259259],[-0.044062499999999956,0.2935185185185185],[0.0013541666666666192,0.29259259259259257],[0.008229166666666643,0.2794444444444444],[-0.005729166666666666,0.287962962962963],[0.01114583333333338,0.28592592592592586],[0.025625000000000023,0.2862962962962963],[0.021458333333333357,0.26740740740740737],[0.033958333333333354,0.256111111111111],[0.04354166666666662,0.2492592592592593],[0.04354166666666662,0.2492592592592593],[0.04583333333333333,0.2433333333333333],[0.04583333333333333,0.2433333333333333],[0.04583333333333333,0.23444444444444448],[0.04583333333333333,0.23444444444444448],[0.03177083333333333,0.20703703703703696],[0.03177083333333333,0.20703703703703696],[0.06958333333333329,0.18259259259259264],[0.06958333333333329,0.18259259259259264],[0.1178124999999999,0.1507407407407407],[0.1178124999999999,0.1507407407407407],[0.1352083333333333,0.1294444444444444],[0.14812500000000003,0.12833333333333324],[0.1609375,0.1527777777777778],[0.17374999999999996,0.1772222222222223],[0.18354166666666671,0.17240740740740745],[0.20062499999999991,0.16666666666666666],[0.1993750000000001,0.1935185185185185],[0.19385416666666658,0.22925925925925916],[0.165625,0.28666666666666657],[0.1224999999999999,0.32981481481481484],[0.11072916666666661,0.34518518518518515],[0.10583333333333324,0.33796296296296297],[0.10583333333333324,0.33796296296296297],[0.11124999999999995,0.34685185185185174],[0.10197916666666676,0.3237037037037036],[0.10197916666666676,0.3237037037037036],[0.08812499999999991,0.3257407407407407],[0.07270833333333329,0.33425925925925926],[0.07020833333333343,0.3205555555555556],[0.0765625,0.2985185185185186],[0.09354166666666662,0.2579629629629629],[0.10979166666666676,0.2222222222222222],[0.09468750000000009,0.21425925925925934],[0.08635416666666676,0.22166666666666676],[0.05666666666666664,0.2074074074074074],[0.04718749999999995,0.2418518518518519],[0.042604166666666644,0.26370370370370366],[0.03958333333333333,0.27907407407407414],[0.034062500000000044,0.2712962962962963],[0.02333333333333331,0.27018518518518514],[-0.002916666666666619,0.27518518518518525],[-0.019375000000000024,0.2801851851851851],[-0.011041666666666691,0.2898148148148148],[-0.00947916666666669,0.28407407407407403],[0.00302083333333331,0.2748148148148148],[0.010000000000000024,0.24888888888888885],[0.027291666666666714,0.2037037037037037],[0.03916666666666669,0.18925925925925935],[0.05354166666666664,0.19796296296296292],[0.06604166666666664,0.20259259259259255],[0.09406249999999995,0.20111111111111116],[0.10979166666666676,0.18111111111111103],[0.10395833333333329,0.15907407407407403],[0.0806250000000001,0.13629629629629633],[0.05677083333333333,0.12037037037037036],[0.04781249999999997,0.10425925925925918],[0.02177083333333331,0.06833333333333329],[0.001145833333333357,0.0016666666666666245],[-0.02333333333333331,-0.050370370370370454],[-0.04593750000000003,-0.09833333333333337],[-0.057395833333333354,-0.1574074074074074],[-0.05593750000000005,-0.19574074074074072],[-0.051041666666666666,-0.2168518518518519],[-0.028645833333333332,-0.23722222222222225],[-0.04802083333333336,-0.24666666666666665],[-0.08229166666666667,-0.2559259259259259],[-0.07416666666666671,-0.22407407407407406],[-0.06604166666666664,-0.19222222222222224],[-0.0453125,-0.16740740740740737],[-0.024583333333333356,-0.1425925925925926],[-0.05166666666666669,-0.1542592592592593],[-0.07583333333333328,-0.14166666666666666],[-0.10666666666666665,-0.14888888888888885],[-0.10864583333333329,-0.17999999999999997],[-0.06885416666666669,-0.222037037037037],[-0.025,-0.25333333333333335],[-0.017083333333333308,-0.2822222222222222],[-0.009062500000000048,-0.29907407407407405],[-0.009791666666666643,-0.3235185185185185],[-0.029375000000000047,-0.3538888888888889],[-0.011354166666666643,-0.33555555555555555],[0.0037500000000000237,-0.34148148148148144],[0.03958333333333333,-0.36648148148148146],[0.04656250000000005,-0.3675925925925926],[0.04583333333333333,-0.37296296296296294],[0.04104166666666664,-0.3890740740740741],[0.04833333333333331,-0.39240740740740737],[0.05552083333333328,-0.40777777777777774],[0.04770833333333328,-0.41148148148148145],[0.058749999999999976,-0.40925925925925927],[0.06635416666666671,-0.4105555555555555],[0.07333333333333343,-0.4075925925925926],[0.06135416666666664,-0.3918518518518519],[0.04656250000000005,-0.38925925925925925],[0.05395833333333329,-0.3827777777777778],[0.028958333333333287,-0.38740740740740737],[-0.008124999999999953,-0.40481481481481485],[-0.018229166666666668,-0.42000000000000004],[-0.02010416666666662,-0.46574074074074073],[-0.029791666666666692,-0.46148148148148144],[-0.03583333333333331,-0.4711111111111111],[-0.06124999999999995,-0.49851851851851847],[-0.08333333333333333,-0.5151851851851852],[-0.084375,-0.48759259259259263],[-0.09989583333333331,-0.4596296296296296],[-0.08302083333333338,-0.42055555555555557],[-0.07229166666666664,-0.4479629629629629],[-0.08791666666666664,-0.4644444444444445],[-0.09260416666666664,-0.4094444444444445],[-0.08979166666666671,-0.4009259259259259],[-0.09156249999999998,-0.4359259259259259],[-0.0733333333333333,-0.45740740740740743],[-0.05499999999999995,-0.47388888888888886],[-0.05510416666666664,-0.5214814814814815],[-0.04906250000000002,-0.5338888888888889],[-0.03604166666666669,-0.5675925925925925],[-0.04645833333333336,-0.5322222222222222],[-0.04708333333333338,-0.4957407407407407],[-0.04708333333333338,-0.4957407407407407],[-0.06072916666666662,-0.4977777777777778],[-0.06072916666666662,-0.4977777777777778],[-0.058541666666666714,-0.5153703703703704],[-0.058541666666666714,-0.5153703703703704],[-0.025833333333333285,-0.48259259259259263],[-0.025833333333333285,-0.48259259259259263],[-0.025937499999999978,-0.4383333333333333]]","[[0.15729166666666666,-0.1398148148148148,0.00019999998807662678],[0.15729166666666666,-0.1398148148148148,0.0379999999999967],[0.13114583333333343,-0.1331481481481481,0.04859999999403897],[0.1243750000000001,-0.1259259259259259,0.06219999998807424],[0.14333333333333323,-0.14351851851851852,0.07919999998807725],[0.14197916666666663,-0.15462962962962962,0.09779999999701516],[0.17239583333333333,-0.16018518518518518,0.1121999999880785],[0.20281250000000003,-0.16574074074074074,0.12879999999701397],[0.18791666666666676,-0.19462962962962968,0.14559999999404027],[0.1883333333333333,-0.21851851851851853,0.16219999998807566],[0.1944791666666667,-0.2227777777777778,0.1788999999910601],[0.19364583333333343,-0.22407407407407406,0.19779999999701658],[0.22177083333333342,-0.21944444444444444,0.21219999998807992],[0.22760416666666666,-0.20777777777777776,0.2287999999970154],[0.2037499999999999,-0.19888888888888884,0.2455999999940346],[0.2205208333333334,-0.18277777777777776,0.2621999999880771],[0.215625,-0.17814814814814814,0.27899999999999636],[0.203125,-0.16500000000000004,0.29559999999403885],[0.2257291666666667,-0.17166666666666663,0.31219999998807424],[0.23302083333333337,-0.18333333333333332,0.3288999999910587],[0.21677083333333325,-0.175,0.34549999999999415],[0.21281249999999996,-0.20555555555555555,0.36209999999403664],[0.19874999999999995,-0.22444444444444442,0.37889999999105584],[0.18125,-0.2331481481481481,0.3983999999910566],[0.19343750000000004,-0.2390740740740741,0.4125999999940362],[0.18624999999999994,-0.247037037037037,0.4288999999910601],[0.1805208333333333,-0.2418518518518519,0.44549999999999557],[0.19229166666666658,-0.2627777777777777,0.4621999999880799],[0.20958333333333337,-0.259074074074074,0.47889999999105726],[0.1779166666666666,-0.2375925925925926,0.4955999999940346],[0.1546875,-0.23648148148148146,0.5121999999880771],[0.12614583333333323,-0.19944444444444442,0.5288999999910544],[0.10854166666666672,-0.17796296296296302,0.545499999999997],[0.08916666666666657,-0.16074074074074077,0.5621999999880742],[0.07208333333333337,-0.12037037037037036,0.5788999999910587],[0.05406249999999998,-0.09166666666666666,0.5967999999970175],[0.0655208333333333,-0.08148148148148149,0.6121999999880785],[0.06708333333333343,-0.053703703703703705,0.6322999999970165],[0.07104166666666671,-0.0477777777777777,0.6473999999910589],[0.12395833333333334,-0.05962962962962961,0.6621999999880757],[0.16666666666666666,-0.05351851851851848,0.6820999999940369],[0.1877083333333334,-0.025185185185185227,0.6975999999940399],[0.23781249999999995,-0.019259259259259216,0.7126999999880752],[0.28791666666666677,-0.013333333333333417,0.7289999999999992],[0.33135416666666656,-0.03129629629629625,0.7482999999970161],[0.3423958333333334,-0.02555555555555547,0.7621999999880771],[0.32395833333333335,-0.0012962962962963806,0.7789999999999964],[0.32395833333333335,-0.0012962962962963806,0.7978999999910599],[0.30791666666666656,0.05259259259259255,0.8125],[0.2786458333333333,0.08518518518518518,0.8290999999940354],[0.24572916666666675,0.12074074074074083,0.8488999999910547],[0.2267708333333334,0.12759259259259256,0.8628999999910576],[0.24541666666666656,0.11370370370370367,0.8792999999970164],[0.21479166666666671,0.14370370370370375,0.900399999991059],[0.16677083333333323,0.2074074074074074,0.9152999999970177],[0.13854166666666667,0.255925925925926,0.9301999999880763],[0.1243750000000001,0.27759259259259256,0.9456999999880793],[0.11020833333333328,0.2992592592592593,0.9620999999940381],[0.11604166666666677,0.2824074074074074,0.9788999999910573],[0.12489583333333343,0.28777777777777774,0.9958999999910603],[0.13354166666666673,0.29685185185185176,1.012299999997019],[0.12447916666666667,0.31740740740740736,1.0287999999970197],[0.11729166666666657,0.3146296296296296,1.045499999999997],[0.11937499999999991,0.305925925925926,1.0621999999880742],[0.11666666666666667,0.2868518518518518,1.0788999999910587],[0.10333333333333337,0.26722222222222214,1.0990999999940385],[0.1196875000000001,0.25092592592592594,1.1143999999910577],[0.13604166666666656,0.23462962962962972,1.1289999999999978],[0.13145833333333337,0.22074074074074082,1.1454999999999984],[0.12510416666666657,0.22555555555555548,1.1621999999880757],[0.12062499999999995,0.22259259259259268,1.17889999999106],[0.1171875,0.23925925925925934,1.197499999999998],[0.09375,0.27148148148148155,1.21219999998808],[0.05458333333333331,0.2977777777777777,1.2288999999910573],[0.03760416666666669,0.3007407407407407,1.2454999999999998],[0.01270833333333338,0.31500000000000006,1.262199999988077],[-0.024791666666666618,0.3351851851851852,1.2788999999910544],[-0.04666666666666662,0.3483333333333334,1.2980999999940366],[-0.07000000000000005,0.36796296296296305,1.3121999999880742],[-0.09156249999999998,0.368888888888889,1.329499999999996],[-0.09177083333333336,0.3668518518518519,1.3490999999940385],[-0.09572916666666664,0.3368518518518518,1.3634999999999948],[-0.09156249999999998,0.32092592592592584,1.3788999999910558],[-0.07166666666666661,0.3109259259259259,1.397299999997017],[-0.044062499999999956,0.2935185185185185,1.4121999999880757],[0.0013541666666666192,0.29259259259259257,1.4321999999880788],[0.008229166666666643,0.2794444444444444,1.446799999997019],[-0.005729166666666666,0.287962962962963,1.4622999999970148],[0.01114583333333338,0.28592592592592586,1.482999999999997],[0.025625000000000023,0.2862962962962963,1.4981999999880742],[0.021458333333333357,0.26740740740740737,1.5135000000000005],[0.033958333333333354,0.256111111111111,1.5288999999910544],[0.04354166666666662,0.2492592592592593,1.545499999999997],[0.04354166666666662,0.2492592592592593,1.5621999999880742],[0.04583333333333333,0.2433333333333333,1.5790000000000006],[0.04583333333333333,0.2433333333333333,1.5954999999999941],[0.04583333333333333,0.23444444444444448,1.6122999999970204],[0.04583333333333333,0.23444444444444448,1.6288999999910558],[0.03177083333333333,0.20703703703703696,1.645699999988075],[0.03177083333333333,0.20703703703703696,1.6621999999880757],[0.06958333333333329,0.18259259259259264,1.67889999999106],[0.06958333333333329,0.18259259259259264,1.6954999999999956],[0.1178124999999999,0.1507407407407407,1.71219999998808],[0.1178124999999999,0.1507407407407407,1.7288999999910573],[0.1352083333333333,0.1294444444444444,1.7454999999999998],[0.14812500000000003,0.12833333333333324,1.762199999988077],[0.1609375,0.1527777777777778,1.7790999999940382],[0.17374999999999996,0.1772222222222223,1.7972999999970156],[0.18354166666666671,0.17240740740740745,1.8121999999880742],[0.20062499999999991,0.16666666666666666,1.8288999999910587],[0.1993750000000001,0.1935185185185185,1.8456999999880779],[0.19385416666666658,0.22925925925925916,1.8620999999940366],[0.165625,0.28666666666666657,1.8788999999910558],[0.1224999999999999,0.32981481481481484,1.898099999994038],[0.11072916666666661,0.34518518518518515,1.9135999999940339],[0.10583333333333324,0.33796296296296297,1.92889999999106],[0.10583333333333324,0.33796296296296297,1.9521999999880748],[0.11124999999999995,0.34685185185185174,1.9672999999970173],[0.10197916666666676,0.3237037037037036,1.9834999999999994],[0.10197916666666676,0.3237037037037036,1.9973999999910603],[0.08812499999999991,0.3257407407407407,2.012199999988077],[0.07270833333333329,0.33425925925925926,2.0287999999970197],[0.07020833333333343,0.3205555555555556,2.045499999999997],[0.0765625,0.2985185185185186,2.0621999999880742],[0.09354166666666662,0.2579629629629629,2.078799999997017],[0.10979166666666676,0.2222222222222222,2.095699999988078],[0.09468750000000009,0.21425925925925934,2.1138999999910553],[0.08635416666666676,0.22166666666666676,2.128899999991056],[0.05666666666666664,0.2074074074074074,2.145799999997017],[0.04718749999999995,0.2418518518518519,2.1621999999880757],[0.042604166666666644,0.26370370370370366,2.17889999999106],[0.03958333333333333,0.27907407407407414,2.1986999999880794],[0.034062500000000044,0.2712962962962963,2.212899999991059],[0.02333333333333331,0.27018518518518514,2.229099999994034],[-0.002916666666666619,0.27518518518518525,2.2456999999880765],[-0.019375000000000024,0.2801851851851851,2.263999999999996],[-0.011041666666666691,0.2898148148148148,2.2789999999999964],[-0.00947916666666669,0.28407407407407403,2.296199999988076],[0.00302083333333331,0.2748148148148148,2.312299999997016],[0.010000000000000024,0.24888888888888885,2.330899999991054],[0.027291666666666714,0.2037037037037037,2.345599999994036],[0.03916666666666669,0.18925925925925935,2.362399999991055],[0.05354166666666664,0.19796296296296292,2.3837999999970165],[0.06604166666666664,0.20259259259259255,2.3975999999940356],[0.09406249999999995,0.20111111111111116,2.4123999999910595],[0.10979166666666676,0.18111111111111103,2.428999999999995],[0.10395833333333329,0.15907407407407403,2.4485999999940375],[0.0806250000000001,0.13629629629629633,2.462899999991059],[0.05677083333333333,0.12037037037037036,2.479099999994034],[0.04781249999999997,0.10425925925925918,2.4988999999910604],[0.02177083333333331,0.06833333333333329,2.512399999991054],[0.001145833333333357,0.0016666666666666245,2.5290999999940382],[-0.02333333333333331,-0.050370370370370454,2.5456999999880736],[-0.04593750000000003,-0.09833333333333337,2.563899999991058],[-0.057395833333333354,-0.1574074074074074,2.578799999997017],[-0.05593750000000005,-0.19574074074074072,2.5997999999970176],[-0.051041666666666666,-0.2168518518518519,2.6152999999970206],[-0.028645833333333332,-0.23722222222222225,2.628899999991056],[-0.04802083333333336,-0.24666666666666665,2.6454999999999984],[-0.08229166666666667,-0.2559259259259259,2.6621999999880757],[-0.07416666666666671,-0.22407407407407406,2.67889999999106],[-0.06604166666666664,-0.19222222222222224,2.6954999999999956],[-0.0453125,-0.16740740740740737,2.71219999998808],[-0.024583333333333356,-0.1425925925925926,2.7287999999970154],[-0.05166666666666669,-0.1542592592592593,2.749099999994037],[-0.07583333333333328,-0.14166666666666666,2.762199999988077],[-0.10666666666666665,-0.14888888888888885,2.7788999999910544],[-0.10864583333333329,-0.17999999999999997,2.7987999999970157],[-0.06885416666666669,-0.222037037037037,2.8135999999940395],[-0.025,-0.25333333333333335,2.828799999997017],[-0.017083333333333308,-0.2822222222222222,2.845499999999994],[-0.009062500000000048,-0.29907407407407405,2.8620999999940366],[-0.009791666666666643,-0.3235185185185185,2.878999999999998],[-0.029375000000000047,-0.3538888888888889,2.8954999999999984],[-0.011354166666666643,-0.33555555555555555,2.9121999999880757],[0.0037500000000000237,-0.34148148148148144,2.930599999994037],[0.03958333333333333,-0.36648148148148146,2.9454999999999956],[0.04656250000000005,-0.3675925925925926,2.96219999998808],[0.04583333333333333,-0.37296296296296294,2.9788999999910573],[0.04104166666666664,-0.3890740740740741,2.998199999988074],[0.04833333333333331,-0.39240740740740737,3.0150000000000006],[0.05552083333333328,-0.40777777777777774,3.0287999999970197],[0.04770833333333328,-0.41148148148148145,3.045499999999997],[0.058749999999999976,-0.40925925925925927,3.0620999999940395],[0.06635416666666671,-0.4105555555555555,3.0820999999940355],[0.07333333333333343,-0.4075925925925926,3.0958999999910546],[0.06135416666666664,-0.3918518518518519,3.112399999991055],[0.04656250000000005,-0.38925925925925925,3.128899999991056],[0.05395833333333329,-0.3827777777777778,3.1514999999999986],[0.028958333333333287,-0.38740740740740737,3.164899999991057],[-0.008124999999999953,-0.40481481481481485,3.179099999994037],[-0.018229166666666668,-0.42000000000000004,3.1980000000000004],[-0.02010416666666662,-0.46574074074074073,3.2122999999970148],[-0.029791666666666692,-0.46148148148148144,3.232099999994034],[-0.03583333333333331,-0.4711111111111111,3.2456999999880765],[-0.06124999999999995,-0.49851851851851847,3.262299999997019],[-0.08333333333333333,-0.5151851851851852,3.2826999999880755],[-0.084375,-0.48759259259259263,3.297099999994039],[-0.09989583333333331,-0.4596296296296296,3.3121999999880742],[-0.08302083333333338,-0.42055555555555557,3.33159999999404],[-0.07229166666666664,-0.4479629629629629,3.345699999988078],[-0.08791666666666664,-0.4644444444444445,3.3620999999940366],[-0.09260416666666664,-0.4094444444444445,3.378799999997014],[-0.08979166666666671,-0.4009259259259259,3.397299999997017],[-0.09156249999999998,-0.4359259259259259,3.4121999999880757],[-0.0733333333333333,-0.45740740740740743,3.4287999999970182],[-0.05499999999999995,-0.47388888888888886,3.4454999999999956],[-0.05510416666666664,-0.5214814814814815,3.462099999994038],[-0.04906250000000002,-0.5338888888888889,3.4794999999999945],[-0.03604166666666669,-0.5675925925925925,3.4955],[-0.04645833333333336,-0.5322222222222222,3.512299999997019],[-0.04708333333333338,-0.4957407407407407,3.5287999999970197],[-0.04708333333333338,-0.4957407407407407,3.545499999999997],[-0.06072916666666662,-0.4977777777777778,3.5621999999880742],[-0.06072916666666662,-0.4977777777777778,3.5788999999910587],[-0.058541666666666714,-0.5153703703703704,3.595599999994036],[-0.058541666666666714,-0.5153703703703704,3.6121999999880785],[-0.025833333333333285,-0.48259259259259263,3.628799999997014],[-0.025833333333333285,-0.48259259259259263,3.6454999999999984],[-0.025937499999999978,-0.4383333333333333,3.6621999999880757]]","[0.00019999998807662678,0.0379999999999967,0.04859999999403897,0.06219999998807424,0.07919999998807725,0.09779999999701516,0.1121999999880785,0.12879999999701397,0.14559999999404027,0.16219999998807566,0.1788999999910601,0.19779999999701658,0.21219999998807992,0.2287999999970154,0.2455999999940346,0.2621999999880771,0.27899999999999636,0.29559999999403885,0.31219999998807424,0.3288999999910587,0.34549999999999415,0.36209999999403664,0.37889999999105584,0.3983999999910566,0.4125999999940362,0.4288999999910601,0.44549999999999557,0.4621999999880799,0.47889999999105726,0.4955999999940346,0.5121999999880771,0.5288999999910544,0.545499999999997,0.5621999999880742,0.5788999999910587,0.5967999999970175,0.6121999999880785,0.6322999999970165,0.6473999999910589,0.6621999999880757,0.6820999999940369,0.6975999999940399,0.7126999999880752,0.7289999999999992,0.7482999999970161,0.7621999999880771,0.7789999999999964,0.7978999999910599,0.8125,0.8290999999940354,0.8488999999910547,0.8628999999910576,0.8792999999970164,0.900399999991059,0.9152999999970177,0.9301999999880763,0.9456999999880793,0.9620999999940381,0.9788999999910573,0.9958999999910603,1.012299999997019,1.0287999999970197,1.045499999999997,1.0621999999880742,1.0788999999910587,1.0990999999940385,1.1143999999910577,1.1289999999999978,1.1454999999999984,1.1621999999880757,1.17889999999106,1.197499999999998,1.21219999998808,1.2288999999910573,1.2454999999999998,1.262199999988077,1.2788999999910544,1.2980999999940366,1.3121999999880742,1.329499999999996,1.3490999999940385,1.3634999999999948,1.3788999999910558,1.397299999997017,1.4121999999880757,1.4321999999880788,1.446799999997019,1.4622999999970148,1.482999999999997,1.4981999999880742,1.5135000000000005,1.5288999999910544,1.545499999999997,1.5621999999880742,1.5790000000000006,1.5954999999999941,1.6122999999970204,1.6288999999910558,1.645699999988075,1.6621999999880757,1.67889999999106,1.6954999999999956,1.71219999998808,1.7288999999910573,1.7454999999999998,1.762199999988077,1.7790999999940382,1.7972999999970156,1.8121999999880742,1.8288999999910587,1.8456999999880779,1.8620999999940366,1.8788999999910558,1.898099999994038,1.9135999999940339,1.92889999999106,1.9521999999880748,1.9672999999970173,1.9834999999999994,1.9973999999910603,2.012199999988077,2.0287999999970197,2.045499999999997,2.0621999999880742,2.078799999997017,2.095699999988078,2.1138999999910553,2.128899999991056,2.145799999997017,2.1621999999880757,2.17889999999106,2.1986999999880794,2.212899999991059,2.229099999994034,2.2456999999880765,2.263999999999996,2.2789999999999964,2.296199999988076,2.312299999997016,2.330899999991054,2.345599999994036,2.362399999991055,2.3837999999970165,2.3975999999940356,2.4123999999910595,2.428999999999995,2.4485999999940375,2.462899999991059,2.479099999994034,2.4988999999910604,2.512399999991054,2.5290999999940382,2.5456999999880736,2.563899999991058,2.578799999997017,2.5997999999970176,2.6152999999970206,2.628899999991056,2.6454999999999984,2.6621999999880757,2.67889999999106,2.6954999999999956,2.71219999998808,2.7287999999970154,2.749099999994037,2.762199999988077,2.7788999999910544,2.7987999999970157,2.8135999999940395,2.828799999997017,2.845499999999994,2.8620999999940366,2.878999999999998,2.8954999999999984,2.9121999999880757,2.930599999994037,2.9454999999999956,2.96219999998808,2.9788999999910573,2.998199999988074,3.0150000000000006,3.0287999999970197,3.045499999999997,3.0620999999940395,3.0820999999940355,3.0958999999910546,3.112399999991055,3.128899999991056,3.1514999999999986,3.164899999991057,3.179099999994037,3.1980000000000004,3.2122999999970148,3.232099999994034,3.2456999999880765,3.262299999997019,3.2826999999880755,3.297099999994039,3.3121999999880742,3.33159999999404,3.345699999988078,3.3620999999940366,3.378799999997014,3.397299999997017,3.4121999999880757,3.4287999999970182,3.4454999999999956,3.462099999994038,3.4794999999999945,3.4955,3.512299999997019,3.5287999999970197,3.545499999999997,3.5621999999880742,3.5788999999910587,3.595599999994036,3.6121999999880785,3.628799999997014,3.6454999999999984,3.6621999999880757]","[1733199399336,1733199399366,1733199399377,1733199399390,1733199399407,1733199399426,1733199399440,1733199399457,1733199399474,1733199399490,1733199399507,1733199399526,1733199399540,1733199399557,1733199399574,1733199399590,1733199399607,1733199399624,1733199399640,1733199399657,1733199399674,1733199399690,1733199399707,1733199399727,1733199399741,1733199399757,1733199399774,1733199399790,1733199399807,1733199399824,1733199399840,1733199399857,1733199399874,1733199399890,1733199399907,1733199399925,1733199399940,1733199399961,1733199399976,1733199399990,1733199400010,1733199400026,1733199400041,1733199400057,1733199400076,1733199400090,1733199400107,1733199400126,1733199400141,1733199400157,1733199400177,1733199400191,1733199400207,1733199400229,1733199400243,1733199400258,1733199400274,1733199400290,1733199400307,1733199400324,1733199400341,1733199400357,1733199400374,1733199400390,1733199400407,1733199400427,1733199400443,1733199400457,1733199400474,1733199400490,1733199400507,1733199400526,1733199400540,1733199400557,1733199400574,1733199400590,1733199400607,1733199400626,1733199400640,1733199400658,1733199400677,1733199400692,1733199400707,1733199400726,1733199400740,1733199400760,1733199400775,1733199400791,1733199400811,1733199400826,1733199400842,1733199400857,1733199400874,1733199400890,1733199400907,1733199400924,1733199400941,1733199400957,1733199400974,1733199400990,1733199401007,1733199401024,1733199401040,1733199401057,1733199401074,1733199401090,1733199401107,1733199401126,1733199401140,1733199401157,1733199401174,1733199401190,1733199401207,1733199401226,1733199401242,1733199401257,1733199401280,1733199401295,1733199401312,1733199401326,1733199401340,1733199401357,1733199401374,1733199401390,1733199401407,1733199401424,1733199401442,1733199401457,1733199401474,1733199401490,1733199401507,1733199401527,1733199401541,1733199401557,1733199401574,1733199401592,1733199401607,1733199401624,1733199401641,1733199401659,1733199401674,1733199401691,1733199401712,1733199401726,1733199401741,1733199401757,1733199401777,1733199401791,1733199401807,1733199401827,1733199401841,1733199401857,1733199401874,1733199401892,1733199401907,1733199401928,1733199401943,1733199401957,1733199401974,1733199401990,1733199402007,1733199402024,1733199402040,1733199402057,1733199402077,1733199402090,1733199402107,1733199402127,1733199402142,1733199402157,1733199402174,1733199402190,1733199402207,1733199402224,1733199402240,1733199402259,1733199402274,1733199402290,1733199402307,1733199402326,1733199402343,1733199402357,1733199402374,1733199402390,1733199402410,1733199402424,1733199402441,1733199402457,1733199402480,1733199402493,1733199402507,1733199402526,1733199402540,1733199402560,1733199402574,1733199402591,1733199402611,1733199402625,1733199402640,1733199402660,1733199402674,1733199402690,1733199402707,1733199402726,1733199402740,1733199402757,1733199402774,1733199402790,1733199402808,1733199402824,1733199402840,1733199402857,1733199402874,1733199402890,1733199402907,1733199402924,1733199402940,1733199402957,1733199402974,1733199402990]","[[1111,464.5],[1111,464.5],[1085.9,468.1],[1079.4,472],[1097.6,462.5],[1096.3,456.5],[1125.5,453.5],[1154.7,450.5],[1140.4,434.9],[1140.8,422],[1146.7,419.7],[1145.9,419],[1172.9,421.5],[1178.5,427.8],[1155.6,432.6],[1171.7,441.3],[1167,443.8],[1155,450.9],[1176.7,447.3],[1183.7,441],[1168.1,445.5],[1164.3,429],[1150.8,418.8],[1134,414.1],[1145.7,410.9],[1138.8,406.6],[1133.3,409.4],[1144.6,398.1],[1161.2,400.1],[1130.8,411.7],[1108.5,412.3],[1081.1,432.3],[1064.2,443.9],[1045.6,453.2],[1029.2,475],[1011.9,490.5],[1022.9,496],[1024.4,511],[1028.2,514.2],[1079,507.8],[1120,511.1],[1140.2,526.4],[1188.3,529.6],[1236.4,532.8],[1278.1,523.1],[1288.7,526.2],[1271,539.3],[1271,539.3],[1255.6,568.4],[1227.5,586],[1195.9,605.2],[1177.7,608.9],[1195.6,601.4],[1166.2,617.6],[1120.1,652],[1093,678.2],[1079.4,689.9],[1065.8,701.6],[1071.4,692.5],[1079.9,695.4],[1088.2,700.3],[1079.5,711.4],[1072.6,709.9],[1074.6,705.2],[1072,694.9],[1059.2,684.3],[1074.9,675.5],[1090.6,666.7],[1086.2,659.2],[1080.1,661.8],[1075.8,660.2],[1072.5,669.2],[1050,686.6],[1012.4,700.8],[996.1,702.4],[972.2,710.1],[936.2,721],[915.2,728.1],[892.8,738.7],[872.1,739.2],[871.9,738.1],[868.1,721.9],[872.1,713.3],[891.2,707.9],[917.7,698.5],[961.3,698],[967.9,690.9],[954.5,695.5],[970.7,694.4],[984.6,694.6],[980.6,684.4],[992.6,678.3],[1001.8,674.6],[1001.8,674.6],[1004,671.4],[1004,671.4],[1004,666.6],[1004,666.6],[990.5,651.8],[990.5,651.8],[1026.8,638.6],[1026.8,638.6],[1073.1,621.4],[1073.1,621.4],[1089.8,609.9],[1102.2,609.3],[1114.5,622.5],[1126.8,635.7],[1136.2,633.1],[1152.6,630],[1151.4,644.5],[1146.1,663.8],[1119,694.8],[1077.6,718.1],[1066.3,726.4],[1061.6,722.5],[1061.6,722.5],[1066.8,727.3],[1057.9,714.8],[1057.9,714.8],[1044.6,715.9],[1029.8,720.5],[1027.4,713.1],[1033.5,701.2],[1049.8,679.3],[1065.4,660],[1050.9,655.7],[1042.9,659.7],[1014.4,652],[1005.3,670.6],[1000.9,682.4],[998,690.7],[992.7,686.5],[982.4,685.9],[957.2,688.6],[941.4,691.3],[949.4,696.5],[950.9,693.4],[962.9,688.4],[969.6,674.4],[986.2,650],[997.6,642.2],[1011.4,646.9],[1023.4,649.4],[1050.3,648.6],[1065.4,637.8],[1059.8,625.9],[1037.4,613.6],[1014.5,605],[1005.9,596.3],[980.9,576.9],[961.1,540.9],[937.6,512.8],[915.9,486.9],[904.9,455],[906.3,434.3],[911,422.9],[932.5,411.9],[913.9,406.8],[881,401.8],[888.8,419],[896.6,436.2],[916.5,449.6],[936.4,463],[910.4,456.7],[887.2,463.5],[857.6,459.6],[855.7,442.8],[893.9,420.1],[936,403.2],[943.6,387.6],[951.3,378.5],[950.6,365.3],[931.8,348.9],[949.1,358.8],[963.6,355.6],[998,342.1],[1004.7,341.5],[1004,338.6],[999.4,329.9],[1006.4,328.1],[1013.3,319.8],[1005.8,317.8],[1016.4,319],[1023.7,318.3],[1030.4,319.9],[1018.9,328.4],[1004.7,329.8],[1011.8,333.3],[987.8,330.8],[952.2,321.4],[942.5,313.2],[940.7,288.5],[931.4,290.8],[925.6,285.6],[901.2,270.8],[880,261.8],[879,276.7],[864.1,291.8],[880.3,312.9],[890.6,298.1],[875.6,289.2],[871.1,318.9],[873.8,323.5],[872.1,304.6],[889.6,293],[907.2,284.1],[907.1,258.4],[912.9,251.7],[925.4,233.5],[915.4,252.6],[914.8,272.3],[914.8,272.3],[901.7,271.2],[901.7,271.2],[903.8,261.7],[903.8,261.7],[935.2,279.4],[935.2,279.4],[935.1,303.3]]","[0,0.3527331528]","[0.3527331528,0.3527331528]","[-0.3527331528,-0.3527331528]","[-0.3527331528,0]","[0,-0.3527331528]","[0.3527331528,-0.3527331528]","[0,0]","[0.3527331528,0]",0,0,0,0,1,3,Tablet,11,9,9,1
,,,,,,,,,,,,,,,,,,,19,001,2024-12-03_12h15.57.131,Attention_exp_legacy,2023.1.0,Win32,59.88023952,,,,,,,,,,,[0.27291666666666664],[0.3333333333333333],[1],[0],[0],[1.9310999999940393],"[""Option2_label""]",Option2_label,2,2.9496,"[[-0.059375,0.4],[-0.059375,0.4],[-0.059375,0.4],[-0.059375,0.4],[-0.059375,0.39814814814814814],[-0.059375,0.39814814814814814],[-0.059375,0.39814814814814814],[-0.059375,0.39814814814814814],[-0.059375,0.39814814814814814],[-0.059375,0.39814814814814814],[-0.059375,0.39814814814814814],[-0.059375,0.39814814814814814],[-0.059375,0.39814814814814814],[-0.059375,0.39814814814814814],[-0.059375,0.39814814814814814],[-0.059375,0.39814814814814814],[-0.059375,0.39814814814814814],[-0.059375,0.39814814814814814],[-0.059375,0.39814814814814814],[-0.059375,0.39814814814814814],[-0.059375,0.39814814814814814],[-0.059375,0.3962962962962963],[-0.059375,0.3962962962962963],[-0.058333333333333334,0.39444444444444443],[-0.058333333333333334,0.39444444444444443],[-0.058333333333333334,0.39444444444444443],[-0.058333333333333334,0.39444444444444443],[-0.058333333333333334,0.39444444444444443],[-0.058333333333333334,0.39444444444444443],[-0.058333333333333334,0.39444444444444443],[-0.058333333333333334,0.39444444444444443],[-0.058333333333333334,0.3925925925925926],[-0.058333333333333334,0.3925925925925926],[-0.058333333333333334,0.3907407407407407],[-0.058333333333333334,0.3907407407407407],[-0.058333333333333334,0.3907407407407407],[-0.058333333333333334,0.3907407407407407],[-0.058333333333333334,0.3907407407407407],[-0.058333333333333334,0.3888888888888889],[-0.058333333333333334,0.387037037037037],[-0.058333333333333334,0.387037037037037],[-0.058333333333333334,0.3851851851851852],[-0.058333333333333334,0.3851851851851852],[-0.058333333333333334,0.3851851851851852],[-0.058333333333333334,0.3851851851851852],[-0.058333333333333334,0.3851851851851852],[-0.058333333333333334,0.3851851851851852],[-0.058333333333333334,0.3851851851851852],[-0.058333333333333334,0.3851851851851852],[-0.058333333333333334,0.38333333333333336],[-0.058333333333333334,0.38333333333333336],[-0.058333333333333334,0.38333333333333336],[-0.058333333333333334,0.3814814814814815],[-0.058333333333333334,0.3814814814814815],[-0.058333333333333334,0.3814814814814815],[-0.058333333333333334,0.3814814814814815],[-0.058333333333333334,0.3814814814814815],[-0.058333333333333334,0.3814814814814815],[-0.058333333333333334,0.3814814814814815],[-0.058333333333333334,0.3814814814814815],[-0.058333333333333334,0.37962962962962965],[-0.058333333333333334,0.37962962962962965],[-0.058333333333333334,0.37962962962962965],[-0.058333333333333334,0.37962962962962965],[-0.058333333333333334,0.37962962962962965],[-0.058333333333333334,0.37962962962962965],[-0.058333333333333334,0.37777777777777777],[-0.058333333333333334,0.37777777777777777],[-0.058333333333333334,0.37777777777777777],[-0.058333333333333334,0.37777777777777777],[-0.058333333333333334,0.37777777777777777],[-0.058333333333333334,0.37777777777777777],[-0.058333333333333334,0.37777777777777777],[-0.058333333333333334,0.37777777777777777],[-0.058333333333333334,0.37777777777777777],[-0.058333333333333334,0.37777777777777777],[-0.058333333333333334,0.37777777777777777],[-0.058333333333333334,0.37777777777777777],[-0.058333333333333334,0.37777777777777777],[-0.058333333333333334,0.37777777777777777],[-0.058333333333333334,0.37777777777777777],[-0.058333333333333334,0.37777777777777777],[-0.058333333333333334,0.37777777777777777],[-0.058333333333333334,0.37777777777777777],[-0.058333333333333334,0.37407407407407406],[-0.058333333333333334,0.37407407407407406],[-0.058333333333333334,0.37407407407407406],[-0.058333333333333334,0.37222222222222223],[-0.05520833333333333,0.362962962962963],[-0.04895833333333333,0.34444444444444444],[-0.036458333333333336,0.31666666666666665],[-0.009375,0.2777777777777778],[0.0020833333333333333,0.26666666666666666],[0.04895833333333333,0.24444444444444444],[0.078125,0.24259259259259258],[0.09895833333333333,0.24259259259259258],[0.11145833333333334,0.24259259259259258],[0.12604166666666666,0.24814814814814815],[0.13958333333333334,0.2574074074074074],[0.15520833333333334,0.26851851851851855],[0.17604166666666668,0.2814814814814815],[0.19583333333333333,0.29074074074074074],[0.215625,0.2962962962962963],[0.23541666666666666,0.3],[0.24791666666666667,0.3074074074074074],[0.25625,0.3148148148148148],[0.25833333333333336,0.31666666666666665],[0.259375,0.31851851851851853],[0.2604166666666667,0.32037037037037036],[0.26145833333333335,0.32592592592592595],[0.26458333333333334,0.3314814814814815],[0.265625,0.3314814814814815],[0.26979166666666665,0.3333333333333333],[0.2708333333333333,0.3333333333333333],[0.271875,0.3333333333333333],[0.27291666666666664,0.3333333333333333],[0.27291666666666664,0.3333333333333333],[0.27395833333333336,0.3333333333333333],[0.27395833333333336,0.3333333333333333],[0.27395833333333336,0.3333333333333333],[0.27395833333333336,0.3333333333333333],[0.27395833333333336,0.3333333333333333],[0.27395833333333336,0.3333333333333333],[0.27395833333333336,0.3333333333333333],[0.27395833333333336,0.3333333333333333],[0.27395833333333336,0.3333333333333333],[0.27395833333333336,0.3333333333333333],[0.27395833333333336,0.3333333333333333],[0.27395833333333336,0.3333333333333333],[0.27395833333333336,0.3333333333333333],[0.27395833333333336,0.3333333333333333],[0.27395833333333336,0.3333333333333333],[0.27395833333333336,0.3333333333333333],[0.27395833333333336,0.3333333333333333],[0.27395833333333336,0.3333333333333333],[0.27395833333333336,0.3333333333333333],[0.27395833333333336,0.3333333333333333],[0.27395833333333336,0.3333333333333333],[0.27395833333333336,0.3333333333333333],[0.27395833333333336,0.3333333333333333],[0.27395833333333336,0.3333333333333333],[0.27395833333333336,0.3333333333333333],[0.275,0.3333333333333333],[0.275,0.3333333333333333],[0.275,0.3333333333333333],[0.275,0.3333333333333333],[0.275,0.3333333333333333],[0.275,0.3333333333333333],[0.275,0.3333333333333333],[0.275,0.3333333333333333],[0.275,0.3333333333333333],[0.275,0.3333333333333333],[0.275,0.3333333333333333],[0.275,0.3333333333333333],[0.275,0.3333333333333333],[0.275,0.3333333333333333],[0.275,0.3333333333333333],[0.275,0.3333333333333333],[0.275,0.3333333333333333],[0.275,0.3333333333333333],[0.275,0.3333333333333333],[0.275,0.3333333333333333],[0.275,0.3333333333333333],[0.275,0.3333333333333333],[0.275,0.3333333333333333],[0.275,0.3333333333333333],[0.275,0.3333333333333333],[0.275,0.3333333333333333],[0.275,0.3333333333333333],[0.275,0.3333333333333333],[0.275,0.3333333333333333],[0.275,0.3333333333333333],[0.275,0.3333333333333333],[0.275,0.3333333333333333],[0.275,0.3333333333333333],[0.275,0.3333333333333333],[0.275,0.3333333333333333],[0.275,0.3333333333333333]]","[[-0.03447916666666669,-0.257962962962963],[-0.018229166666666668,-0.2383333333333333],[-0.02010416666666662,-0.21481481481481482],[-0.021979166666666692,-0.19129629629629633],[-0.04708333333333338,-0.18499999999999997],[-0.05343749999999995,-0.16277777777777774],[-0.049479166666666664,-0.13296296296296298],[-0.043229166666666666,-0.15499999999999997],[-0.05385416666666672,-0.17851851851851847],[-0.029062499999999977,-0.18370370370370367],[-0.036145833333333384,-0.1624074074074074],[-0.023958333333333335,-0.167037037037037],[-0.016875000000000046,-0.18351851851851855],[-0.022812499999999975,-0.20833333333333334],[-0.015416666666666618,-0.20777777777777776],[-0.0171875,-0.21814814814814817],[-0.02333333333333331,-0.22925925925925927],[-0.017916666666666713,-0.20407407407407405],[0.011041666666666691,-0.17685185185185184],[0.011041666666666691,-0.17685185185185184],[0.027083333333333334,-0.16814814814814816],[0.026041666666666668,-0.1411111111111111],[0.011666666666666714,-0.15777777777777777],[-0.002708333333333357,-0.17444444444444443],[0.02052083333333338,-0.17740740740740743],[0.042708333333333334,-0.18555555555555553],[0.04739583333333333,-0.18407407407407403],[0.05645833333333338,-0.18185185185185182],[0.07916666666666666,-0.15759259259259265],[0.07687499999999996,-0.1712962962962963],[0.0818749999999999,-0.21222222222222226],[0.10708333333333328,-0.22092592592592594],[0.10260416666666666,-0.24444444444444444],[0.10614583333333343,-0.26851851851851855],[0.08510416666666672,-0.29796296296296293],[0.06156250000000003,-0.2992592592592593],[0.050937499999999976,-0.3327777777777778],[0.057604166666666616,-0.3642592592592592],[0.050625000000000024,-0.4177777777777778],[0.022812499999999975,-0.4281481481481481],[0.01875,-0.4198148148148148],[0.011562500000000024,-0.462037037037037],[0.01427083333333338,-0.4474074074074075],[0.008958333333333356,-0.4322222222222222],[0.011458333333333333,-0.4131481481481482],[0.022187499999999954,-0.41574074074074074],[0.025729166666666713,-0.412962962962963],[0.011979166666666667,-0.41222222222222227],[0.02312500000000005,-0.4383333333333333],[0.044270833333333336,-0.46648148148148144],[0.050416666666666644,-0.4740740740740741],[0.05656249999999995,-0.4816666666666667],[0.05791666666666669,-0.47444444444444445],[0.05791666666666669,-0.47444444444444445],[0.08260416666666662,-0.47240740740740744],[0.08260416666666662,-0.47240740740740744],[0.08624999999999995,-0.48037037037037034],[0.10614583333333343,-0.4662962962962963],[0.11739583333333338,-0.4633333333333333],[0.11739583333333338,-0.4633333333333333],[0.12385416666666677,-0.45499999999999996],[0.12385416666666677,-0.45499999999999996],[0.11479166666666671,-0.3846296296296296],[0.11479166666666671,-0.3846296296296296],[0.11375000000000005,-0.3242592592592593],[0.1134375000000001,-0.27907407407407403],[0.11333333333333329,-0.2675925925925926],[0.10552083333333329,-0.2644444444444445],[0.08833333333333329,-0.2588888888888889],[0.08833333333333329,-0.2588888888888889],[0.084375,-0.24722222222222223],[0.07114583333333328,-0.27],[0.05541666666666671,-0.2727777777777778],[0.05145833333333331,-0.2777777777777778],[0.041458333333333285,-0.3061111111111111],[0.03572916666666662,-0.3296296296296296],[0.04229166666666669,-0.3690740740740741],[0.05770833333333331,-0.362962962962963],[0.09885416666666676,-0.35722222222222216],[0.09885416666666676,-0.35722222222222216],[0.11614583333333334,-0.34500000000000003],[0.11812500000000009,-0.3685185185185185],[0.10062499999999991,-0.36796296296296294],[0.10166666666666657,-0.35611111111111116],[0.09572916666666677,-0.34740740740740744],[0.08260416666666662,-0.36629629629629634],[0.06947916666666672,-0.3851851851851852],[0.04791666666666667,-0.395],[0.013645833333333357,-0.4059259259259259],[-0.020624999999999952,-0.4168518518518519],[-0.03145833333333338,-0.42240740740740745],[-0.043229166666666666,-0.3831481481481481],[-0.05270833333333336,-0.362962962962963],[-0.06739583333333338,-0.3507407407407407],[-0.07385416666666664,-0.36814814814814817],[-0.09614583333333329,-0.3574074074074074],[-0.09093749999999995,-0.38481481481481483],[-0.09093749999999995,-0.38481481481481483],[-0.07270833333333329,-0.35999999999999993],[-0.04854166666666669,-0.3357407407407408],[-0.03458333333333338,-0.3198148148148148],[-0.04479166666666667,-0.3427777777777778],[-0.03875000000000005,-0.37481481481481477],[-0.035104166666666714,-0.3987037037037037],[0.0037500000000000237,-0.4075925925925926],[0.03427083333333331,-0.4035185185185185],[0.08447916666666658,-0.4118518518518518],[0.09760416666666671,-0.38370370370370366],[0.10979166666666676,-0.3912962962962963],[0.1131249999999999,-0.41703703703703704],[0.11010416666666671,-0.4264814814814815],[0.11770833333333333,-0.40611111111111114],[0.1662499999999999,-0.38074074074074077],[0.22166666666666662,-0.36259259259259263],[0.24010416666666667,-0.3598148148148148],[0.23739583333333342,-0.3344444444444445],[0.22135416666666666,-0.33481481481481484],[0.21489583333333329,-0.33351851851851855],[0.2265625,-0.3287037037037037],[0.2413541666666667,-0.3359259259259259],[0.24614583333333329,-0.33907407407407414],[0.2445833333333333,-0.34500000000000003],[0.15437500000000004,-0.29666666666666663],[0.06416666666666669,-0.24833333333333338],[0.029999999999999954,-0.28833333333333333],[0.017083333333333308,-0.33425925925925926],[-0.001145833333333357,-0.36074074074074075],[-0.024687500000000046,-0.39000000000000007],[-0.07843749999999995,-0.43925925925925924],[-0.1486458333333334,-0.44240740740740736],[-0.1922916666666667,-0.45759259259259266],[-0.22395833333333334,-0.4190740740740741],[-0.2079166666666667,-0.4398148148148148],[-0.15135416666666662,-0.5101851851851852],[-0.18250000000000005,-0.445],[-0.21364583333333337,-0.3798148148148149],[-0.246875,-0.3483333333333334],[-0.24989583333333332,-0.3001851851851852],[-0.25583333333333336,-0.25462962962962965],[-0.24187500000000003,-0.2351851851851852],[-0.190625,-0.2337037037037037],[-0.14500000000000005,-0.2831481481481481],[-0.09927083333333328,-0.30907407407407406],[-0.0889583333333333,-0.3005555555555556],[-0.03354166666666671,-0.34370370370370373],[0.014999999999999977,-0.3685185185185185],[0.09677083333333343,-0.3574074074074074],[0.14947916666666666,-0.36666666666666664],[0.18385416666666668,-0.37518518518518523],[0.23947916666666677,-0.38185185185185183],[0.2526041666666667,-0.3257407407407407],[0.24500000000000005,-0.2803703703703703],[0.23729166666666662,-0.25851851851851854],[0.2021874999999999,-0.20555555555555555],[0.1556250000000001,-0.14351851851851852],[0.15812499999999996,-0.12888888888888894],[0.14916666666666673,-0.09722222222222222],[0.14093749999999997,-0.05018518518518523],[0.15968749999999995,0.008148148148148106],[0.14010416666666667,0.013518518518518435],[0.09604166666666672,-0.03629629629629634],[0.07197916666666657,-0.0712962962962963],[0.059895833333333336,-0.11814814814814817],[0.07010416666666662,-0.1809259259259259],[0.07916666666666666,-0.19296296296296295],[0.00791666666666669,-0.2207407407407407],[-0.006979166666666714,-0.26796296296296296],[-0.018437500000000048,-0.32407407407407407],[-0.03718750000000005,-0.34944444444444445],[-0.03833333333333329,-0.32314814814814813],[-0.02333333333333331,-0.2933333333333333],[0.0005208333333333333,-0.247037037037037],[0.0005208333333333333,-0.247037037037037],[-0.001979166666666643,-0.18277777777777776],[-0.001979166666666643,-0.18277777777777776],[-0.01593749999999995,-0.12388888888888884],[-0.01593749999999995,-0.12388888888888884],[-0.035416666666666666,-0.1205555555555556]]","[[-0.03447916666666669,-0.257962962962963,0.00029999999701857405],[-0.018229166666666668,-0.2383333333333333,0.01850000000000307],[-0.02010416666666662,-0.21481481481481482,0.03309999999404312],[-0.021979166666666692,-0.19129629629629633,0.049700000002978584],[-0.04708333333333338,-0.18499999999999997,0.07059999999403743],[-0.05343749999999995,-0.16277777777777774,0.08459999999404033],[-0.049479166666666664,-0.13296296296296298,0.09970000000298285],[-0.043229166666666666,-0.15499999999999997,0.11990000000596268],[-0.05385416666666672,-0.17851851851851847,0.13349999999999795],[-0.029062499999999977,-0.18370370370370367,0.14970000000298],[-0.036145833333333384,-0.1624074074074074,0.16640000000595734],[-0.023958333333333335,-0.167037037037037,0.18299999999999983],[-0.016875000000000046,-0.18351851851851855,0.19979999999701903],[-0.022812499999999975,-0.20833333333333334,0.21820000000298023],[-0.015416666666666618,-0.20777777777777776,0.23309999999403885],[-0.0171875,-0.21814814814814817,0.24970000000298143],[-0.02333333333333331,-0.22925925925925927,0.2662999999970168],[-0.017916666666666713,-0.20407407407407405,0.2830999999940431],[0.011041666666666691,-0.17685185185185184,0.29979999999702045],[0.011041666666666691,-0.17685185185185184,0.316400000005963],[0.027083333333333334,-0.16814814814814816,0.3330999999940403],[0.026041666666666668,-0.1411111111111111,0.3520999999940386],[0.011666666666666714,-0.15777777777777777,0.3664000000059602],[-0.002708333333333357,-0.17444444444444443,0.3832000000029794],[0.02052083333333338,-0.17740740740740743,0.39970000000298],[0.042708333333333334,-0.18555555555555553,0.41920000000298074],[0.04739583333333333,-0.18407407407407403,0.43320000000298364],[0.05645833333333338,-0.18185185185185182,0.44970000000297716],[0.07916666666666666,-0.15759259259259265,0.4664000000059616],[0.07687499999999996,-0.1712962962962963,0.482999999999997],[0.0818749999999999,-0.21222222222222226,0.4997000000029814],[0.10708333333333328,-0.22092592592592594,0.5222000000029823],[0.10260416666666666,-0.24444444444444444,0.5357000000029828],[0.10614583333333343,-0.26851851851851855,0.5497999999970204],[0.08510416666666672,-0.29796296296296293,0.5662999999970211],[0.06156250000000003,-0.2992592592592593,0.5829999999999984],[0.050937499999999976,-0.3327777777777778,0.5997000000029828],[0.057604166666666616,-0.3642592592592592,0.6175999999940416],[0.050625000000000024,-0.4177777777777778,0.6362999999970214],[0.022812499999999975,-0.4281481481481481,0.6502999999970172],[0.01875,-0.4198148148148148,0.6664999999999992],[0.011562500000000024,-0.462037037037037,0.683599999994037],[0.01427083333333338,-0.4474074074074075,0.6997000000029772],[0.008958333333333356,-0.4322222222222222,0.7175000000000011],[0.011458333333333333,-0.4131481481481482,0.732999999999997],[0.022187499999999954,-0.41574074074074074,0.7495999999940395],[0.025729166666666713,-0.412962962962963,0.7664000000059588],[0.011979166666666667,-0.41222222222222227,0.7830000000000013],[0.02312500000000005,-0.4383333333333333,0.7997999999970204],[0.044270833333333336,-0.46648148148148144,0.8197999999970236],[0.050416666666666644,-0.4740740740740741,0.8359000000059638],[0.05656249999999995,-0.4816666666666667,0.8497000000029828],[0.05791666666666669,-0.47444444444444445,0.8754000000059605],[0.05791666666666669,-0.47444444444444445,0.8925999999940402],[0.08260416666666662,-0.47240740740740744,0.9117000000029805],[0.08260416666666662,-0.47240740740740744,0.9182999999970178],[0.08624999999999995,-0.48037037037037034,0.9330999999940417],[0.10614583333333343,-0.4662962962962963,0.9542999999970192],[0.11739583333333338,-0.4633333333333333,0.9709000000059618],[0.11739583333333338,-0.4633333333333333,0.982999999999997],[0.12385416666666677,-0.45499999999999996,1.0042999999970235],[0.12385416666666677,-0.45499999999999996,1.0164000000059588],[0.11479166666666671,-0.3846296296296296,1.0330000000000013],[0.11479166666666671,-0.3846296296296296,1.0497000000029786],[0.11375000000000005,-0.3242592592592593,1.066400000005963],[0.1134375000000001,-0.27907407407407403,1.0829999999999984],[0.11333333333333329,-0.2675925925925926,1.1027999999970177],[0.10552083333333329,-0.2644444444444445,1.1164000000059602],[0.08833333333333329,-0.2588888888888889,1.1330000000000027],[0.08833333333333329,-0.2588888888888889,1.14970000000298],[0.084375,-0.24722222222222223,1.1664000000059573],[0.07114583333333328,-0.27,1.1829999999999998],[0.05541666666666671,-0.2727777777777778,1.1995999999940423],[0.05145833333333331,-0.2777777777777778,1.2164000000059616],[0.041458333333333285,-0.3061111111111111,1.232999999999997],[0.03572916666666662,-0.3296296296296296,1.2497000000029814],[0.04229166666666669,-0.3690740740740741,1.2664000000059588],[0.05770833333333331,-0.362962962962963,1.2829000000059594],[0.09885416666666676,-0.35722222222222216,1.2997999999970204],[0.09885416666666676,-0.35722222222222216,1.316400000005963],[0.11614583333333334,-0.34500000000000003,1.3330999999940403],[0.11812500000000009,-0.3685185185185185,1.349599999994041],[0.10062499999999991,-0.36796296296296294,1.3664000000059602],[0.10166666666666657,-0.35611111111111116,1.3830000000000027],[0.09572916666666677,-0.34740740740740744,1.402799999997022],[0.08260416666666662,-0.36629629629629634,1.4185999999940364],[0.06947916666666672,-0.3851851851851852,1.4329999999999998],[0.04791666666666667,-0.395,1.4519000000059634],[0.013645833333333357,-0.4059259259259259,1.4665000000000035],[-0.020624999999999952,-0.4168518518518519,1.4832999999970227],[-0.03145833333333338,-0.42240740740740745,1.5035000000000025],[-0.043229166666666666,-0.3831481481481481,1.5187000000029798],[-0.05270833333333336,-0.362962962962963,1.533200000002978],[-0.06739583333333338,-0.3507407407407407,1.5514999999999972],[-0.07385416666666664,-0.36814814814814817,1.5664999999999978],[-0.09614583333333329,-0.3574074074074074,1.5832000000029822],[-0.09093749999999995,-0.38481481481481483,1.6037000000029806],[-0.09093749999999995,-0.38481481481481483,1.616500000000002],[-0.07270833333333329,-0.35999999999999993,1.6332000000029794],[-0.04854166666666669,-0.3357407407407408,1.6497999999970219],[-0.03458333333333338,-0.3198148148148148,1.6697000000029831],[-0.04479166666666667,-0.3427777777777778,1.6845999999940418],[-0.03875000000000005,-0.37481481481481477,1.699799999997019],[-0.035104166666666714,-0.3987037037037037,1.7204000000059594],[0.0037500000000000237,-0.4075925925925926,1.734499999999997],[0.03427083333333331,-0.4035185185185185,1.75],[0.08447916666666658,-0.4118518518518518,1.7665999999940425],[0.09760416666666671,-0.38370370370370366,1.7855999999940408],[0.10979166666666676,-0.3912962962962963,1.7999000000059624],[0.1131249999999999,-0.41703703703703704,1.8165999999940396],[0.11010416666666671,-0.4264814814814815,1.833299999997017],[0.11770833333333333,-0.40611111111111114,1.8515999999940433],[0.1662499999999999,-0.38074074074074077,1.866500000000002],[0.22166666666666662,-0.36259259259259263,1.8832000000029794],[0.24010416666666667,-0.3598148148148148,1.9037000000029778],[0.23739583333333342,-0.3344444444444445,1.9180999999940411],[0.22135416666666666,-0.33481481481481484,1.9329999999999998],[0.21489583333333329,-0.33351851851851855,1.949900000005961],[0.2265625,-0.3287037037037037,1.9664000000059616],[0.2413541666666667,-0.3359259259259259,1.982999999999997],[0.24614583333333329,-0.33907407407407414,1.9995999999940395],[0.2445833333333333,-0.34500000000000003,2.0180999999940425],[0.15437500000000004,-0.29666666666666663,2.0330000000000013],[0.06416666666666669,-0.24833333333333338,2.0519999999999996],[0.029999999999999954,-0.28833333333333333,2.066299999997021],[0.017083333333333308,-0.33425925925925926,2.0830999999940403],[-0.001145833333333357,-0.36074074074074075,2.099700000002983],[-0.024687500000000046,-0.39000000000000007,2.1185999999940393],[-0.07843749999999995,-0.43925925925925924,2.1330000000000027],[-0.1486458333333334,-0.44240740740740736,2.14970000000298],[-0.1922916666666667,-0.45759259259259266,2.1662999999970225],[-0.22395833333333334,-0.4190740740740741,2.183],[-0.2079166666666667,-0.4398148148148148,2.204299999997019],[-0.15135416666666662,-0.5101851851851852,2.2179000000059617],[-0.18250000000000005,-0.445,2.232999999999997],[-0.21364583333333337,-0.3798148148148149,2.2497000000029814],[-0.246875,-0.3483333333333334,2.2664000000059588],[-0.24989583333333332,-0.3001851851851852,2.2830000000000013],[-0.25583333333333336,-0.25462962962962965,2.299999999999997],[-0.24187500000000003,-0.2351851851851852,2.318599999994042],[-0.190625,-0.2337037037037037,2.3329999999999984],[-0.14500000000000005,-0.2831481481481481,2.349599999994041],[-0.09927083333333328,-0.30907407407407406,2.368200000002979],[-0.0889583333333333,-0.3005555555555556,2.3830000000000027],[-0.03354166666666671,-0.34370370370370373,2.39970000000298],[0.014999999999999977,-0.3685185185185185,2.4162999999970225],[0.09677083333333343,-0.3574074074074074,2.436],[0.14947916666666666,-0.36666666666666664,2.449700000002977],[0.18385416666666668,-0.37518518518518523,2.4664000000059616],[0.23947916666666677,-0.38185185185185183,2.482999999999997],[0.2526041666666667,-0.3257407407407407,2.4997000000029814],[0.24500000000000005,-0.2803703703703703,2.5204000000059636],[0.23729166666666662,-0.25851851851851854,2.5375000000000014],[0.2021874999999999,-0.20555555555555555,2.5529999999999973],[0.1556250000000001,-0.14351851851851852,2.5675999999940373],[0.15812499999999996,-0.12888888888888894,2.5829999999999984],[0.14916666666666673,-0.09722222222222222,2.5999000000059596],[0.14093749999999997,-0.05018518518518523,2.61640000000596],[0.15968749999999995,0.008148148148148106,2.6330999999940374],[0.14010416666666667,0.013518518518518435,2.649599999994038],[0.09604166666666672,-0.03629629629629634,2.668099999994041],[0.07197916666666657,-0.0712962962962963,2.683],[0.059895833333333336,-0.11814814814814817,2.6995999999940423],[0.07010416666666662,-0.1809259259259259,2.7187000000029826],[0.07916666666666666,-0.19296296296296295,2.732999999999997],[0.00791666666666669,-0.2207407407407407,2.7497999999970233],[-0.006979166666666714,-0.26796296296296296,2.766299999997017],[-0.018437500000000048,-0.32407407407407407,2.783099999994043],[-0.03718750000000005,-0.34944444444444445,2.7997000000029786],[-0.03833333333333329,-0.32314814814814813,2.816499999999998],[-0.02333333333333331,-0.2933333333333333,2.8329000000059636],[0.0005208333333333333,-0.247037037037037,2.8497999999970176],[0.0005208333333333333,-0.247037037037037,2.86640000000596],[-0.001979166666666643,-0.18277777777777776,2.8830000000000027],[-0.001979166666666643,-0.18277777777777776,2.89970000000298],[-0.01593749999999995,-0.12388888888888884,2.9164000000059573],[-0.01593749999999995,-0.12388888888888884,2.933],[-0.035416666666666666,-0.1205555555555556,2.9495999999940423]]","[0.00029999999701857405,0.01850000000000307,0.03309999999404312,0.049700000002978584,0.07059999999403743,0.08459999999404033,0.09970000000298285,0.11990000000596268,0.13349999999999795,0.14970000000298,0.16640000000595734,0.18299999999999983,0.19979999999701903,0.21820000000298023,0.23309999999403885,0.24970000000298143,0.2662999999970168,0.2830999999940431,0.29979999999702045,0.316400000005963,0.3330999999940403,0.3520999999940386,0.3664000000059602,0.3832000000029794,0.39970000000298,0.41920000000298074,0.43320000000298364,0.44970000000297716,0.4664000000059616,0.482999999999997,0.4997000000029814,0.5222000000029823,0.5357000000029828,0.5497999999970204,0.5662999999970211,0.5829999999999984,0.5997000000029828,0.6175999999940416,0.6362999999970214,0.6502999999970172,0.6664999999999992,0.683599999994037,0.6997000000029772,0.7175000000000011,0.732999999999997,0.7495999999940395,0.7664000000059588,0.7830000000000013,0.7997999999970204,0.8197999999970236,0.8359000000059638,0.8497000000029828,0.8754000000059605,0.8925999999940402,0.9117000000029805,0.9182999999970178,0.9330999999940417,0.9542999999970192,0.9709000000059618,0.982999999999997,1.0042999999970235,1.0164000000059588,1.0330000000000013,1.0497000000029786,1.066400000005963,1.0829999999999984,1.1027999999970177,1.1164000000059602,1.1330000000000027,1.14970000000298,1.1664000000059573,1.1829999999999998,1.1995999999940423,1.2164000000059616,1.232999999999997,1.2497000000029814,1.2664000000059588,1.2829000000059594,1.2997999999970204,1.316400000005963,1.3330999999940403,1.349599999994041,1.3664000000059602,1.3830000000000027,1.402799999997022,1.4185999999940364,1.4329999999999998,1.4519000000059634,1.4665000000000035,1.4832999999970227,1.5035000000000025,1.5187000000029798,1.533200000002978,1.5514999999999972,1.5664999999999978,1.5832000000029822,1.6037000000029806,1.616500000000002,1.6332000000029794,1.6497999999970219,1.6697000000029831,1.6845999999940418,1.699799999997019,1.7204000000059594,1.734499999999997,1.75,1.7665999999940425,1.7855999999940408,1.7999000000059624,1.8165999999940396,1.833299999997017,1.8515999999940433,1.866500000000002,1.8832000000029794,1.9037000000029778,1.9180999999940411,1.9329999999999998,1.949900000005961,1.9664000000059616,1.982999999999997,1.9995999999940395,2.0180999999940425,2.0330000000000013,2.0519999999999996,2.066299999997021,2.0830999999940403,2.099700000002983,2.1185999999940393,2.1330000000000027,2.14970000000298,2.1662999999970225,2.183,2.204299999997019,2.2179000000059617,2.232999999999997,2.2497000000029814,2.2664000000059588,2.2830000000000013,2.299999999999997,2.318599999994042,2.3329999999999984,2.349599999994041,2.368200000002979,2.3830000000000027,2.39970000000298,2.4162999999970225,2.436,2.449700000002977,2.4664000000059616,2.482999999999997,2.4997000000029814,2.5204000000059636,2.5375000000000014,2.5529999999999973,2.5675999999940373,2.5829999999999984,2.5999000000059596,2.61640000000596,2.6330999999940374,2.649599999994038,2.668099999994041,2.683,2.6995999999940423,2.7187000000029826,2.732999999999997,2.7497999999970233,2.766299999997017,2.783099999994043,2.7997000000029786,2.816499999999998,2.8329000000059636,2.8497999999970176,2.86640000000596,2.8830000000000027,2.89970000000298,2.9164000000059573,2.933,2.9495999999940423]","[1733199404009,1733199404026,1733199404040,1733199404057,1733199404078,1733199404092,1733199404107,1733199404127,1733199404141,1733199404157,1733199404174,1733199404190,1733199404207,1733199404226,1733199404240,1733199404257,1733199404274,1733199404290,1733199404307,1733199404324,1733199404340,1733199404359,1733199404374,1733199404390,1733199404407,1733199404427,1733199404441,1733199404457,1733199404474,1733199404490,1733199404507,1733199404529,1733199404543,1733199404557,1733199404574,1733199404590,1733199404607,1733199404625,1733199404644,1733199404658,1733199404674,1733199404691,1733199404707,1733199404725,1733199404740,1733199404757,1733199404774,1733199404790,1733199404807,1733199404827,1733199404843,1733199404857,1733199404883,1733199404900,1733199404919,1733199404926,1733199404940,1733199404962,1733199404978,1733199404990,1733199405012,1733199405024,1733199405040,1733199405057,1733199405074,1733199405090,1733199405110,1733199405124,1733199405140,1733199405157,1733199405174,1733199405190,1733199405207,1733199405224,1733199405240,1733199405257,1733199405274,1733199405290,1733199405307,1733199405324,1733199405340,1733199405357,1733199405374,1733199405390,1733199405410,1733199405426,1733199405440,1733199405459,1733199405474,1733199405491,1733199405511,1733199405526,1733199405541,1733199405559,1733199405574,1733199405590,1733199405611,1733199405624,1733199405641,1733199405657,1733199405677,1733199405692,1733199405707,1733199405728,1733199405742,1733199405757,1733199405774,1733199405793,1733199405807,1733199405824,1733199405841,1733199405859,1733199405874,1733199405890,1733199405911,1733199405925,1733199405940,1733199405957,1733199405974,1733199405990,1733199406007,1733199406025,1733199406040,1733199406059,1733199406074,1733199406090,1733199406107,1733199406126,1733199406140,1733199406157,1733199406174,1733199406190,1733199406212,1733199406225,1733199406240,1733199406257,1733199406274,1733199406290,1733199406307,1733199406326,1733199406340,1733199406357,1733199406375,1733199406390,1733199406407,1733199406424,1733199406443,1733199406457,1733199406474,1733199406490,1733199406507,1733199406528,1733199406545,1733199406560,1733199406575,1733199406590,1733199406607,1733199406624,1733199406640,1733199406657,1733199406675,1733199406690,1733199406707,1733199406726,1733199406740,1733199406757,1733199406774,1733199406790,1733199406807,1733199406824,1733199406840,1733199406857,1733199406874,1733199406890,1733199406907,1733199406924,1733199406940,1733199406957]","[[926.9,400.7],[942.5,411.3],[940.7,424],[938.9,436.7],[914.8,440.1],[908.7,452.1],[912.5,468.2],[918.5,456.3],[908.3,443.6],[932.1,440.8],[925.3,452.3],[937,449.8],[943.8,440.9],[938.1,427.5],[945.2,427.8],[943.5,422.2],[937.6,416.2],[942.8,429.8],[970.6,444.5],[970.6,444.5],[986,449.2],[985,463.8],[971.2,454.8],[957.4,445.8],[979.7,444.2],[1001,439.8],[1005.5,440.6],[1014.2,441.8],[1036,454.9],[1033.8,447.5],[1038.6,425.4],[1062.8,420.7],[1058.5,408],[1061.9,395],[1041.7,379.1],[1019.1,378.4],[1008.9,360.3],[1015.3,343.3],[1008.6,314.4],[981.9,308.8],[978,313.3],[971.1,290.5],[973.7,298.4],[968.6,306.6],[971,316.9],[981.3,315.5],[984.7,317],[971.5,317.4],[982.2,303.3],[1002.5,288.1],[1008.4,284],[1014.3,279.9],[1015.6,283.8],[1015.6,283.8],[1039.3,284.9],[1039.3,284.9],[1042.8,280.6],[1061.9,288.2],[1072.7,289.8],[1072.7,289.8],[1078.9,294.3],[1078.9,294.3],[1070.2,332.3],[1070.2,332.3],[1069.2,364.9],[1068.9,389.3],[1068.8,395.5],[1061.3,397.2],[1044.8,400.2],[1044.8,400.2],[1041,406.5],[1028.3,394.2],[1013.2,392.7],[1009.4,390],[999.8,374.7],[994.3,362],[1000.6,340.7],[1015.4,344],[1054.9,347.1],[1054.9,347.1],[1071.5,353.7],[1073.4,341],[1056.6,341.3],[1057.6,347.7],[1051.9,352.4],[1039.3,342.2],[1026.7,332],[1006,326.7],[973.1,320.8],[940.2,314.9],[929.8,311.9],[918.5,333.1],[909.4,344],[895.3,350.6],[889.1,341.2],[867.7,347],[872.7,332.2],[872.7,332.2],[890.2,345.6],[913.4,358.7],[926.8,367.3],[917,354.9],[922.8,337.6],[926.3,324.7],[963.6,319.9],[992.9,322.1],[1041.1,317.6],[1053.7,332.8],[1065.4,328.7],[1068.6,314.8],[1065.7,309.7],[1073,320.7],[1119.6,334.4],[1172.8,344.2],[1190.5,345.7],[1187.9,359.4],[1172.5,359.2],[1166.3,359.9],[1177.5,362.5],[1191.7,358.6],[1196.3,356.9],[1194.8,353.7],[1108.2,379.8],[1021.6,405.9],[988.8,384.3],[976.4,359.5],[958.9,345.2],[936.3,329.4],[884.7,302.8],[817.3,301.1],[775.4,292.9],[745,313.7],[760.4,302.5],[814.7,264.5],[784.8,299.7],[754.9,334.9],[723,351.9],[720.1,377.9],[714.4,402.5],[727.8,413],[777,413.8],[820.8,387.1],[864.7,373.1],[874.6,377.7],[927.8,354.4],[974.4,341],[1052.9,347],[1103.5,342],[1136.5,337.4],[1189.9,333.8],[1202.5,364.1],[1195.2,388.6],[1187.8,400.4],[1154.1,429],[1109.4,462.5],[1111.8,470.4],[1103.2,487.5],[1095.3,512.9],[1113.3,544.4],[1094.5,547.3],[1052.2,520.4],[1029.1,501.5],[1017.5,476.2],[1027.3,442.3],[1036,435.8],[967.6,420.8],[953.3,395.3],[942.3,365],[924.3,351.3],[923.2,365.5],[937.6,381.6],[960.5,406.6],[960.5,406.6],[958.1,441.3],[958.1,441.3],[944.7,473.1],[944.7,473.1],[926,474.9]]","[0,0.3527331528]","[0.3527331528,0.3527331528]","[-0.3527331528,0]","[-0.3527331528,-0.3527331528]","[0,0]","[0.3527331528,0]","[0,-0.3527331528]","[0.3527331528,-0.3527331528]",0,1,1,1,1,3,Tablet,5,5,13,7
