inst1_resp.keys,inst1_resp.rt,calibrationMouse.x,calibrationMouse.y,calibrationMouse.leftButton,calibrationMouse.midButton,calibrationMouse.rightButton,calibrationClick.x,calibrationClick.y,calibrationClick.leftButton,calibrationClick.midButton,calibrationClick.rightButton,trialsc.thisRepN,trialsc.thisTrialN,trialsc.thisN,trialsc.thisIndex,trialsc.ran,calibration_x,calibration_y,participant,session,date,expName,psychopyVersion,OS,frameRate,calibrationClick.clicked_name,ScreenRes_pixels,Camera_pixels,mouse_2.x,mouse_2.y,mouse_2.leftButton,mouse_2.midButton,mouse_2.rightButton,mouse_2.time,mouse_2.clicked_name,mouse.x,mouse.y,mouse.leftButton,mouse.midButton,mouse.rightButton,mouse.time,mouse.clicked_name,Choice,Trial,TrialDuration,MOUSE_GAZE,ET_GAZE,ET_GAZE_x_T,time,unixTime,ET_GAZE_NF,Loc_Option1_label,Loc_Option2_label,Loc_Cost_label,Loc_Qual_label,Loc_Option1_cost,Loc_Option2_cost,Loc_Option1_quality,Loc_Option2_quality,trials.thisRepN,trials.thisTrialN,trials.thisN,trials.thisIndex,trials.ran,Block,Device,cost1,qual1,cost2,qual2
space,1.7635,0.148958333,-0.325925926,1,0,0,-0.340625,0.672222222,1,0,0,0,0,0,8,1,-0.33,0.67,42,001,2024-12-02_17h24.22.339,Attention_exp_legacy,2023.1.0,Win32,59.88023952,,,,,,,,,,,,,,,,,,,,,,,,,,,,,,,,,,,,,,,,,,,,,
,,,,,,,-0.002083333,0.677777778,1,0,0,0,1,1,13,1,0,0.67,42,001,2024-12-02_17h24.22.339,Attention_exp_legacy,2023.1.0,Win32,59.88023952,calibration_square,,,,,,,,,,,,,,,,,,,,,,,,,,,,,,,,,,,,,,,,,,,,
,,,,,,,-0.6625,0.007407407,1,0,0,0,2,2,2,1,-0.67,0,42,001,2024-12-02_17h24.22.339,Attention_exp_legacy,2023.1.0,Win32,59.88023952,calibration_square,,,,,,,,,,,,,,,,,,,,,,,,,,,,,,,,,,,,,,,,,,,,
,,,,,,,-0.008333333,-0.003703704,1,0,0,0,3,3,11,1,0,0,42,001,2024-12-02_17h24.22.339,Attention_exp_legacy,2023.1.0,Win32,59.88023952,calibration_square,,,,,,,,,,,,,,,,,,,,,,,,,,,,,,,,,,,,,,,,,,,,
,,,,,,,0.003125,-0.664814815,1,0,0,0,4,4,9,1,0,-0.67,42,001,2024-12-02_17h24.22.339,Attention_exp_legacy,2023.1.0,Win32,59.88023952,calibration_square,,,,,,,,,,,,,,,,,,,,,,,,,,,,,,,,,,,,,,,,,,,,
,,,,,,,0.314583333,0.009259259,1,0,0,0,5,5,16,1,0.33,0,42,001,2024-12-02_17h24.22.339,Attention_exp_legacy,2023.1.0,Win32,59.88023952,,,,,,,,,,,,,,,,,,,,,,,,,,,,,,,,,,,,,,,,,,,,,
,,,,,,,0.326041667,-0.324074074,1,0,0,0,6,6,15,1,0.33,-0.33,42,001,2024-12-02_17h24.22.339,Attention_exp_legacy,2023.1.0,Win32,59.88023952,calibration_square,,,,,,,,,,,,,,,,,,,,,,,,,,,,,,,,,,,,,,,,,,,,
,,,,,,,-0.3375,-0.001851852,1,0,0,0,7,7,6,1,-0.33,0,42,001,2024-12-02_17h24.22.339,Attention_exp_legacy,2023.1.0,Win32,59.88023952,calibration_square,,,,,,,,,,,,,,,,,,,,,,,,,,,,,,,,,,,,,,,,,,,,
,,,,,,,0.00625,-0.333333333,1,0,0,0,8,8,10,1,0,-0.33,42,001,2024-12-02_17h24.22.339,Attention_exp_legacy,2023.1.0,Win32,59.88023952,calibration_square,,,,,,,,,,,,,,,,,,,,,,,,,,,,,,,,,,,,,,,,,,,,
,,,,,,,0.327083333,0.683333333,1,0,0,0,9,9,18,1,0.33,0.67,42,001,2024-12-02_17h24.22.339,Attention_exp_legacy,2023.1.0,Win32,59.88023952,,,,,,,,,,,,,,,,,,,,,,,,,,,,,,,,,,,,,,,,,,,,,
,,,,,,,0.322916667,-0.644444444,1,0,0,0,10,10,14,1,0.33,-0.67,42,001,2024-12-02_17h24.22.339,Attention_exp_legacy,2023.1.0,Win32,59.88023952,,,,,,,,,,,,,,,,,,,,,,,,,,,,,,,,,,,,,,,,,,,,,
,,,,,,,-0.3375,-0.65,1,0,0,0,11,11,4,1,-0.33,-0.67,42,001,2024-12-02_17h24.22.339,Attention_exp_legacy,2023.1.0,Win32,59.88023952,,,,,,,,,,,,,,,,,,,,,,,,,,,,,,,,,,,,,,,,,,,,,
,,,,,,,-0.6875,-0.646296296,1,0,0,0,12,12,0,1,-0.67,-0.67,42,001,2024-12-02_17h24.22.339,Attention_exp_legacy,2023.1.0,Win32,59.88023952,,,,,,,,,,,,,,,,,,,,,,,,,,,,,,,,,,,,,,,,,,,,,
,,,,,,,-0.326041667,-0.331481481,1,0,0,0,13,13,5,1,-0.33,-0.33,42,001,2024-12-02_17h24.22.339,Attention_exp_legacy,2023.1.0,Win32,59.88023952,calibration_square,,,,,,,,,,,,,,,,,,,,,,,,,,,,,,,,,,,,,,,,,,,,
,,,,,,,0,0.344444444,1,0,0,0,14,14,12,1,0,0.33,42,001,2024-12-02_17h24.22.339,Attention_exp_legacy,2023.1.0,Win32,59.88023952,,,,,,,,,,,,,,,,,,,,,,,,,,,,,,,,,,,,,,,,,,,,,
,,,,,,,0.65,0.694444444,1,0,0,0,15,15,19,1,0.67,0.67,42,001,2024-12-02_17h24.22.339,Attention_exp_legacy,2023.1.0,Win32,59.88023952,,,,,,,,,,,,,,,,,,,,,,,,,,,,,,,,,,,,,,,,,,,,,
,,,,,,,-0.334375,0.312962963,1,0,0,0,16,16,7,1,-0.33,0.33,42,001,2024-12-02_17h24.22.339,Attention_exp_legacy,2023.1.0,Win32,59.88023952,,,,,,,,,,,,,,,,,,,,,,,,,,,,,,,,,,,,,,,,,,,,,
,,,,,,,-0.666666667,0.337037037,1,0,0,0,17,17,3,1,-0.67,0.33,42,001,2024-12-02_17h24.22.339,Attention_exp_legacy,2023.1.0,Win32,59.88023952,calibration_square,,,,,,,,,,,,,,,,,,,,,,,,,,,,,,,,,,,,,,,,,,,,
,,,,,,,0.338541667,0.331481481,1,0,0,0,18,18,17,1,0.33,0.33,42,001,2024-12-02_17h24.22.339,Attention_exp_legacy,2023.1.0,Win32,59.88023952,calibration_square,,,,,,,,,,,,,,,,,,,,,,,,,,,,,,,,,,,,,,,,,,,,
,,,,,,,0.667708333,-0.681481481,1,0,0,0,19,19,20,1,0.67,-0.67,42,001,2024-12-02_17h24.22.339,Attention_exp_legacy,2023.1.0,Win32,59.88023952,,,,,,,,,,,,,,,,,,,,,,,,,,,,,,,,,,,,,,,,,,,,,
,,,,,,,-0.6625,-0.351851852,1,0,0,0,20,20,1,1,-0.67,-0.33,42,001,2024-12-02_17h24.22.339,Attention_exp_legacy,2023.1.0,Win32,59.88023952,,,,,,,,,,,,,,,,,,,,,,,,,,,,,,,,,,,,,,,,,,,,,
,,,,,,,,,,,,,,,,,,,42,001,2024-12-02_17h24.22.339,Attention_exp_legacy,2023.1.0,Win32,59.88023952,,"[1920,1080]","[640,480]",[0.040625],[-0.4962962962962963],[1],[0],[0],[4.996600000001486],"[""StartButton""]",[-0.06041666666666667],[0.5388888888888889],[1],[0],[0],[2.5878000000007475],"[""Option1_label""]",Option1_label,1,3.5954,"[[0.12291666666666666,0.14629629629629629],[0.12291666666666666,0.14629629629629629],[0.12291666666666666,0.14629629629629629],[0.12291666666666666,0.14629629629629629],[0.12291666666666666,0.14629629629629629],[0.12291666666666666,0.14629629629629629],[0.12291666666666666,0.14629629629629629],[0.12291666666666666,0.14629629629629629],[0.12291666666666666,0.14629629629629629],[0.12291666666666666,0.14629629629629629],[0.12291666666666666,0.14629629629629629],[0.12291666666666666,0.14629629629629629],[0.12291666666666666,0.14629629629629629],[0.12291666666666666,0.14629629629629629],[0.12291666666666666,0.14629629629629629],[0.12291666666666666,0.14629629629629629],[0.12291666666666666,0.14629629629629629],[0.12291666666666666,0.14629629629629629],[0.12291666666666666,0.14629629629629629],[0.12291666666666666,0.14629629629629629],[0.12291666666666666,0.14629629629629629],[0.12291666666666666,0.14629629629629629],[0.12291666666666666,0.14629629629629629],[0.12291666666666666,0.14629629629629629],[0.12291666666666666,0.14629629629629629],[0.12291666666666666,0.14629629629629629],[0.12291666666666666,0.14629629629629629],[0.12291666666666666,0.14629629629629629],[0.12291666666666666,0.14629629629629629],[0.12291666666666666,0.14629629629629629],[0.12291666666666666,0.14629629629629629],[0.12291666666666666,0.14629629629629629],[0.12291666666666666,0.14629629629629629],[0.12291666666666666,0.14629629629629629],[0.12291666666666666,0.14629629629629629],[0.12291666666666666,0.14629629629629629],[0.12291666666666666,0.14629629629629629],[0.12291666666666666,0.14629629629629629],[0.12291666666666666,0.14629629629629629],[0.12291666666666666,0.14629629629629629],[0.12291666666666666,0.14629629629629629],[0.12291666666666666,0.14629629629629629],[0.12291666666666666,0.14629629629629629],[0.12291666666666666,0.14629629629629629],[0.12291666666666666,0.14629629629629629],[0.12291666666666666,0.14629629629629629],[0.12291666666666666,0.14629629629629629],[0.12291666666666666,0.14629629629629629],[0.12291666666666666,0.14629629629629629],[0.12291666666666666,0.14629629629629629],[0.12291666666666666,0.14629629629629629],[0.12291666666666666,0.14629629629629629],[0.12291666666666666,0.14629629629629629],[0.12291666666666666,0.14629629629629629],[0.12291666666666666,0.14629629629629629],[0.12291666666666666,0.14629629629629629],[0.12291666666666666,0.14629629629629629],[0.12291666666666666,0.14629629629629629],[0.12291666666666666,0.14629629629629629],[0.12291666666666666,0.14629629629629629],[0.12291666666666666,0.14629629629629629],[0.12291666666666666,0.14629629629629629],[0.12291666666666666,0.14629629629629629],[0.12291666666666666,0.14629629629629629],[0.12291666666666666,0.14629629629629629],[0.12291666666666666,0.14629629629629629],[0.12291666666666666,0.14629629629629629],[0.12291666666666666,0.14629629629629629],[0.12291666666666666,0.14629629629629629],[0.12291666666666666,0.14629629629629629],[0.12291666666666666,0.14629629629629629],[0.12291666666666666,0.14629629629629629],[0.12291666666666666,0.14629629629629629],[0.12291666666666666,0.14629629629629629],[0.12291666666666666,0.14629629629629629],[0.12291666666666666,0.14629629629629629],[0.12291666666666666,0.14629629629629629],[0.12291666666666666,0.14629629629629629],[0.12291666666666666,0.14629629629629629],[0.12291666666666666,0.14629629629629629],[0.12291666666666666,0.14629629629629629],[0.12291666666666666,0.14629629629629629],[0.12291666666666666,0.14629629629629629],[0.12291666666666666,0.14629629629629629],[0.12291666666666666,0.14629629629629629],[0.12291666666666666,0.14629629629629629],[0.12291666666666666,0.14629629629629629],[0.12291666666666666,0.14629629629629629],[0.12291666666666666,0.14629629629629629],[0.12291666666666666,0.14629629629629629],[0.12291666666666666,0.14629629629629629],[0.12291666666666666,0.14629629629629629],[0.12291666666666666,0.14629629629629629],[0.12291666666666666,0.14629629629629629],[0.12291666666666666,0.14629629629629629],[0.12291666666666666,0.14629629629629629],[0.12291666666666666,0.14629629629629629],[0.12291666666666666,0.14629629629629629],[0.12291666666666666,0.14629629629629629],[0.12291666666666666,0.14629629629629629],[0.12291666666666666,0.14629629629629629],[0.12291666666666666,0.14629629629629629],[0.12291666666666666,0.14629629629629629],[0.12291666666666666,0.14629629629629629],[0.12291666666666666,0.14629629629629629],[0.12291666666666666,0.14629629629629629],[0.12291666666666666,0.14629629629629629],[0.12291666666666666,0.14629629629629629],[0.12291666666666666,0.14629629629629629],[0.12291666666666666,0.14629629629629629],[0.12291666666666666,0.14629629629629629],[0.12291666666666666,0.14629629629629629],[0.12291666666666666,0.14629629629629629],[0.12291666666666666,0.14629629629629629],[0.12291666666666666,0.14629629629629629],[0.12291666666666666,0.14629629629629629],[0.12291666666666666,0.14629629629629629],[0.12291666666666666,0.14629629629629629],[0.12291666666666666,0.14629629629629629],[0.12291666666666666,0.14629629629629629],[0.12291666666666666,0.14629629629629629],[0.12291666666666666,0.14629629629629629],[0.12291666666666666,0.14629629629629629],[0.12291666666666666,0.14629629629629629],[0.12291666666666666,0.14629629629629629],[0.12291666666666666,0.14629629629629629],[0.12291666666666666,0.14629629629629629],[0.12291666666666666,0.14629629629629629],[0.12291666666666666,0.14629629629629629],[0.12291666666666666,0.14629629629629629],[0.12291666666666666,0.14629629629629629],[0.12291666666666666,0.14629629629629629],[0.12291666666666666,0.14629629629629629],[0.12291666666666666,0.14629629629629629],[0.12291666666666666,0.14629629629629629],[0.12291666666666666,0.14629629629629629],[0.11354166666666667,0.19444444444444445],[0.10416666666666667,0.24074074074074073],[0.09479166666666666,0.2796296296296296],[0.08229166666666667,0.32037037037037036],[0.065625,0.3592592592592593],[0.036458333333333336,0.40925925925925927],[0.011458333333333333,0.44814814814814813],[-0.009375,0.4722222222222222],[-0.026041666666666668,0.4925925925925926],[-0.046875,0.5203703703703704],[-0.05625,0.5314814814814814],[-0.059375,0.5351851851851852],[-0.059375,0.5351851851851852],[-0.059375,0.5351851851851852],[-0.059375,0.5351851851851852],[-0.059375,0.5351851851851852],[-0.06041666666666667,0.5388888888888889],[-0.06041666666666667,0.5388888888888889],[-0.06041666666666667,0.5388888888888889],[-0.06041666666666667,0.5388888888888889],[-0.06041666666666667,0.5388888888888889],[-0.06041666666666667,0.5388888888888889],[-0.06041666666666667,0.5388888888888889],[-0.06041666666666667,0.5388888888888889],[-0.06041666666666667,0.5388888888888889],[-0.06041666666666667,0.5388888888888889],[-0.06041666666666667,0.5388888888888889],[-0.06041666666666667,0.5388888888888889],[-0.06041666666666667,0.5388888888888889],[-0.06041666666666667,0.5388888888888889],[-0.06041666666666667,0.5388888888888889],[-0.06041666666666667,0.5388888888888889],[-0.06041666666666667,0.5388888888888889],[-0.06041666666666667,0.5388888888888889],[-0.06041666666666667,0.5388888888888889],[-0.06041666666666667,0.5388888888888889],[-0.06041666666666667,0.5388888888888889],[-0.05625,0.5370370370370371],[-0.04791666666666667,0.5296296296296297],[-0.0375,0.5203703703703704],[-0.021875,0.5074074074074074],[-0.008333333333333333,0.4962962962962963],[0.003125,0.48518518518518516],[0.013541666666666667,0.4740740740740741],[0.023958333333333335,0.4648148148148148],[0.027083333333333334,0.46111111111111114],[0.028125,0.46111111111111114],[0.030208333333333334,0.45925925925925926],[0.030208333333333334,0.45925925925925926],[0.030208333333333334,0.45925925925925926],[0.030208333333333334,0.45925925925925926],[0.030208333333333334,0.45925925925925926],[0.030208333333333334,0.45925925925925926],[0.030208333333333334,0.45925925925925926],[0.030208333333333334,0.45925925925925926],[0.030208333333333334,0.45925925925925926],[0.030208333333333334,0.45925925925925926],[0.030208333333333334,0.45925925925925926],[0.030208333333333334,0.45925925925925926],[0.030208333333333334,0.45925925925925926],[0.030208333333333334,0.45925925925925926],[0.030208333333333334,0.45925925925925926],[0.030208333333333334,0.45925925925925926],[0.030208333333333334,0.45925925925925926],[0.030208333333333334,0.45925925925925926],[0.030208333333333334,0.45925925925925926],[0.030208333333333334,0.45925925925925926],[0.030208333333333334,0.45925925925925926],[0.030208333333333334,0.45925925925925926],[0.030208333333333334,0.45925925925925926],[0.030208333333333334,0.45925925925925926],[0.030208333333333334,0.45925925925925926],[0.030208333333333334,0.45925925925925926],[0.030208333333333334,0.45925925925925926],[0.030208333333333334,0.45925925925925926],[0.030208333333333334,0.45925925925925926],[0.030208333333333334,0.45925925925925926],[0.030208333333333334,0.45925925925925926],[0.030208333333333334,0.45925925925925926],[0.030208333333333334,0.45925925925925926]]","[[0.29718749999999994,-0.40240740740740744],[0.29718749999999994,-0.40240740740740744],[0.29718749999999994,-0.40240740740740744],[0.28843750000000007,-0.462037037037037],[0.296875,-0.4935185185185185],[0.3120833333333332,-0.515],[0.27489583333333345,-0.4977777777777778],[0.27281250000000007,-0.5014814814814815],[0.28572916666666665,-0.48037037037037034],[0.2920833333333334,-0.47740740740740745],[0.27489583333333345,-0.4696296296296297],[0.2412499999999999,-0.43407407407407406],[0.2349999999999999,-0.4081481481481481],[0.21458333333333332,-0.38129629629629624],[0.19916666666666671,-0.367037037037037],[0.20541666666666672,-0.34],[0.2515625,-0.3416666666666667],[0.24697916666666658,-0.3287037037037037],[0.2639583333333334,-0.3538888888888889],[0.2934375000000001,-0.37907407407407406],[0.3541666666666667,-0.40259259259259256],[0.4022916666666667,-0.4214814814814815],[0.4022916666666667,-0.44814814814814813],[0.4165625000000001,-0.4735185185185185],[0.4359375,-0.4751851851851852],[0.42062499999999997,-0.4927777777777778],[0.41260416666666655,-0.48],[0.41854166666666665,-0.4818518518518518],[0.41854166666666665,-0.4818518518518518],[0.4241666666666667,-0.4494444444444444],[0.41510416666666666,-0.4316666666666667],[0.39833333333333343,-0.4203703703703704],[0.37385416666666677,-0.40981481481481485],[0.3955208333333334,-0.4016666666666666],[0.39010416666666664,-0.39388888888888884],[0.3645833333333333,-0.3962962962962963],[0.35395833333333326,-0.38259259259259265],[0.3403125000000001,-0.35537037037037034],[0.3494791666666667,-0.3574074074074074],[0.3330208333333334,-0.3698148148148148],[0.32833333333333337,-0.3598148148148148],[0.32781250000000006,-0.3490740740740741],[0.32999999999999996,-0.3403703703703704],[0.31135416666666677,-0.33925925925925926],[0.325,-0.3403703703703704],[0.35927083333333343,-0.3331481481481481],[0.3848958333333333,-0.3718518518518519],[0.39729166666666677,-0.4403703703703704],[0.4006249999999999,-0.4272222222222222],[0.3931250000000001,-0.4272222222222222],[0.35145833333333343,-0.40185185185185185],[0.3056250000000001,-0.3772222222222222],[0.27791666666666665,-0.34814814814814815],[0.2556250000000001,-0.3012962962962963],[0.21687500000000004,-0.24407407407407408],[0.15750000000000006,-0.19518518518518516],[0.12458333333333324,-0.10833333333333334],[0.09166666666666666,-0.021481481481481525],[0.08364583333333328,0.012592592592592508],[0.0756249999999999,0.04666666666666675],[0.09864583333333338,0.07703703703703708],[0.12166666666666662,0.10740740740740741],[0.125,0.12407407407407407],[0.125,0.12407407407407407],[0.12833333333333338,0.14074074074074075],[0.14833333333333343,0.16277777777777774],[0.18291666666666656,0.1411111111111112],[0.19416666666666677,0.12407407407407407],[0.20968749999999994,0.11537037037037029],[0.20281250000000003,0.12333333333333338],[0.2171875,0.11962962962962967],[0.246875,0.10907407407407403],[0.2727083333333333,0.06629629629629621],[0.3051041666666668,0.03555555555555564],[0.34427083333333336,0.006481481481481481],[0.40864583333333326,-0.03222222222222218],[0.4514583333333334,-0.0418518518518519],[0.48489583333333336,-0.06277777777777774],[0.5167708333333333,-0.09518518518518514],[0.5486458333333334,-0.12759259259259256],[0.5431250000000001,-0.1307407407407408],[0.5301041666666667,-0.15833333333333333],[0.5175,-0.1559259259259259],[0.48552083333333323,-0.16074074074074077],[0.4696875000000001,-0.1427777777777778],[0.4174999999999999,-0.152962962962963],[0.3866666666666667,-0.11722222222222224],[0.375,-0.08462962962962961],[0.3851041666666667,-0.029814814814814856],[0.3851041666666667,-0.029814814814814856],[0.35875000000000007,0.023333333333333376],[0.35875000000000007,0.023333333333333376],[0.33541666666666664,0.04796296296296292],[0.3393749999999999,0.1124074074074075],[0.3393749999999999,0.1124074074074075],[0.3544791666666666,0.1838888888888888],[0.38312499999999994,0.22018518518518515],[0.38312499999999994,0.22018518518518515],[0.38822916666666674,0.2657407407407407],[0.38822916666666674,0.2657407407407407],[0.4078125,0.3375925925925925],[0.4267708333333334,0.3668518518518519],[0.4405208333333334,0.4137037037037037],[0.42979166666666657,0.4414814814814814],[0.4244791666666667,0.4642592592592593],[0.4322916666666667,0.49796296296296294],[0.38864583333333325,0.5385185185185184],[0.34395833333333337,0.5335185185185186],[0.33645833333333336,0.5951851851851852],[0.33645833333333336,0.5951851851851852],[0.32958333333333345,0.6231481481481481],[0.3102083333333333,0.6396296296296295],[0.3352083333333333,0.6370370370370371],[0.3352083333333333,0.6370370370370371],[0.3492708333333333,0.6079629629629629],[0.36656250000000007,0.5812962962962962],[0.4069791666666667,0.5864814814814816],[0.45770833333333344,0.5875925925925926],[0.5207291666666668,0.5768518518518518],[0.5207291666666668,0.5768518518518518],[0.5816666666666668,0.5935185185185186],[0.5672916666666665,0.5740740740740741],[0.6193749999999999,0.5461111111111111],[0.6172916666666666,0.544074074074074],[0.6081249999999999,0.547037037037037],[0.6292708333333332,0.5707407407407408],[0.60625,0.5477777777777777],[0.6359375,0.5407407407407407],[0.6401041666666667,0.5366666666666666],[0.6654166666666667,0.5168518518518519],[0.6567708333333333,0.5096296296296298],[0.7436458333333335,0.4853703703703704],[0.7482291666666666,0.48037037037037034],[0.8194791666666668,0.4609259259259259],[0.8071875000000001,0.44518518518518513],[0.7715625,0.39759259259259266],[0.7932291666666667,0.3877777777777777],[0.7932291666666667,0.3877777777777777],[0.734375,0.3512962962962964],[0.65,0.2759259259259259],[0.5333333333333333,0.1594444444444445],[0.4460416666666667,0.043703703703703745],[0.3132291666666667,-0.01907407407407399],[0.22041666666666657,-0.11074074074074076],[0.22041666666666657,-0.11074074074074076],[0.11500000000000009,-0.19370370370370374],[0.04364583333333331,-0.2690740740740741],[0.03583333333333331,-0.30925925925925923],[0.03583333333333331,-0.30925925925925923],[-0.005208333333333333,-0.32037037037037036],[0.0140625,-0.3905555555555555],[0.04510416666666662,-0.41759259259259257],[0.04541666666666669,-0.39296296296296296],[0.12166666666666662,-0.38870370370370366],[0.19135416666666671,-0.40555555555555556],[0.22541666666666677,-0.4053703703703703],[0.3007291666666667,-0.4009259259259259],[0.33656249999999993,-0.3948148148148148],[0.3033333333333334,-0.41870370370370374],[0.26979166666666665,-0.46037037037037043],[0.21822916666666667,-0.4633333333333333],[0.19562499999999997,-0.46944444444444444],[0.2390625,-0.505],[0.1896874999999999,-0.5075925925925926],[0.14895833333333333,-0.5464814814814816],[0.12687499999999996,-0.5590740740740741],[0.07312500000000005,-0.5901851851851851],[0.057291666666666664,-0.6088888888888889],[0.07229166666666677,-0.6001851851851853],[0.10447916666666662,-0.5962962962962963],[0.12510416666666657,-0.5922222222222222],[0.15968749999999995,-0.5879629629629629],[0.17322916666666663,-0.5833333333333334],[0.20364583333333333,-0.5912962962962963],[0.18218750000000009,-0.5588888888888889],[0.15354166666666677,-0.5516666666666666],[0.146875,-0.5764814814814815],[0.13333333333333333,-0.5462962962962963],[0.09739583333333333,-0.5357407407407407],[0.06145833333333333,-0.5251851851851852],[0.04229166666666669,-0.5031481481481481],[0.014479166666666644,-0.497037037037037],[-0.014583333333333334,-0.5098148148148148],[-0.03968750000000002,-0.5077777777777778],[-0.03833333333333329,-0.5011111111111112],[-0.03833333333333329,-0.5011111111111112],[-0.03697916666666667,-0.49444444444444446],[-0.024374999999999977,-0.45481481481481484],[-0.024583333333333356,-0.4764814814814815],[-0.01854166666666662,-0.4911111111111111],[-0.02635416666666662,-0.48703703703703705],[-0.04593750000000003,-0.48870370370370364],[-0.06593749999999995,-0.4938888888888889],[-0.07770833333333335,-0.4788888888888889],[-0.08093750000000005,-0.472037037037037],[-0.06687500000000005,-0.47685185185185186],[-0.041666666666666664,-0.47833333333333333],[-0.041666666666666664,-0.47833333333333333],[-0.049374999999999974,-0.4735185185185185],[-0.052187500000000026,-0.4214814814814815],[-0.05677083333333333,-0.3992592592592593],[-0.04750000000000002,-0.3957407407407407],[-0.05635416666666669,-0.3864814814814815],[-0.07135416666666666,-0.35407407407407404],[-0.06697916666666662,-0.32018518518518513],[-0.0751041666666667,-0.2929629629629629],[-0.07468750000000005,-0.27870370370370373],[-0.06520833333333335,-0.23648148148148146],[-0.07239583333333334,-0.22666666666666663],[-0.07239583333333334,-0.22666666666666663],[-0.06625000000000002,-0.2383333333333333],[-0.06625000000000002,-0.2383333333333333],[-0.05281250000000005,-0.25203703703703706],[-0.05281250000000005,-0.25203703703703706],[-0.03322916666666664,-0.2490740740740741],[-0.03322916666666664,-0.2490740740740741]]","[[0.29718749999999994,-0.40240740740740744,0.000199999999253464],[0.29718749999999994,-0.40240740740740744,0.03879999999702477],[0.29718749999999994,-0.40240740740740744,0.04529999999702028],[0.28843750000000007,-0.462037037037037,0.06209999999776983],[0.296875,-0.4935185185185185,0.07900000000000063],[0.3120833333333332,-0.515,0.0953999999985129],[0.27489583333333345,-0.4977777777777778,0.11200000000000188],[0.27281250000000007,-0.5014814814814815,0.1285999999977676],[0.28572916666666665,-0.48037037037037034,0.14539999999851005],[0.2920833333333334,-0.47740740740740745,0.16209999999776414],[0.27489583333333345,-0.4696296296296297,0.17869999999925312],[0.2412499999999999,-0.43407407407407406,0.196399999998512],[0.2349999999999999,-0.4081481481481481,0.2120000000000033],[0.21458333333333332,-0.38129629629629624,0.2287999999970225],[0.19916666666666671,-0.367037037037037,0.24539999999851148],[0.20541666666666672,-0.34,0.26200000000000045],[0.2515625,-0.3416666666666667,0.27869999999925454],[0.24697916666666658,-0.3287037037037037,0.2995000000000019],[0.2639583333333334,-0.3538888888888889,0.3141999999992535],[0.2934375000000001,-0.37907407407407406,0.32859999999776335],[0.3541666666666667,-0.40259259259259256,0.34829999999702466],[0.4022916666666667,-0.4214814814814815,0.3620000000000019],[0.4022916666666667,-0.44814814814814813,0.37869999999925597],[0.4165625000000001,-0.4735185185185185,0.3954999999999984],[0.4359375,-0.4751851851851852,0.41499999999999915],[0.42062499999999997,-0.4927777777777778,0.4286999999992531],[0.41260416666666655,-0.48,0.44529999999701886],[0.41854166666666665,-0.4818518518518518,0.4623999999985102],[0.41854166666666665,-0.4818518518518518,0.4789999999999992],[0.4241666666666667,-0.4494444444444444,0.4953999999985115],[0.41510416666666666,-0.4316666666666667,0.5120000000000005],[0.39833333333333343,-0.4203703703703704,0.5286999999992545],[0.37385416666666677,-0.40981481481481485,0.5452999999970203],[0.3955208333333334,-0.4016666666666666,0.5620000000000047],[0.39010416666666664,-0.39388888888888884,0.5786999999992588],[0.3645833333333333,-0.3962962962962963,0.5955000000000013],[0.35395833333333326,-0.38259259259259265,0.6120000000000019],[0.3403125000000001,-0.35537037037037034,0.628699999999256],[0.3494791666666667,-0.3574074074074074,0.6454999999999984],[0.3330208333333334,-0.3698148148148148,0.6622999999970247],[0.32833333333333337,-0.3598148148148148,0.6791999999992555],[0.32781250000000006,-0.3490740740740741,0.6992999999970237],[0.32999999999999996,-0.3403703703703704,0.7127999999970243],[0.31135416666666677,-0.33925925925925926,0.7286999999992574],[0.325,-0.3403703703703704,0.7453999999985115],[0.35927083333333343,-0.3331481481481481,0.7621999999992539],[0.3848958333333333,-0.3718518518518519,0.7786999999992545],[0.39729166666666677,-0.4403703703703704,0.7953999999985086],[0.4006249999999999,-0.4272222222222222,0.8125999999977651],[0.3931250000000001,-0.4272222222222222,0.8286999999992588],[0.35145833333333343,-0.40185185185185185,0.8470999999977664],[0.3056250000000001,-0.3772222222222222,0.865000000000002],[0.27791666666666665,-0.34814814814814815,0.8791999999992584],[0.2556250000000001,-0.3012962962962963,0.89539999999851],[0.21687500000000004,-0.24407407407407408,0.911999999999999],[0.15750000000000006,-0.19518518518518516,0.9286999999992531],[0.12458333333333324,-0.10833333333333334,0.9452999999970189],[0.09166666666666666,-0.021481481481481525,0.9620000000000033],[0.08364583333333328,0.012592592592592508,0.9786999999992574],[0.0756249999999999,0.04666666666666675,0.9953999999985115],[0.09864583333333338,0.07703703703703708,1.0147999999970239],[0.12166666666666662,0.10740740740740741,1.0290000000000035],[0.125,0.12407407407407407,1.0453999999985086],[0.125,0.12407407407407407,1.0620000000000047],[0.12833333333333338,0.14074074074074075,1.0786999999992588],[0.14833333333333343,0.16277777777777774,1.096199999999257],[0.18291666666666656,0.1411111111111112,1.1120000000000019],[0.19416666666666677,0.12407407407407407,1.1285999999977676],[0.20968749999999994,0.11537037037037029,1.1452999999970217],[0.20281250000000003,0.12333333333333338,1.161999999999999],[0.2171875,0.11962962962962967,1.1786999999992531],[0.246875,0.10907407407407403,1.1956999999992561],[0.2727083333333333,0.06629629629629621,1.2120000000000033],[0.3051041666666668,0.03555555555555564,1.2286999999992574],[0.34427083333333336,0.006481481481481481,1.2452999999970231],[0.40864583333333326,-0.03222222222222218,1.2620999999977656],[0.4514583333333334,-0.0418518518518519,1.2815999999977663],[0.48489583333333336,-0.06277777777777774,1.295899999998511],[0.5167708333333333,-0.09518518518518514,1.3122999999970233],[0.5486458333333334,-0.12759259259259256,1.3288999999985123],[0.5431250000000001,-0.1307407407407408,1.345399999998513],[0.5301041666666667,-0.15833333333333333,1.3620000000000019],[0.5175,-0.1559259259259259,1.378699999999256],[0.48552083333333323,-0.16074074074074077,1.39539999999851],[0.4696875000000001,-0.1427777777777778,1.4118999999985107],[0.4174999999999999,-0.152962962962963,1.4286999999992531],[0.3866666666666667,-0.11722222222222224,1.4453999999985143],[0.375,-0.08462962962962961,1.4622999999970219],[0.3851041666666667,-0.029814814814814856,1.4820999999977644],[0.3851041666666667,-0.029814814814814856,1.4956999999992533],[0.35875000000000007,0.023333333333333376,1.5120999999977656],[0.35875000000000007,0.023333333333333376,1.5286999999992545],[0.33541666666666664,0.04796296296296292,1.5453999999985086],[0.3393749999999999,0.1124074074074075,1.5660000000000025],[0.3393749999999999,0.1124074074074075,1.578799999997024],[0.3544791666666666,0.1838888888888888,1.595399999998513],[0.38312499999999994,0.22018518518518515,1.618000000000002],[0.38312499999999994,0.22018518518518515,1.628699999999256],[0.38822916666666674,0.2657407407407407,1.6452999999970217],[0.38822916666666674,0.2657407407407407,1.661999999999999],[0.4078125,0.3375925925925925,1.6787999999970182],[0.4267708333333334,0.3668518518518519,1.6961999999992585],[0.4405208333333334,0.4137037037037037,1.7120999999977684],[0.42979166666666657,0.4414814814814814,1.7286999999992574],[0.4244791666666667,0.4642592592592593,1.7452999999970231],[0.4322916666666667,0.49796296296296294,1.7620000000000005],[0.38864583333333325,0.5385185185185184,1.7785999999977662],[0.34395833333333337,0.5335185185185186,1.7955999999977692],[0.33645833333333336,0.5951851851851852,1.8120000000000047],[0.33645833333333336,0.5951851851851852,1.8286999999992588],[0.32958333333333345,0.6231481481481481,1.8455000000000013],[0.3102083333333333,0.6396296296296295,1.8620000000000019],[0.3352083333333333,0.6370370370370371,1.878699999999256],[0.3352083333333333,0.6370370370370371,1.89539999999851],[0.3492708333333333,0.6079629629629629,1.9120999999977641],[0.36656250000000007,0.5812962962962962,1.9285999999977648],[0.4069791666666667,0.5864814814814816,1.9452999999970189],[0.45770833333333344,0.5875925925925926,1.9620000000000033],[0.5207291666666668,0.5768518518518518,1.9786999999992574],[0.5207291666666668,0.5768518518518518,1.9954999999999998],[0.5816666666666668,0.5935185185185186,2.0120999999977656],[0.5672916666666665,0.5740740740740741,2.028599999997766],[0.6193749999999999,0.5461111111111111,2.0453999999985086],[0.6172916666666666,0.544074074074074,2.0620000000000047],[0.6081249999999999,0.547037037037037,2.078699999999259],[0.6292708333333332,0.5707407407407408,2.0982999999970247],[0.60625,0.5477777777777777,2.113899999998509],[0.6359375,0.5407407407407407,2.128699999999256],[0.6401041666666667,0.5366666666666666,2.1452999999970217],[0.6654166666666667,0.5168518518518519,2.161999999999999],[0.6567708333333333,0.5096296296296298,2.178699999999253],[0.7436458333333335,0.4853703703703704,2.1953999999985143],[0.7482291666666666,0.48037037037037034,2.212299999997022],[0.8194791666666668,0.4609259259259259,2.228599999997769],[0.8071875000000001,0.44518518518518513,2.245299999997023],[0.7715625,0.39759259259259266,2.2620000000000005],[0.7932291666666667,0.3877777777777777,2.2805000000000035],[0.7932291666666667,0.3877777777777777,2.2956999999992576],[0.734375,0.3512962962962964,2.312199999999258],[0.65,0.2759259259259259,2.330599999997766],[0.5333333333333333,0.1594444444444445,2.345399999998513],[0.4460416666666667,0.043703703703703745,2.362099999997767],[0.3132291666666667,-0.01907407407407399,2.380500000000005],[0.22041666666666657,-0.11074074074074076,2.3955999999977635],[0.22041666666666657,-0.11074074074074076,2.412099999997764],[0.11500000000000009,-0.19370370370370374,2.430899999998509],[0.04364583333333331,-0.2690740740740741,2.445599999997768],[0.03583333333333331,-0.30925925925925923,2.4653999999985103],[0.03583333333333331,-0.30925925925925923,2.48069999999926],[-0.005208333333333333,-0.32037037037037036,2.4953999999985115],[0.0140625,-0.3905555555555555,2.5120999999977656],[0.04510416666666662,-0.41759259259259257,2.5286999999992545],[0.04541666666666669,-0.39296296296296296,2.5472999999970227],[0.12166666666666662,-0.38870370370370366,2.5620000000000047],[0.19135416666666671,-0.40555555555555556,2.5785999999977633],[0.22541666666666677,-0.4053703703703703,2.5952999999970245],[0.3007291666666667,-0.4009259259259259,2.612099999997767],[0.33656249999999993,-0.3948148148148148,2.6285999999977676],[0.3033333333333334,-0.41870370370370374,2.6452999999970217],[0.26979166666666665,-0.46037037037037043,2.661999999999999],[0.21822916666666667,-0.4633333333333333,2.680599999997767],[0.19562499999999997,-0.46944444444444444,2.6988999999985097],[0.2390625,-0.505,2.7123999999985102],[0.1896874999999999,-0.5075925925925926,2.728599999997769],[0.14895833333333333,-0.5464814814814816,2.745299999997023],[0.12687499999999996,-0.5590740740740741,2.7620000000000005],[0.07312500000000005,-0.5901851851851851,2.778599999997766],[0.057291666666666664,-0.6088888888888889,2.7952999999970203],[0.07229166666666677,-0.6001851851851853,2.8120000000000047],[0.10447916666666662,-0.5962962962962963,2.8285999999977633],[0.12510416666666657,-0.5922222222222222,2.845399999998513],[0.15968749999999995,-0.5879629629629629,2.862000000000002],[0.17322916666666663,-0.5833333333333334,2.8810999999977653],[0.20364583333333333,-0.5912962962962963,2.89839999999851],[0.18218750000000009,-0.5588888888888889,2.912099999997764],[0.15354166666666677,-0.5516666666666666,2.9287999999970182],[0.146875,-0.5764814814814815,2.947599999997763],[0.13333333333333333,-0.5462962962962963,2.9621999999992568],[0.09739583333333333,-0.5357407407407407,2.978899999998511],[0.06145833333333333,-0.5251851851851852,2.9983999999985116],[0.04229166666666669,-0.5031481481481481,3.0141999999992564],[0.014479166666666644,-0.497037037037037,3.0286999999992545],[-0.014583333333333334,-0.5098148148148148,3.045599999997769],[-0.03968750000000002,-0.5077777777777778,3.0638999999985117],[-0.03833333333333329,-0.5011111111111112,3.0785999999977633],[-0.03833333333333329,-0.5011111111111112,3.0955000000000013],[-0.03697916666666667,-0.49444444444444446,3.112099999997767],[-0.024374999999999977,-0.45481481481481484,3.128699999999256],[-0.024583333333333356,-0.4764814814814815,3.1454999999999984],[-0.01854166666666662,-0.4911111111111111,3.161999999999999],[-0.02635416666666662,-0.48703703703703705,3.178699999999253],[-0.04593750000000003,-0.48870370370370364,3.198199999999254],[-0.06593749999999995,-0.4938888888888889,3.2120000000000033],[-0.07770833333333335,-0.4788888888888889,3.2286999999992574],[-0.08093750000000005,-0.472037037037037,3.245299999997023],[-0.06687500000000005,-0.47685185185185186,3.261899999998512],[-0.041666666666666664,-0.47833333333333333,3.2786999999992545],[-0.041666666666666664,-0.47833333333333333,3.2953999999985086],[-0.049374999999999974,-0.4735185185185185,3.3120000000000047],[-0.052187500000000026,-0.4214814814814815,3.3285999999977633],[-0.05677083333333333,-0.3992592592592593,3.345399999998513],[-0.04750000000000002,-0.3957407407407407,3.3618999999985135],[-0.05635416666666669,-0.3864814814814815,3.378699999999256],[-0.07135416666666666,-0.35407407407407404,3.39539999999851],[-0.06697916666666662,-0.32018518518518513,3.411999999999999],[-0.0751041666666667,-0.2929629629629629,3.4285999999977648],[-0.07468750000000005,-0.27870370370370373,3.445299999997019],[-0.06520833333333335,-0.23648148148148146,3.462299999997022],[-0.07239583333333334,-0.22666666666666663,3.482599999997767],[-0.07239583333333334,-0.22666666666666663,3.4955],[-0.06625000000000002,-0.2383333333333333,3.5120999999977656],[-0.06625000000000002,-0.2383333333333333,3.528599999997766],[-0.05281250000000005,-0.25203703703703706,3.5452999999970203],[-0.05281250000000005,-0.25203703703703706,3.5618999999985093],[-0.03322916666666664,-0.2490740740740741,3.578699999999259],[-0.03322916666666664,-0.2490740740740741,3.595399999998513]]","[0.000199999999253464,0.03879999999702477,0.04529999999702028,0.06209999999776983,0.07900000000000063,0.0953999999985129,0.11200000000000188,0.1285999999977676,0.14539999999851005,0.16209999999776414,0.17869999999925312,0.196399999998512,0.2120000000000033,0.2287999999970225,0.24539999999851148,0.26200000000000045,0.27869999999925454,0.2995000000000019,0.3141999999992535,0.32859999999776335,0.34829999999702466,0.3620000000000019,0.37869999999925597,0.3954999999999984,0.41499999999999915,0.4286999999992531,0.44529999999701886,0.4623999999985102,0.4789999999999992,0.4953999999985115,0.5120000000000005,0.5286999999992545,0.5452999999970203,0.5620000000000047,0.5786999999992588,0.5955000000000013,0.6120000000000019,0.628699999999256,0.6454999999999984,0.6622999999970247,0.6791999999992555,0.6992999999970237,0.7127999999970243,0.7286999999992574,0.7453999999985115,0.7621999999992539,0.7786999999992545,0.7953999999985086,0.8125999999977651,0.8286999999992588,0.8470999999977664,0.865000000000002,0.8791999999992584,0.89539999999851,0.911999999999999,0.9286999999992531,0.9452999999970189,0.9620000000000033,0.9786999999992574,0.9953999999985115,1.0147999999970239,1.0290000000000035,1.0453999999985086,1.0620000000000047,1.0786999999992588,1.096199999999257,1.1120000000000019,1.1285999999977676,1.1452999999970217,1.161999999999999,1.1786999999992531,1.1956999999992561,1.2120000000000033,1.2286999999992574,1.2452999999970231,1.2620999999977656,1.2815999999977663,1.295899999998511,1.3122999999970233,1.3288999999985123,1.345399999998513,1.3620000000000019,1.378699999999256,1.39539999999851,1.4118999999985107,1.4286999999992531,1.4453999999985143,1.4622999999970219,1.4820999999977644,1.4956999999992533,1.5120999999977656,1.5286999999992545,1.5453999999985086,1.5660000000000025,1.578799999997024,1.595399999998513,1.618000000000002,1.628699999999256,1.6452999999970217,1.661999999999999,1.6787999999970182,1.6961999999992585,1.7120999999977684,1.7286999999992574,1.7452999999970231,1.7620000000000005,1.7785999999977662,1.7955999999977692,1.8120000000000047,1.8286999999992588,1.8455000000000013,1.8620000000000019,1.878699999999256,1.89539999999851,1.9120999999977641,1.9285999999977648,1.9452999999970189,1.9620000000000033,1.9786999999992574,1.9954999999999998,2.0120999999977656,2.028599999997766,2.0453999999985086,2.0620000000000047,2.078699999999259,2.0982999999970247,2.113899999998509,2.128699999999256,2.1452999999970217,2.161999999999999,2.178699999999253,2.1953999999985143,2.212299999997022,2.228599999997769,2.245299999997023,2.2620000000000005,2.2805000000000035,2.2956999999992576,2.312199999999258,2.330599999997766,2.345399999998513,2.362099999997767,2.380500000000005,2.3955999999977635,2.412099999997764,2.430899999998509,2.445599999997768,2.4653999999985103,2.48069999999926,2.4953999999985115,2.5120999999977656,2.5286999999992545,2.5472999999970227,2.5620000000000047,2.5785999999977633,2.5952999999970245,2.612099999997767,2.6285999999977676,2.6452999999970217,2.661999999999999,2.680599999997767,2.6988999999985097,2.7123999999985102,2.728599999997769,2.745299999997023,2.7620000000000005,2.778599999997766,2.7952999999970203,2.8120000000000047,2.8285999999977633,2.845399999998513,2.862000000000002,2.8810999999977653,2.89839999999851,2.912099999997764,2.9287999999970182,2.947599999997763,2.9621999999992568,2.978899999998511,2.9983999999985116,3.0141999999992564,3.0286999999992545,3.045599999997769,3.0638999999985117,3.0785999999977633,3.0955000000000013,3.112099999997767,3.128699999999256,3.1454999999999984,3.161999999999999,3.178699999999253,3.198199999999254,3.2120000000000033,3.2286999999992574,3.245299999997023,3.261899999998512,3.2786999999992545,3.2953999999985086,3.3120000000000047,3.3285999999977633,3.345399999998513,3.3618999999985135,3.378699999999256,3.39539999999851,3.411999999999999,3.4285999999977648,3.445299999997019,3.462299999997022,3.482599999997767,3.4955,3.5120999999977656,3.528599999997766,3.5452999999970203,3.5618999999985093,3.578699999999259,3.595399999998513]","[1733131506567,1733131506598,1733131506605,1733131506622,1733131506638,1733131506655,1733131506671,1733131506688,1733131506705,1733131506722,1733131506738,1733131506756,1733131506771,1733131506788,1733131506805,1733131506821,1733131506838,1733131506859,1733131506874,1733131506888,1733131506908,1733131506921,1733131506938,1733131506955,1733131506974,1733131506988,1733131507005,1733131507022,1733131507038,1733131507055,1733131507071,1733131507088,1733131507105,1733131507121,1733131507138,1733131507155,1733131507171,1733131507188,1733131507205,1733131507222,1733131507239,1733131507259,1733131507272,1733131507288,1733131507305,1733131507322,1733131507338,1733131507355,1733131507372,1733131507388,1733131507407,1733131507424,1733131507439,1733131507455,1733131507471,1733131507488,1733131507505,1733131507521,1733131507538,1733131507555,1733131507574,1733131507588,1733131507605,1733131507621,1733131507638,1733131507656,1733131507671,1733131507688,1733131507705,1733131507721,1733131507738,1733131507755,1733131507771,1733131507788,1733131507805,1733131507822,1733131507841,1733131507855,1733131507872,1733131507888,1733131507905,1733131507921,1733131507938,1733131507955,1733131507971,1733131507988,1733131508005,1733131508022,1733131508042,1733131508055,1733131508072,1733131508088,1733131508105,1733131508125,1733131508138,1733131508155,1733131508177,1733131508188,1733131508205,1733131508222,1733131508238,1733131508256,1733131508271,1733131508288,1733131508305,1733131508321,1733131508338,1733131508355,1733131508371,1733131508388,1733131508405,1733131508421,1733131508438,1733131508455,1733131508471,1733131508488,1733131508505,1733131508521,1733131508538,1733131508555,1733131508572,1733131508588,1733131508605,1733131508621,1733131508638,1733131508658,1733131508673,1733131508688,1733131508705,1733131508721,1733131508738,1733131508755,1733131508772,1733131508788,1733131508805,1733131508821,1733131508840,1733131508855,1733131508872,1733131508890,1733131508905,1733131508922,1733131508940,1733131508955,1733131508972,1733131508990,1733131509005,1733131509025,1733131509040,1733131509055,1733131509071,1733131509088,1733131509107,1733131509121,1733131509138,1733131509155,1733131509172,1733131509188,1733131509205,1733131509221,1733131509240,1733131509258,1733131509272,1733131509288,1733131509305,1733131509321,1733131509338,1733131509355,1733131509371,1733131509388,1733131509405,1733131509422,1733131509441,1733131509458,1733131509472,1733131509488,1733131509507,1733131509522,1733131509538,1733131509558,1733131509574,1733131509588,1733131509605,1733131509623,1733131509638,1733131509655,1733131509672,1733131509688,1733131509705,1733131509721,1733131509738,1733131509758,1733131509771,1733131509788,1733131509805,1733131509821,1733131509838,1733131509855,1733131509871,1733131509888,1733131509905,1733131509921,1733131509938,1733131509955,1733131509971,1733131509988,1733131510005,1733131510022,1733131510042,1733131510055,1733131510072,1733131510088,1733131510105,1733131510121,1733131510138,1733131510155]","[[1245.3,322.7],[1245.3,322.7],[1245.3,322.7],[1236.9,290.5],[1245,273.5],[1259.6,261.9],[1223.9,271.2],[1221.9,269.2],[1234.3,280.6],[1240.4,282.2],[1223.9,286.4],[1191.6,305.6],[1185.6,319.6],[1166,334.1],[1151.2,341.8],[1157.2,356.4],[1201.5,355.5],[1197.1,362.5],[1213.4,348.9],[1241.7,335.3],[1300,322.6],[1346.2,312.4],[1346.2,298],[1359.9,284.3],[1378.5,283.4],[1363.8,273.9],[1356.1,280.8],[1361.8,279.8],[1361.8,279.8],[1367.2,297.3],[1358.5,306.9],[1342.4,313],[1318.9,318.7],[1339.7,323.1],[1334.5,327.3],[1310,326],[1299.8,333.4],[1286.7,348.1],[1295.5,347],[1279.7,340.3],[1275.2,345.7],[1274.7,351.5],[1276.8,356.2],[1258.9,356.8],[1272,356.2],[1304.9,360.1],[1329.5,339.2],[1341.4,302.2],[1344.6,309.3],[1337.4,309.3],[1297.4,323],[1253.4,336.3],[1226.8,352],[1205.4,377.3],[1168.2,408.2],[1111.2,434.6],[1079.6,481.5],[1048,528.4],[1040.3,546.8],[1032.6,565.2],[1054.7,581.6],[1076.8,598],[1080,607],[1080,607],[1083.2,616],[1102.4,627.9],[1135.6,616.2],[1146.4,607],[1161.3,602.3],[1154.7,606.6],[1168.5,604.6],[1197,598.9],[1221.8,575.8],[1252.9,559.2],[1290.5,543.5],[1352.3,522.6],[1393.4,517.4],[1425.5,506.1],[1456.1,488.6],[1486.7,471.1],[1481.4,469.4],[1468.9,454.5],[1456.8,455.8],[1426.1,453.2],[1410.9,462.9],[1360.8,457.4],[1331.2,476.7],[1320,494.3],[1329.7,523.9],[1329.7,523.9],[1304.4,552.6],[1304.4,552.6],[1282,565.9],[1285.8,600.7],[1285.8,600.7],[1300.3,639.3],[1327.8,658.9],[1327.8,658.9],[1332.7,683.5],[1332.7,683.5],[1351.5,722.3],[1369.7,738.1],[1382.9,763.4],[1372.6,778.4],[1367.5,790.7],[1375,808.9],[1333.1,830.8],[1290.2,828.1],[1283,861.4],[1283,861.4],[1276.4,876.5],[1257.8,885.4],[1281.8,884],[1281.8,884],[1295.3,868.3],[1311.9,853.9],[1350.7,856.7],[1399.4,857.3],[1459.9,851.5],[1459.9,851.5],[1518.4,860.5],[1504.6,850],[1554.6,834.9],[1552.6,833.8],[1543.8,835.4],[1564.1,848.2],[1542,835.8],[1570.5,832],[1574.5,829.8],[1598.8,819.1],[1590.5,815.2],[1673.9,802.1],[1678.3,799.4],[1746.7,788.9],[1734.9,780.4],[1700.7,754.7],[1721.5,749.4],[1721.5,749.4],[1665,729.7],[1584,689],[1472,626.1],[1388.2,563.6],[1260.7,529.7],[1171.6,480.2],[1171.6,480.2],[1070.4,435.4],[1001.9,394.7],[994.4,373],[994.4,373],[955,367],[973.5,329.1],[1003.3,314.5],[1003.6,327.8],[1076.8,330.1],[1143.7,321],[1176.4,321.1],[1248.7,323.5],[1283.1,326.8],[1251.2,313.9],[1219,291.4],[1169.5,289.8],[1147.8,286.5],[1189.5,267.3],[1142.1,265.9],[1103,244.9],[1081.8,238.1],[1030.2,221.3],[1015,211.2],[1029.4,215.9],[1060.3,218],[1080.1,220.2],[1113.3,222.5],[1126.3,225],[1155.5,220.7],[1134.9,238.2],[1107.4,242.1],[1101,228.7],[1088,245],[1053.5,250.7],[1019,256.4],[1000.6,268.3],[973.9,271.6],[946,264.7],[921.9,265.8],[923.2,269.4],[923.2,269.4],[924.5,273],[936.6,294.4],[936.4,282.7],[942.2,274.8],[934.7,277],[915.9,276.1],[896.7,273.3],[885.4,281.4],[882.3,285.1],[895.8,282.5],[920,281.7],[920,281.7],[912.6,284.3],[909.9,312.4],[905.5,324.4],[914.4,326.3],[905.9,331.3],[891.5,348.8],[895.7,367.1],[887.9,381.8],[888.3,389.5],[897.4,412.3],[890.5,417.6],[890.5,417.6],[896.4,411.3],[896.4,411.3],[909.3,403.9],[909.3,403.9],[928.1,405.5],[928.1,405.5]]","[0,0.5333]","[0.5333,0.5333]","[-0.5333,0]","[-0.5333,-0.5333]","[0,0]","[0.5333,0]","[0,-0.5333]","[0.5333,-0.5333]",0,0,0,0,1,3,Monitor,11,9,9,1
,,,,,,,,,,,,,,,,,,,42,001,2024-12-02_17h24.22.339,Attention_exp_legacy,2023.1.0,Win32,59.88023952,,,,,,,,,,,[0.4322916666666667],[0.5259259259259259],[1],[0],[0],[1.7816999999992547],"[""Option2_label""]",Option2_label,2,2.7999,"[[0.030208333333333334,0.45925925925925926],[0.030208333333333334,0.45925925925925926],[0.030208333333333334,0.45925925925925926],[0.030208333333333334,0.45925925925925926],[0.030208333333333334,0.45925925925925926],[0.030208333333333334,0.45925925925925926],[0.030208333333333334,0.45925925925925926],[0.030208333333333334,0.45925925925925926],[0.030208333333333334,0.45925925925925926],[0.030208333333333334,0.45925925925925926],[0.030208333333333334,0.45925925925925926],[0.030208333333333334,0.45925925925925926],[0.030208333333333334,0.45925925925925926],[0.030208333333333334,0.45925925925925926],[0.030208333333333334,0.45925925925925926],[0.030208333333333334,0.45925925925925926],[0.030208333333333334,0.45925925925925926],[0.030208333333333334,0.45925925925925926],[0.030208333333333334,0.45925925925925926],[0.030208333333333334,0.45925925925925926],[0.030208333333333334,0.45925925925925926],[0.030208333333333334,0.45925925925925926],[0.030208333333333334,0.45925925925925926],[0.030208333333333334,0.45925925925925926],[0.030208333333333334,0.45925925925925926],[0.030208333333333334,0.45925925925925926],[0.030208333333333334,0.45925925925925926],[0.030208333333333334,0.45925925925925926],[0.030208333333333334,0.45925925925925926],[0.030208333333333334,0.45925925925925926],[0.030208333333333334,0.45925925925925926],[0.030208333333333334,0.45925925925925926],[0.030208333333333334,0.45925925925925926],[0.030208333333333334,0.45925925925925926],[0.030208333333333334,0.45925925925925926],[0.030208333333333334,0.45925925925925926],[0.030208333333333334,0.45925925925925926],[0.030208333333333334,0.45925925925925926],[0.030208333333333334,0.45925925925925926],[0.030208333333333334,0.45925925925925926],[0.030208333333333334,0.45925925925925926],[0.030208333333333334,0.45925925925925926],[0.030208333333333334,0.45925925925925926],[0.030208333333333334,0.45925925925925926],[0.030208333333333334,0.45925925925925926],[0.030208333333333334,0.45925925925925926],[0.030208333333333334,0.45925925925925926],[0.030208333333333334,0.45925925925925926],[0.030208333333333334,0.45925925925925926],[0.030208333333333334,0.45925925925925926],[0.030208333333333334,0.45925925925925926],[0.030208333333333334,0.45925925925925926],[0.030208333333333334,0.45925925925925926],[0.030208333333333334,0.45925925925925926],[0.030208333333333334,0.45925925925925926],[0.030208333333333334,0.45925925925925926],[0.030208333333333334,0.45925925925925926],[0.030208333333333334,0.45925925925925926],[0.030208333333333334,0.45925925925925926],[0.030208333333333334,0.45925925925925926],[0.030208333333333334,0.45925925925925926],[0.030208333333333334,0.45925925925925926],[0.030208333333333334,0.45925925925925926],[0.030208333333333334,0.45925925925925926],[0.030208333333333334,0.45925925925925926],[0.030208333333333334,0.45925925925925926],[0.030208333333333334,0.45925925925925926],[0.030208333333333334,0.45925925925925926],[0.030208333333333334,0.45925925925925926],[0.030208333333333334,0.45925925925925926],[0.030208333333333334,0.45925925925925926],[0.030208333333333334,0.45925925925925926],[0.030208333333333334,0.45925925925925926],[0.030208333333333334,0.45925925925925926],[0.030208333333333334,0.45925925925925926],[0.030208333333333334,0.45925925925925926],[0.030208333333333334,0.45925925925925926],[0.030208333333333334,0.45925925925925926],[0.030208333333333334,0.45925925925925926],[0.030208333333333334,0.45925925925925926],[0.030208333333333334,0.45925925925925926],[0.030208333333333334,0.45925925925925926],[0.030208333333333334,0.45925925925925926],[0.030208333333333334,0.45925925925925926],[0.030208333333333334,0.45925925925925926],[0.030208333333333334,0.45925925925925926],[0.036458333333333336,0.45740740740740743],[0.058333333333333334,0.45740740740740743],[0.09791666666666667,0.45740740740740743],[0.15520833333333334,0.4444444444444444],[0.23125,0.42407407407407405],[0.2989583333333333,0.40925925925925927],[0.33958333333333335,0.40925925925925927],[0.36770833333333336,0.40925925925925927],[0.3875,0.4203703703703704],[0.40208333333333335,0.4351851851851852],[0.41041666666666665,0.45925925925925926],[0.41875,0.48148148148148145],[0.421875,0.4925925925925926],[0.42291666666666666,0.5018518518518519],[0.425,0.5111111111111111],[0.4270833333333333,0.5166666666666667],[0.43020833333333336,0.524074074074074],[0.4322916666666667,0.5259259259259259],[0.4322916666666667,0.5259259259259259],[0.4322916666666667,0.5259259259259259],[0.4322916666666667,0.5259259259259259],[0.4322916666666667,0.5259259259259259],[0.4322916666666667,0.5259259259259259],[0.4322916666666667,0.5259259259259259],[0.4322916666666667,0.5259259259259259],[0.4322916666666667,0.5259259259259259],[0.4322916666666667,0.5259259259259259],[0.4322916666666667,0.5259259259259259],[0.4322916666666667,0.5259259259259259],[0.4322916666666667,0.5259259259259259],[0.4322916666666667,0.5259259259259259],[0.4322916666666667,0.524074074074074],[0.43125,0.5203703703703704],[0.42916666666666664,0.5111111111111111],[0.428125,0.5037037037037037],[0.42291666666666666,0.4759259259259259],[0.4197916666666667,0.4537037037037037],[0.41458333333333336,0.42407407407407405],[0.409375,0.3888888888888889],[0.40208333333333335,0.35],[0.3958333333333333,0.3148148148148148],[0.38958333333333334,0.28888888888888886],[0.3875,0.27037037037037037],[0.3854166666666667,0.25555555555555554],[0.384375,0.25],[0.38333333333333336,0.2462962962962963],[0.38229166666666664,0.24074074074074073],[0.38229166666666664,0.2388888888888889],[0.38229166666666664,0.23703703703703705],[0.38229166666666664,0.23703703703703705],[0.38229166666666664,0.23703703703703705],[0.38229166666666664,0.23703703703703705],[0.38229166666666664,0.23703703703703705],[0.38229166666666664,0.23703703703703705],[0.38229166666666664,0.23703703703703705],[0.38229166666666664,0.23703703703703705],[0.38229166666666664,0.23703703703703705],[0.38229166666666664,0.23703703703703705],[0.38229166666666664,0.23703703703703705],[0.38229166666666664,0.23703703703703705],[0.38229166666666664,0.23703703703703705],[0.38229166666666664,0.23703703703703705],[0.38229166666666664,0.23703703703703705],[0.38229166666666664,0.23703703703703705],[0.38229166666666664,0.23703703703703705],[0.38229166666666664,0.23703703703703705],[0.38229166666666664,0.23703703703703705],[0.38229166666666664,0.23703703703703705],[0.38229166666666664,0.23703703703703705],[0.38229166666666664,0.23703703703703705],[0.38229166666666664,0.23703703703703705],[0.38229166666666664,0.23703703703703705],[0.38229166666666664,0.23703703703703705],[0.38229166666666664,0.23703703703703705],[0.38229166666666664,0.23703703703703705],[0.38229166666666664,0.23703703703703705],[0.38229166666666664,0.23703703703703705],[0.38229166666666664,0.23703703703703705],[0.38229166666666664,0.23703703703703705],[0.38229166666666664,0.23703703703703705],[0.38229166666666664,0.23703703703703705],[0.38229166666666664,0.23703703703703705],[0.38229166666666664,0.23703703703703705]]","[[-0.1466666666666666,-0.25759259259259265],[-0.1328125,-0.27314814814814814],[-0.16354166666666667,-0.2727777777777778],[-0.17562500000000003,-0.2753703703703704],[-0.16312500000000002,-0.2753703703703704],[-0.16312500000000002,-0.2753703703703704],[-0.15375000000000003,-0.30462962962962964],[-0.15750000000000006,-0.30111111111111116],[-0.1388541666666666,-0.33055555555555555],[-0.1342708333333333,-0.3690740740740741],[-0.13343750000000001,-0.39092592592592595],[-0.13343750000000001,-0.39092592592592595],[-0.14593750000000003,-0.4118518518518518],[-0.19187500000000005,-0.4022222222222222],[-0.1788541666666667,-0.3955555555555556],[-0.171875,-0.4057407407407408],[-0.1622916666666666,-0.40703703703703703],[-0.17145833333333335,-0.3925925925925926],[-0.17760416666666667,-0.4212962962962963],[-0.2061458333333333,-0.41703703703703704],[-0.228125,-0.3594444444444445],[-0.24614583333333329,-0.32111111111111107],[-0.26187499999999997,-0.2855555555555555],[-0.2552083333333333,-0.26296296296296295],[-0.26989583333333333,-0.22999999999999998],[-0.28458333333333335,-0.19703703703703698],[-0.3441666666666666,-0.18351851851851855],[-0.3592708333333333,-0.16574074074074074],[-0.3463541666666667,-0.13129629629629624],[-0.34500000000000003,-0.06370370370370367],[-0.3202083333333333,-0.04092592592592597],[-0.29562499999999997,-0.015555555555555513],[-0.2765625,0.008333333333333333],[-0.25750000000000006,0.03222222222222218],[-0.23999999999999996,0.07629629629629638],[-0.22250000000000003,0.12037037037037036],[-0.15375000000000003,0.13259259259259262],[-0.13177083333333334,0.14944444444444452],[-0.13875000000000004,0.20629629629629626],[-0.13416666666666663,0.2300000000000001],[-0.1508333333333333,0.20259259259259255],[-0.1508333333333333,0.20259259259259255],[-0.16531250000000006,0.23444444444444448],[-0.1985416666666667,0.21055555555555563],[-0.1944791666666667,0.2242592592592593],[-0.18812500000000001,0.20962962962962972],[-0.19604166666666673,0.12333333333333338],[-0.2235416666666667,0.09277777777777782],[-0.20927083333333332,0.04462962962962967],[-0.21062500000000003,-0.01185185185185181],[-0.20260416666666667,-0.05462962962962963],[-0.19479166666666667,-0.03518518518518519],[-0.19312499999999996,-0.11388888888888889],[-0.19312499999999996,-0.11388888888888889],[-0.1694791666666667,-0.13259259259259262],[-0.1694791666666667,-0.13259259259259262],[-0.16625000000000004,-0.2111111111111111],[-0.16625000000000004,-0.2111111111111111],[-0.15677083333333333,-0.30481481481481487],[-0.15677083333333333,-0.30481481481481487],[-0.12843749999999995,-0.31074074074074076],[-0.12843749999999995,-0.31074074074074076],[-0.10281250000000004,-0.337037037037037],[-0.10281250000000004,-0.337037037037037],[-0.09437500000000003,-0.3690740740740741],[-0.07614583333333336,-0.42000000000000004],[-0.059583333333333384,-0.4770370370370371],[-0.043333333333333356,-0.5342592592592592],[-0.02010416666666662,-0.5353703703703704],[-0.0005208333333333333,-0.544074074074074],[0.01604166666666664,-0.5349999999999999],[0.024791666666666618,-0.5246296296296297],[0.02010416666666662,-0.5361111111111111],[0.018124999999999978,-0.5272222222222221],[0.027499999999999976,-0.5316666666666667],[0.027499999999999976,-0.5316666666666667],[0.033854166666666664,-0.5253703703703704],[0.03999999999999997,-0.5320370370370371],[0.05364583333333333,-0.5444444444444444],[0.07052083333333338,-0.5846296296296296],[0.05677083333333333,-0.5825925925925927],[0.029166666666666667,-0.5761111111111111],[0.02666666666666669,-0.5777777777777777],[0.02666666666666669,-0.5777777777777777],[0.0328125,-0.5738888888888889],[0.02374999999999995,-0.5925925925925926],[0.02374999999999995,-0.5925925925925926],[0.03583333333333331,-0.5492592592592593],[0.04750000000000002,-0.527962962962963],[0.04750000000000002,-0.527962962962963],[0.05520833333333333,-0.5107407407407407],[0.03875000000000005,-0.48055555555555557],[0.006458333333333381,-0.4316666666666667],[0.008437500000000023,-0.41740740740740734],[0.06166666666666672,-0.39277777777777784],[0.09760416666666671,-0.36129629629629634],[0.1321875000000001,-0.31444444444444447],[0.16291666666666677,-0.2681481481481482],[0.19249999999999995,-0.2942592592592592],[0.23145833333333338,-0.3098148148148148],[0.25187499999999996,-0.3109259259259259],[0.25187499999999996,-0.3109259259259259],[0.29583333333333334,-0.32462962962962966],[0.353125,-0.3538888888888889],[0.40635416666666657,-0.4057407407407408],[0.4014583333333334,-0.46055555555555555],[0.396875,-0.4859259259259259],[0.39385416666666656,-0.5264814814814816],[0.3962500000000001,-0.5337037037037037],[0.36729166666666657,-0.5172222222222222],[0.34874999999999995,-0.5164814814814814],[0.34520833333333345,-0.5207407407407407],[0.33645833333333336,-0.5087037037037037],[0.32395833333333335,-0.4892592592592592],[0.31281249999999994,-0.4492592592592593],[0.3085416666666667,-0.4166666666666667],[0.30437500000000006,-0.41462962962962957],[0.28760416666666655,-0.39962962962962967],[0.3051041666666668,-0.4124074074074074],[0.33572916666666663,-0.4366666666666667],[0.3311458333333334,-0.43944444444444447],[0.3311458333333334,-0.43944444444444447],[0.3415625000000001,-0.4401851851851852],[0.35666666666666674,-0.45185185185185184],[0.38083333333333325,-0.4818518518518518],[0.38083333333333325,-0.4818518518518518],[0.40770833333333345,-0.5098148148148148],[0.4203125,-0.5266666666666666],[0.41510416666666666,-0.5257407407407407],[0.42249999999999993,-0.5377777777777777],[0.39208333333333345,-0.5003703703703704],[0.37604166666666666,-0.43629629629629635],[0.36958333333333326,-0.35907407407407405],[0.36958333333333326,-0.35907407407407405],[0.3477083333333333,-0.3127777777777777],[0.32687499999999997,-0.28129629629629627],[0.32687499999999997,-0.28129629629629627],[0.30791666666666656,-0.21648148148148144],[0.26541666666666663,-0.15833333333333333],[0.23718750000000005,-0.11129629629629634],[0.2525000000000001,-0.0764814814814815],[0.2678124999999999,-0.041666666666666664],[0.3021874999999999,-0.02240740740740745],[0.3021874999999999,-0.02240740740740745],[0.309375,-0.018518518518518517],[0.32177083333333345,-0.07259259259259257],[0.31520833333333326,-0.06148148148148146],[0.31520833333333326,-0.05740740740740741],[0.30416666666666664,-0.0418518518518519],[0.30416666666666664,-0.0418518518518519],[0.31666666666666665,-0.01962962962962967],[0.34958333333333325,-0.01574074074074074],[0.35354166666666675,-0.005185185185185101],[0.35750000000000004,0.005370370370370328],[0.3381249999999999,-0.01314814814814819],[0.3389583333333334,-0.0507407407407407],[0.30447916666666663,-0.04611111111111107],[0.28802083333333334,-0.07000000000000002],[0.28104166666666663,-0.039629629629629584],[0.2741666666666667,-0.035740740740740656],[0.2560416666666666,-0.02814814814814823],[0.2560416666666666,-0.02814814814814823],[0.2131249999999999,0.008703703703703788],[0.1772916666666667,0.025370370370370456],[0.14458333333333329,0.03611111111111111],[0.13333333333333333,0.05962962962962971],[0.11333333333333329,0.12777777777777777],[0.11208333333333324,0.1925925925925926],[0.1271874999999999,0.22629629629629638]]","[[-0.1466666666666666,-0.25759259259259265,0.000199999999253464],[-0.1328125,-0.27314814814814814,0.01669999999925409],[-0.16354166666666667,-0.2727777777777778,0.03309999999776636],[-0.17562500000000003,-0.2753703703703704,0.04969999999925534],[-0.16312500000000002,-0.2753703703703704,0.06639999999850943],[-0.16312500000000002,-0.2753703703703704,0.08330000000074733],[-0.15375000000000003,-0.30462962962962964,0.0996999999992596],[-0.15750000000000006,-0.30111111111111116,0.11639999999851369],[-0.1388541666666666,-0.33055555555555555,0.13319999999925614],[-0.1342708333333333,-0.3690740740740741,0.14999999999999858],[-0.13343750000000001,-0.39092592592592595,0.16639999999851085],[-0.13343750000000001,-0.39092592592592595,0.1831999999992533],[-0.14593750000000003,-0.4118518518518518,0.19980000000074938],[-0.19187500000000005,-0.4022222222222222,0.21650000000000347],[-0.1788541666666667,-0.3955555555555556,0.2330999999977692],[-0.171875,-0.4057407407407408,0.24980000000074654],[-0.1622916666666666,-0.40703703703703703,0.26659999999776574],[-0.17145833333333335,-0.3925925925925926,0.28330000000074307],[-0.17760416666666667,-0.4212962962962963,0.3003999999985112],[-0.2061458333333333,-0.41703703703703704,0.3164999999999978],[-0.228125,-0.3594444444444445,0.3330999999977635],[-0.24614583333333329,-0.32111111111111107,0.34980000000074796],[-0.26187499999999997,-0.2855555555555555,0.3663999999985137],[-0.2552083333333333,-0.26296296296296295,0.3830999999977678],[-0.26989583333333333,-0.22999999999999998,0.3998000000007451],[-0.28458333333333335,-0.19703703703703698,0.4170999999977667],[-0.3441666666666666,-0.18351851851851855,0.43309999999776494],[-0.3592708333333333,-0.16574074074074074,0.4498000000007494],[-0.3463541666666667,-0.13129629629629624,0.466399999998508],[-0.34500000000000003,-0.06370370370370367,0.4873000000007437],[-0.3202083333333333,-0.04092592592592597,0.5023999999985094],[-0.29562499999999997,-0.015555555555555513,0.5163999999985123],[-0.2765625,0.008333333333333333,0.5330999999977664],[-0.25750000000000006,0.03222222222222218,0.5496999999992553],[-0.23999999999999996,0.07629629629629638,0.5663999999985094],[-0.22250000000000003,0.12037037037037036,0.583199999999259],[-0.15375000000000003,0.13259259259259262,0.5996999999992596],[-0.13177083333333334,0.14944444444444452,0.6163999999985137],[-0.13875000000000004,0.20629629629629626,0.6330999999977678],[-0.13416666666666663,0.2300000000000001,0.6498000000007451],[-0.1508333333333333,0.20259259259259255,0.6691999999992575],[-0.1508333333333333,0.20259259259259255,0.6830999999977649],[-0.16531250000000006,0.23444444444444448,0.6998000000007494],[-0.1985416666666667,0.21055555555555563,0.7165999999977686],[-0.1944791666666667,0.2242592592592593,0.7330999999977692],[-0.18812500000000001,0.20962962962962972,0.7496999999992582],[-0.19604166666666673,0.12333333333333338,0.7670999999977681],[-0.2235416666666667,0.09277777777777782,0.7830999999977664],[-0.20927083333333332,0.04462962962962967,0.7996999999992553],[-0.21062500000000003,-0.01185185185185181,0.8163000000007443],[-0.20260416666666667,-0.05462962962962963,0.8330999999977635],[-0.19479166666666667,-0.03518518518518519,0.8496999999992596],[-0.19312499999999996,-0.11388888888888889,0.8693999999985138],[-0.19312499999999996,-0.11388888888888889,0.8845000000000027],[-0.1694791666666667,-0.13259259259259262,0.9048999999985128],[-0.1694791666666667,-0.13259259259259262,0.9275999999977671],[-0.16625000000000004,-0.2111111111111111,0.9368999999985093],[-0.16625000000000004,-0.2111111111111111,0.9498000000007494],[-0.15677083333333333,-0.30481481481481487,0.9665000000000035],[-0.15677083333333333,-0.30481481481481487,0.9831999999992576],[-0.12843749999999995,-0.31074074074074076,0.9998000000007465],[-0.12843749999999995,-0.31074074074074076,1.0163999999985123],[-0.10281250000000004,-0.337037037037037,1.0330000000000013],[-0.10281250000000004,-0.337037037037037,1.0496999999992553],[-0.09437500000000003,-0.3690740740740741,1.0663999999985094],[-0.07614583333333336,-0.42000000000000004,1.086199999999259],[-0.059583333333333384,-0.4770370370370371,1.0996999999992596],[-0.043333333333333356,-0.5342592592592592,1.1163000000007486],[-0.02010416666666662,-0.5353703703703704,1.1330999999977678],[-0.0005208333333333333,-0.544074074074074,1.1496999999992568],[0.01604166666666664,-0.5349999999999999,1.1663999999985109],[0.024791666666666618,-0.5246296296296297,1.1870999999977627],[0.02010416666666662,-0.5361111111111111,1.202300000000747],[0.018124999999999978,-0.5272222222222221,1.216399999998508],[0.027499999999999976,-0.5316666666666667,1.2330999999977692],[0.027499999999999976,-0.5316666666666667,1.2498000000007465],[0.033854166666666664,-0.5253703703703704,1.2665000000000006],[0.03999999999999997,-0.5320370370370371,1.2861999999992548],[0.05364583333333333,-0.5444444444444444,1.3018000000007461],[0.07052083333333338,-0.5846296296296296,1.3163000000007443],[0.05677083333333333,-0.5825925925925927,1.3329999999999984],[0.029166666666666667,-0.5761111111111111,1.349800000000748],[0.02666666666666669,-0.5777777777777777,1.3663999999985137],[0.02666666666666669,-0.5777777777777777,1.3831999999992561],[0.0328125,-0.5738888888888889,1.3998999999985102],[0.02374999999999995,-0.5925925925925926,1.4163000000007457],[0.02374999999999995,-0.5925925925925926,1.4358999999985116],[0.03583333333333331,-0.5492592592592593,1.4500000000000028],[0.04750000000000002,-0.527962962962963,1.468599999997764],[0.04750000000000002,-0.527962962962963,1.4876999999992577],[0.05520833333333333,-0.5107407407407407,1.4998999999985116],[0.03875000000000005,-0.48055555555555557,1.5165000000000006],[0.006458333333333381,-0.4316666666666667,1.5331999999992547],[0.008437500000000023,-0.41740740740740734,1.552199999999253],[0.06166666666666672,-0.39277777777777784,1.566599999997763],[0.09760416666666671,-0.36129629629629634,1.583199999999259],[0.1321875000000001,-0.31444444444444447,1.599800000000748],[0.16291666666666677,-0.2681481481481482,1.6188000000007463],[0.19249999999999995,-0.2942592592592592,1.6331999999992561],[0.23145833333333338,-0.3098148148148148,1.6498999999985102],[0.25187499999999996,-0.3109259259259259,1.6691999999992575],[0.25187499999999996,-0.3109259259259259,1.6835000000000022],[0.29583333333333334,-0.32462962962962966,1.700099999997768],[0.353125,-0.3538888888888889,1.7201999999992594],[0.40635416666666657,-0.4057407407407408,1.7349999999999994],[0.4014583333333334,-0.46055555555555555,1.7496999999992582],[0.396875,-0.4859259259259259,1.7663999999985123],[0.39385416666666656,-0.5264814814814816,1.7835999999977687],[0.3962500000000001,-0.5337037037037037,1.7996999999992553],[0.36729166666666657,-0.5172222222222222,1.8163000000007443],[0.34874999999999995,-0.5164814814814814,1.833199999999259],[0.34520833333333345,-0.5207407407407407,1.853199999999255],[0.33645833333333336,-0.5087037037037037,1.8718000000007464],[0.32395833333333335,-0.4892592592592592,1.8870999999977656],[0.31281249999999994,-0.4492592592592593,1.903800000000743],[0.3085416666666667,-0.4166666666666667,1.9188000000007435],[0.30437500000000006,-0.41462962962962957,1.9329999999999998],[0.28760416666666655,-0.39962962962962967,1.951599999997768],[0.3051041666666668,-0.4124074074074074,1.9665000000000035],[0.33572916666666663,-0.4366666666666667,1.983300000000746],[0.3311458333333334,-0.43944444444444447,2.002199999999256],[0.3311458333333334,-0.43944444444444447,2.0163999999985123],[0.3415625000000001,-0.4401851851851852,2.033300000000743],[0.35666666666666674,-0.45185185185185184,2.0515000000000043],[0.38083333333333325,-0.4818518518518518,2.066499999999998],[0.38083333333333325,-0.4818518518518518,2.083500000000001],[0.40770833333333345,-0.5098148148148148,2.1033000000007434],[0.4203125,-0.5266666666666666,2.1166999999992555],[0.41510416666666666,-0.5257407407407407,2.133199999999256],[0.42249999999999993,-0.5377777777777777,2.151699999999259],[0.39208333333333345,-0.5003703703703704,2.166499999999999],[0.37604166666666666,-0.43629629629629635,2.183399999998514],[0.36958333333333326,-0.35907407407407405,2.2035999999977633],[0.36958333333333326,-0.35907407407407405,2.2165999999977686],[0.3477083333333333,-0.3127777777777777,2.2331999999992576],[0.32687499999999997,-0.28129629629629627,2.2498000000007465],[0.32687499999999997,-0.28129629629629627,2.2663999999985123],[0.30791666666666656,-0.21648148148148144,2.2830999999977664],[0.26541666666666663,-0.15833333333333333,2.3005999999977647],[0.23718750000000005,-0.11129629629629634,2.316899999998512],[0.2525000000000001,-0.0764814814814815,2.3330999999977635],[0.2678124999999999,-0.041666666666666664,2.3496999999992596],[0.3021874999999999,-0.02240740740740745,2.3663999999985137],[0.3021874999999999,-0.02240740740740745,2.383099999997768],[0.309375,-0.018518518518518517,2.399800000000745],[0.32177083333333345,-0.07259259259259257,2.417199999999255],[0.31520833333333326,-0.06148148148148146,2.4340000000000046],[0.31520833333333326,-0.05740740740740741,2.4498999999985145],[0.30416666666666664,-0.0418518518518519,2.466300000000743],[0.30416666666666664,-0.0418518518518519,2.483099999997769],[0.31666666666666665,-0.01962962962962967,2.499699999999258],[0.34958333333333325,-0.01574074074074074,2.516300000000747],[0.35354166666666675,-0.005185185185185101,2.5330000000000013],[0.35750000000000004,0.005370370370370328,2.5496999999992553],[0.3381249999999999,-0.01314814814814819,2.5663000000007443],[0.3389583333333334,-0.0507407407407407,2.586899999998508],[0.30447916666666663,-0.04611111111111107,2.6003999999985083],[0.28802083333333334,-0.07000000000000002,2.6163999999985137],[0.28104166666666663,-0.039629629629629584,2.6330000000000027],[0.2741666666666667,-0.035740740740740656,2.6496999999992568],[0.2560416666666666,-0.02814814814814823,2.6688999999985086],[0.2560416666666666,-0.02814814814814823,2.683099999997765],[0.2131249999999999,0.008703703703703788,2.6998000000007494],[0.1772916666666667,0.025370370370370456,2.716399999998508],[0.14458333333333329,0.03611111111111111,2.7338000000007483],[0.13333333333333333,0.05962962962962971,2.749699999999258],[0.11333333333333329,0.12777777777777777,2.7663999999985123],[0.11208333333333324,0.1925925925925926,2.783399999998508],[0.1271874999999999,0.22629629629629638,2.799899999998509]]","[0.000199999999253464,0.01669999999925409,0.03309999999776636,0.04969999999925534,0.06639999999850943,0.08330000000074733,0.0996999999992596,0.11639999999851369,0.13319999999925614,0.14999999999999858,0.16639999999851085,0.1831999999992533,0.19980000000074938,0.21650000000000347,0.2330999999977692,0.24980000000074654,0.26659999999776574,0.28330000000074307,0.3003999999985112,0.3164999999999978,0.3330999999977635,0.34980000000074796,0.3663999999985137,0.3830999999977678,0.3998000000007451,0.4170999999977667,0.43309999999776494,0.4498000000007494,0.466399999998508,0.4873000000007437,0.5023999999985094,0.5163999999985123,0.5330999999977664,0.5496999999992553,0.5663999999985094,0.583199999999259,0.5996999999992596,0.6163999999985137,0.6330999999977678,0.6498000000007451,0.6691999999992575,0.6830999999977649,0.6998000000007494,0.7165999999977686,0.7330999999977692,0.7496999999992582,0.7670999999977681,0.7830999999977664,0.7996999999992553,0.8163000000007443,0.8330999999977635,0.8496999999992596,0.8693999999985138,0.8845000000000027,0.9048999999985128,0.9275999999977671,0.9368999999985093,0.9498000000007494,0.9665000000000035,0.9831999999992576,0.9998000000007465,1.0163999999985123,1.0330000000000013,1.0496999999992553,1.0663999999985094,1.086199999999259,1.0996999999992596,1.1163000000007486,1.1330999999977678,1.1496999999992568,1.1663999999985109,1.1870999999977627,1.202300000000747,1.216399999998508,1.2330999999977692,1.2498000000007465,1.2665000000000006,1.2861999999992548,1.3018000000007461,1.3163000000007443,1.3329999999999984,1.349800000000748,1.3663999999985137,1.3831999999992561,1.3998999999985102,1.4163000000007457,1.4358999999985116,1.4500000000000028,1.468599999997764,1.4876999999992577,1.4998999999985116,1.5165000000000006,1.5331999999992547,1.552199999999253,1.566599999997763,1.583199999999259,1.599800000000748,1.6188000000007463,1.6331999999992561,1.6498999999985102,1.6691999999992575,1.6835000000000022,1.700099999997768,1.7201999999992594,1.7349999999999994,1.7496999999992582,1.7663999999985123,1.7835999999977687,1.7996999999992553,1.8163000000007443,1.833199999999259,1.853199999999255,1.8718000000007464,1.8870999999977656,1.903800000000743,1.9188000000007435,1.9329999999999998,1.951599999997768,1.9665000000000035,1.983300000000746,2.002199999999256,2.0163999999985123,2.033300000000743,2.0515000000000043,2.066499999999998,2.083500000000001,2.1033000000007434,2.1166999999992555,2.133199999999256,2.151699999999259,2.166499999999999,2.183399999998514,2.2035999999977633,2.2165999999977686,2.2331999999992576,2.2498000000007465,2.2663999999985123,2.2830999999977664,2.3005999999977647,2.316899999998512,2.3330999999977635,2.3496999999992596,2.3663999999985137,2.383099999997768,2.399800000000745,2.417199999999255,2.4340000000000046,2.4498999999985145,2.466300000000743,2.483099999997769,2.499699999999258,2.516300000000747,2.5330000000000013,2.5496999999992553,2.5663000000007443,2.586899999998508,2.6003999999985083,2.6163999999985137,2.6330000000000027,2.6496999999992568,2.6688999999985086,2.683099999997765,2.6998000000007494,2.716399999998508,2.7338000000007483,2.749699999999258,2.7663999999985123,2.783399999998508,2.799899999998509]","[1733131511174,1733131511188,1733131511205,1733131511221,1733131511238,1733131511255,1733131511271,1733131511288,1733131511305,1733131511322,1733131511338,1733131511355,1733131511371,1733131511388,1733131511405,1733131511421,1733131511438,1733131511455,1733131511472,1733131511488,1733131511505,1733131511521,1733131511538,1733131511555,1733131511571,1733131511589,1733131511605,1733131511621,1733131511638,1733131511659,1733131511674,1733131511688,1733131511705,1733131511721,1733131511738,1733131511755,1733131511771,1733131511788,1733131511805,1733131511821,1733131511841,1733131511855,1733131511871,1733131511888,1733131511905,1733131511921,1733131511939,1733131511955,1733131511971,1733131511988,1733131512005,1733131512021,1733131512041,1733131512056,1733131512077,1733131512099,1733131512108,1733131512121,1733131512138,1733131512155,1733131512171,1733131512188,1733131512205,1733131512221,1733131512238,1733131512258,1733131512271,1733131512288,1733131512305,1733131512321,1733131512338,1733131512359,1733131512374,1733131512388,1733131512405,1733131512421,1733131512438,1733131512458,1733131512473,1733131512488,1733131512505,1733131512521,1733131512538,1733131512555,1733131512572,1733131512588,1733131512608,1733131512622,1733131512640,1733131512659,1733131512672,1733131512688,1733131512705,1733131512724,1733131512738,1733131512755,1733131512771,1733131512790,1733131512805,1733131512822,1733131512841,1733131512855,1733131512872,1733131512892,1733131512907,1733131512921,1733131512938,1733131512955,1733131512971,1733131512988,1733131513005,1733131513025,1733131513044,1733131513059,1733131513075,1733131513091,1733131513105,1733131513123,1733131513138,1733131513155,1733131513174,1733131513188,1733131513205,1733131513223,1733131513238,1733131513255,1733131513275,1733131513288,1733131513305,1733131513323,1733131513338,1733131513355,1733131513375,1733131513388,1733131513405,1733131513421,1733131513438,1733131513455,1733131513472,1733131513489,1733131513505,1733131513521,1733131513538,1733131513555,1733131513571,1733131513589,1733131513606,1733131513621,1733131513638,1733131513655,1733131513671,1733131513688,1733131513705,1733131513721,1733131513738,1733131513759,1733131513772,1733131513788,1733131513805,1733131513821,1733131513841,1733131513855,1733131513871,1733131513888,1733131513905,1733131513921,1733131513938,1733131513955,1733131513972]","[[819.2,400.9],[832.5,392.5],[803,392.7],[791.4,391.3],[803.4,391.3],[803.4,391.3],[812.4,375.5],[808.8,377.4],[826.7,361.5],[831.1,340.7],[831.9,328.9],[831.9,328.9],[819.9,317.6],[775.8,322.8],[788.3,326.4],[795,320.9],[804.2,320.2],[795.4,328],[789.5,312.5],[762.1,314.8],[741,345.9],[723.7,366.6],[708.6,385.8],[715,398],[700.9,415.8],[686.8,433.6],[629.6,440.9],[615.1,450.5],[627.5,469.1],[628.8,505.6],[652.6,517.9],[676.2,531.6],[694.5,544.5],[712.8,557.4],[729.6,581.2],[746.4,605],[812.4,611.6],[833.5,620.7],[826.8,651.4],[831.2,664.2],[815.2,649.4],[815.2,649.4],[801.3,666.6],[769.4,653.7],[773.3,661.1],[779.4,653.2],[771.8,606.6],[745.4,590.1],[759.1,564.1],[757.8,533.6],[765.5,510.5],[773,521],[774.6,478.5],[774.6,478.5],[797.3,468.4],[797.3,468.4],[800.4,426],[800.4,426],[809.5,375.4],[809.5,375.4],[836.7,372.2],[836.7,372.2],[861.3,358],[861.3,358],[869.4,340.7],[886.9,313.2],[902.8,282.4],[918.4,251.5],[940.7,250.9],[959.5,246.2],[975.4,251.1],[983.8,256.7],[979.3,250.5],[977.4,255.3],[986.4,252.9],[986.4,252.9],[992.5,256.3],[998.4,252.7],[1011.5,246],[1027.7,224.3],[1014.5,225.4],[988,228.9],[985.6,228],[985.6,228],[991.5,230.1],[982.8,220],[982.8,220],[994.4,243.4],[1005.6,254.9],[1005.6,254.9],[1013,264.2],[997.2,280.5],[966.2,306.9],[968.1,314.6],[1019.2,327.9],[1053.7,344.9],[1086.9,370.2],[1116.4,395.2],[1144.8,381.1],[1182.2,372.7],[1201.8,372.1],[1201.8,372.1],[1244,364.7],[1299,348.9],[1350.1,320.9],[1345.4,291.3],[1341,277.6],[1338.1,255.7],[1340.4,251.8],[1312.6,260.7],[1294.8,261.1],[1291.4,258.8],[1283,265.3],[1271,275.8],[1260.3,297.4],[1256.2,315],[1252.2,316.1],[1236.1,324.2],[1252.9,317.3],[1282.3,304.2],[1277.9,302.7],[1277.9,302.7],[1287.9,302.3],[1302.4,296],[1325.6,279.8],[1325.6,279.8],[1351.4,264.7],[1363.5,255.6],[1358.5,256.1],[1365.6,249.6],[1336.4,269.8],[1321,304.4],[1314.8,346.1],[1314.8,346.1],[1293.8,371.1],[1273.8,388.1],[1273.8,388.1],[1255.6,423.1],[1214.8,454.5],[1187.7,479.9],[1202.4,498.7],[1217.1,517.5],[1250.1,527.9],[1250.1,527.9],[1257,530],[1268.9,500.8],[1262.6,506.8],[1262.6,509],[1252,517.4],[1252,517.4],[1264,529.4],[1295.6,531.5],[1299.4,537.2],[1303.2,542.9],[1284.6,532.9],[1285.4,512.6],[1252.3,515.1],[1236.5,502.2],[1229.8,518.6],[1223.2,520.7],[1205.8,524.8],[1205.8,524.8],[1164.6,544.7],[1130.2,553.7],[1098.8,559.5],[1088,572.2],[1068.8,609],[1067.6,644],[1082.1,662.2]]","[0,0.5333]","[0.5333,0.5333]","[-0.5333,-0.5333]","[-0.5333,0]","[0,-0.5333]","[0.5333,-0.5333]","[0,0]","[0.5333,0]",0,1,1,1,1,3,Monitor,5,5,13,7
