inst1_resp.keys,inst1_resp.rt,calibrationMouse.x,calibrationMouse.y,calibrationMouse.leftButton,calibrationMouse.midButton,calibrationMouse.rightButton,calibrationClick.x,calibrationClick.y,calibrationClick.leftButton,calibrationClick.midButton,calibrationClick.rightButton,calibrationClick.clicked_name,trialsc.thisRepN,trialsc.thisTrialN,trialsc.thisN,trialsc.thisIndex,trialsc.ran,calibration_x,calibration_y,participant,session,date,expName,psychopyVersion,OS,frameRate,ScreenRes_pixels,Camera_pixels,mouse_2.x,mouse_2.y,mouse_2.leftButton,mouse_2.midButton,mouse_2.rightButton,mouse_2.time,mouse_2.clicked_name,mouse.x,mouse.y,mouse.leftButton,mouse.midButton,mouse.rightButton,mouse.time,mouse.clicked_name,Choice,Trial,TrialDuration,MOUSE_GAZE,ET_GAZE,ET_GAZE_x_T,time,unixTime,ET_GAZE_NF,Loc_Option1_label,Loc_Option2_label,Loc_Cost_label,Loc_Qual_label,Loc_Option1_cost,Loc_Option2_cost,Loc_Option1_quality,Loc_Option2_quality,trials.thisRepN,trials.thisTrialN,trials.thisN,trials.thisIndex,trials.ran,Block,Device,cost1,qual1,cost2,qual2
space,2.533,0.05625,0.1,1,0,0,-0.677083333,-0.661111111,1,0,0,calibration_square,0,0,0,0,1,-0.67,-0.67,38,001,2024-12-04_11h49.12.854,Attention_exp_legacy,2023.1.0,Win32,59.88023952,,,,,,,,,,,,,,,,,,,,,,,,,,,,,,,,,,,,,,,,,,,,
,,,,,,,0.328125,-0.314814815,1,0,0,,0,1,1,15,1,0.33,-0.33,38,001,2024-12-04_11h49.12.854,Attention_exp_legacy,2023.1.0,Win32,59.88023952,,,,,,,,,,,,,,,,,,,,,,,,,,,,,,,,,,,,,,,,,,,,
,,,,,,,-0.001041667,-0.335185185,1,0,0,calibration_square,0,2,2,10,1,0,-0.33,38,001,2024-12-04_11h49.12.854,Attention_exp_legacy,2023.1.0,Win32,59.88023952,,,,,,,,,,,,,,,,,,,,,,,,,,,,,,,,,,,,,,,,,,,,
,,,,,,,-0.007291667,0.322222222,1,0,0,calibration_square,0,3,3,12,1,0,0.33,38,001,2024-12-04_11h49.12.854,Attention_exp_legacy,2023.1.0,Win32,59.88023952,,,,,,,,,,,,,,,,,,,,,,,,,,,,,,,,,,,,,,,,,,,,
,,,,,,,0.003125,0.003703704,1,0,0,calibration_square,0,4,4,11,1,0,0,38,001,2024-12-04_11h49.12.854,Attention_exp_legacy,2023.1.0,Win32,59.88023952,,,,,,,,,,,,,,,,,,,,,,,,,,,,,,,,,,,,,,,,,,,,
,,,,,,,-0.321875,-0.003703704,1,0,0,calibration_square,0,5,5,6,1,-0.33,0,38,001,2024-12-04_11h49.12.854,Attention_exp_legacy,2023.1.0,Win32,59.88023952,,,,,,,,,,,,,,,,,,,,,,,,,,,,,,,,,,,,,,,,,,,,
,,,,,,,0.666666667,0.666666667,1,0,0,calibration_square,0,6,6,19,1,0.67,0.67,38,001,2024-12-04_11h49.12.854,Attention_exp_legacy,2023.1.0,Win32,59.88023952,,,,,,,,,,,,,,,,,,,,,,,,,,,,,,,,,,,,,,,,,,,,
,,,,,,,0.338541667,-0.001851852,1,0,0,calibration_square,0,7,7,16,1,0.33,0,38,001,2024-12-04_11h49.12.854,Attention_exp_legacy,2023.1.0,Win32,59.88023952,,,,,,,,,,,,,,,,,,,,,,,,,,,,,,,,,,,,,,,,,,,,
,,,,,,,0.332291667,0.340740741,1,0,0,,0,8,8,17,1,0.33,0.33,38,001,2024-12-04_11h49.12.854,Attention_exp_legacy,2023.1.0,Win32,59.88023952,,,,,,,,,,,,,,,,,,,,,,,,,,,,,,,,,,,,,,,,,,,,
,,,,,,,-0.677083333,0,1,0,0,calibration_square,0,9,9,2,1,-0.67,0,38,001,2024-12-04_11h49.12.854,Attention_exp_legacy,2023.1.0,Win32,59.88023952,,,,,,,,,,,,,,,,,,,,,,,,,,,,,,,,,,,,,,,,,,,,
,,,,,,,-0.332291667,-0.668518519,1,0,0,calibration_square,0,10,10,4,1,-0.33,-0.67,38,001,2024-12-04_11h49.12.854,Attention_exp_legacy,2023.1.0,Win32,59.88023952,,,,,,,,,,,,,,,,,,,,,,,,,,,,,,,,,,,,,,,,,,,,
,,,,,,,-0.322916667,0.683333333,1,0,0,,0,11,11,8,1,-0.33,0.67,38,001,2024-12-04_11h49.12.854,Attention_exp_legacy,2023.1.0,Win32,59.88023952,,,,,,,,,,,,,,,,,,,,,,,,,,,,,,,,,,,,,,,,,,,,
,,,,,,,0.34375,-0.668518519,1,0,0,,0,12,12,14,1,0.33,-0.67,38,001,2024-12-04_11h49.12.854,Attention_exp_legacy,2023.1.0,Win32,59.88023952,,,,,,,,,,,,,,,,,,,,,,,,,,,,,,,,,,,,,,,,,,,,
,,,,,,,0.003125,0.688888889,1,0,0,,0,13,13,13,1,0,0.67,38,001,2024-12-04_11h49.12.854,Attention_exp_legacy,2023.1.0,Win32,59.88023952,,,,,,,,,,,,,,,,,,,,,,,,,,,,,,,,,,,,,,,,,,,,
,,,,,,,-0.655208333,0.340740741,1,0,0,,0,14,14,3,1,-0.67,0.33,38,001,2024-12-04_11h49.12.854,Attention_exp_legacy,2023.1.0,Win32,59.88023952,,,,,,,,,,,,,,,,,,,,,,,,,,,,,,,,,,,,,,,,,,,,
,,,,,,,-0.009375,-0.666666667,1,0,0,calibration_square,0,15,15,9,1,0,-0.67,38,001,2024-12-04_11h49.12.854,Attention_exp_legacy,2023.1.0,Win32,59.88023952,,,,,,,,,,,,,,,,,,,,,,,,,,,,,,,,,,,,,,,,,,,,
,,,,,,,0.670833333,-0.657407407,1,0,0,,0,16,16,20,1,0.67,-0.67,38,001,2024-12-04_11h49.12.854,Attention_exp_legacy,2023.1.0,Win32,59.88023952,,,,,,,,,,,,,,,,,,,,,,,,,,,,,,,,,,,,,,,,,,,,
,,,,,,,-0.31875,-0.331481481,1,0,0,,0,17,17,5,1,-0.33,-0.33,38,001,2024-12-04_11h49.12.854,Attention_exp_legacy,2023.1.0,Win32,59.88023952,,,,,,,,,,,,,,,,,,,,,,,,,,,,,,,,,,,,,,,,,,,,
,,,,,,,0.330208333,0.67037037,1,0,0,calibration_square,0,18,18,18,1,0.33,0.67,38,001,2024-12-04_11h49.12.854,Attention_exp_legacy,2023.1.0,Win32,59.88023952,,,,,,,,,,,,,,,,,,,,,,,,,,,,,,,,,,,,,,,,,,,,
,,,,,,,-0.658333333,-0.325925926,1,0,0,,0,19,19,1,1,-0.67,-0.33,38,001,2024-12-04_11h49.12.854,Attention_exp_legacy,2023.1.0,Win32,59.88023952,,,,,,,,,,,,,,,,,,,,,,,,,,,,,,,,,,,,,,,,,,,,
,,,,,,,-0.334375,0.331481481,1,0,0,calibration_square,0,20,20,7,1,-0.33,0.33,38,001,2024-12-04_11h49.12.854,Attention_exp_legacy,2023.1.0,Win32,59.88023952,,,,,,,,,,,,,,,,,,,,,,,,,,,,,,,,,,,,,,,,,,,,
,,,,,,,,,,,,,,,,,,,,38,001,2024-12-04_11h49.12.854,Attention_exp_legacy,2023.1.0,Win32,59.88023952,"[1920,1080]","[640,480]",[0.03125],[-0.5],[1],[0],[0],[2.713300000004473],"[""StartButton""]",[0.065625],[0.4444444444444444],[1],[0],[0],[2.6378999999985098],"[""Option1_label""]",Option1_label,1,3.662,"[[0.023958333333333335,0.14814814814814814],[0.023958333333333335,0.14814814814814814],[0.023958333333333335,0.14814814814814814],[0.023958333333333335,0.14814814814814814],[0.023958333333333335,0.14814814814814814],[0.023958333333333335,0.14814814814814814],[0.023958333333333335,0.14814814814814814],[0.023958333333333335,0.14814814814814814],[0.023958333333333335,0.14814814814814814],[0.023958333333333335,0.14814814814814814],[0.023958333333333335,0.14814814814814814],[0.023958333333333335,0.14814814814814814],[0.023958333333333335,0.14814814814814814],[0.023958333333333335,0.14814814814814814],[0.023958333333333335,0.14814814814814814],[0.023958333333333335,0.14814814814814814],[0.023958333333333335,0.14814814814814814],[0.023958333333333335,0.14814814814814814],[0.023958333333333335,0.14814814814814814],[0.023958333333333335,0.14814814814814814],[0.023958333333333335,0.14814814814814814],[0.023958333333333335,0.14814814814814814],[0.023958333333333335,0.14814814814814814],[0.023958333333333335,0.14814814814814814],[0.023958333333333335,0.14814814814814814],[0.023958333333333335,0.14814814814814814],[0.023958333333333335,0.14814814814814814],[0.023958333333333335,0.14814814814814814],[0.023958333333333335,0.14814814814814814],[0.023958333333333335,0.14814814814814814],[0.023958333333333335,0.14814814814814814],[0.023958333333333335,0.14814814814814814],[0.023958333333333335,0.14814814814814814],[0.023958333333333335,0.14814814814814814],[0.023958333333333335,0.14814814814814814],[0.023958333333333335,0.14814814814814814],[0.023958333333333335,0.14814814814814814],[0.023958333333333335,0.14814814814814814],[0.023958333333333335,0.14814814814814814],[0.023958333333333335,0.14814814814814814],[0.023958333333333335,0.14814814814814814],[0.023958333333333335,0.14814814814814814],[0.023958333333333335,0.14814814814814814],[0.023958333333333335,0.14814814814814814],[0.023958333333333335,0.14814814814814814],[0.023958333333333335,0.14814814814814814],[0.023958333333333335,0.14814814814814814],[0.023958333333333335,0.14814814814814814],[0.023958333333333335,0.14814814814814814],[0.023958333333333335,0.14814814814814814],[0.023958333333333335,0.14814814814814814],[0.023958333333333335,0.14814814814814814],[0.023958333333333335,0.14814814814814814],[0.023958333333333335,0.14814814814814814],[0.023958333333333335,0.14814814814814814],[0.023958333333333335,0.14814814814814814],[0.023958333333333335,0.14814814814814814],[0.023958333333333335,0.14814814814814814],[0.023958333333333335,0.14814814814814814],[0.023958333333333335,0.14814814814814814],[0.023958333333333335,0.14814814814814814],[0.023958333333333335,0.14814814814814814],[0.023958333333333335,0.14814814814814814],[0.023958333333333335,0.14814814814814814],[0.023958333333333335,0.14814814814814814],[0.023958333333333335,0.14814814814814814],[0.023958333333333335,0.14814814814814814],[0.023958333333333335,0.14814814814814814],[0.023958333333333335,0.14814814814814814],[0.023958333333333335,0.14814814814814814],[0.023958333333333335,0.14814814814814814],[0.023958333333333335,0.14814814814814814],[0.023958333333333335,0.14814814814814814],[0.023958333333333335,0.14814814814814814],[0.023958333333333335,0.14814814814814814],[0.023958333333333335,0.14814814814814814],[0.023958333333333335,0.14814814814814814],[0.023958333333333335,0.14814814814814814],[0.023958333333333335,0.14814814814814814],[0.023958333333333335,0.14814814814814814],[0.023958333333333335,0.14814814814814814],[0.023958333333333335,0.14814814814814814],[0.023958333333333335,0.14814814814814814],[0.023958333333333335,0.14814814814814814],[0.023958333333333335,0.14814814814814814],[0.023958333333333335,0.14814814814814814],[0.023958333333333335,0.14814814814814814],[0.023958333333333335,0.14814814814814814],[0.023958333333333335,0.14814814814814814],[0.023958333333333335,0.1425925925925926],[0.023958333333333335,0.14074074074074075],[0.023958333333333335,0.13703703703703704],[0.023958333333333335,0.13703703703703704],[0.023958333333333335,0.13333333333333333],[0.023958333333333335,0.13333333333333333],[0.025,0.12962962962962962],[0.025,0.12962962962962962],[0.025,0.1259259259259259],[0.025,0.1259259259259259],[0.026041666666666668,0.12407407407407407],[0.027083333333333334,0.12037037037037036],[0.027083333333333334,0.12037037037037036],[0.028125,0.11851851851851852],[0.028125,0.11851851851851852],[0.030208333333333334,0.11481481481481481],[0.030208333333333334,0.1111111111111111],[0.03125,0.1111111111111111],[0.03125,0.1111111111111111],[0.03229166666666667,0.10740740740740741],[0.03229166666666667,0.10740740740740741],[0.03229166666666667,0.10740740740740741],[0.03229166666666667,0.10740740740740741],[0.03229166666666667,0.10740740740740741],[0.03229166666666667,0.10740740740740741],[0.03229166666666667,0.10740740740740741],[0.03229166666666667,0.10740740740740741],[0.03229166666666667,0.10740740740740741],[0.03229166666666667,0.10740740740740741],[0.03229166666666667,0.10740740740740741],[0.03229166666666667,0.10740740740740741],[0.03229166666666667,0.10740740740740741],[0.03229166666666667,0.10740740740740741],[0.03229166666666667,0.10740740740740741],[0.03229166666666667,0.10740740740740741],[0.03229166666666667,0.10740740740740741],[0.03229166666666667,0.10740740740740741],[0.03333333333333333,0.10740740740740741],[0.036458333333333336,0.10740740740740741],[0.03958333333333333,0.10740740740740741],[0.04479166666666667,0.10740740740740741],[0.052083333333333336,0.10925925925925926],[0.058333333333333334,0.1111111111111111],[0.0625,0.11481481481481481],[0.06770833333333333,0.12407407407407407],[0.07291666666666667,0.1425925925925926],[0.07395833333333333,0.15925925925925927],[0.07708333333333334,0.17222222222222222],[0.078125,0.17962962962962964],[0.07916666666666666,0.1814814814814815],[0.07916666666666666,0.18703703703703703],[0.07916666666666666,0.1925925925925926],[0.07916666666666666,0.20185185185185187],[0.07916666666666666,0.21481481481481482],[0.07916666666666666,0.23148148148148148],[0.07916666666666666,0.2462962962962963],[0.07916666666666666,0.26296296296296295],[0.07916666666666666,0.29444444444444445],[0.07916666666666666,0.32407407407407407],[0.07395833333333333,0.36666666666666664],[0.06979166666666667,0.40185185185185185],[0.06875,0.4166666666666667],[0.06770833333333333,0.42962962962962964],[0.06666666666666667,0.43703703703703706],[0.065625,0.44074074074074077],[0.065625,0.4444444444444444],[0.065625,0.4444444444444444],[0.065625,0.4444444444444444],[0.065625,0.4444444444444444],[0.065625,0.4444444444444444],[0.065625,0.4444444444444444],[0.065625,0.4444444444444444],[0.065625,0.4444444444444444],[0.065625,0.4444444444444444],[0.065625,0.4444444444444444],[0.065625,0.4444444444444444],[0.065625,0.4444444444444444],[0.065625,0.4444444444444444],[0.065625,0.4444444444444444],[0.065625,0.4444444444444444],[0.065625,0.4444444444444444],[0.065625,0.4444444444444444],[0.065625,0.4444444444444444],[0.065625,0.4444444444444444],[0.065625,0.4444444444444444],[0.065625,0.4444444444444444],[0.065625,0.4444444444444444],[0.065625,0.4444444444444444],[0.065625,0.4444444444444444],[0.065625,0.4444444444444444],[0.065625,0.4444444444444444],[0.065625,0.4444444444444444],[0.065625,0.4444444444444444],[0.065625,0.4444444444444444],[0.065625,0.4444444444444444],[0.065625,0.4444444444444444],[0.065625,0.4444444444444444],[0.065625,0.4444444444444444],[0.065625,0.4444444444444444],[0.065625,0.4444444444444444],[0.065625,0.4444444444444444],[0.065625,0.4444444444444444],[0.065625,0.4444444444444444],[0.065625,0.4444444444444444],[0.065625,0.4444444444444444],[0.065625,0.4444444444444444],[0.065625,0.4444444444444444],[0.065625,0.4444444444444444],[0.065625,0.4444444444444444],[0.065625,0.4444444444444444],[0.065625,0.4444444444444444],[0.065625,0.4444444444444444],[0.065625,0.4444444444444444],[0.065625,0.4444444444444444],[0.065625,0.4444444444444444],[0.065625,0.4444444444444444],[0.065625,0.4444444444444444],[0.065625,0.4444444444444444],[0.065625,0.4444444444444444],[0.065625,0.4444444444444444],[0.065625,0.4444444444444444],[0.065625,0.4444444444444444],[0.065625,0.4444444444444444],[0.065625,0.4444444444444444],[0.065625,0.4444444444444444],[0.065625,0.4444444444444444],[0.065625,0.4444444444444444],[0.065625,0.4444444444444444],[0.065625,0.4444444444444444],[0.065625,0.4444444444444444],[0.065625,0.4444444444444444]]","[[-0.05802083333333338,-0.2522222222222222],[-0.05802083333333338,-0.2522222222222222],[-0.10229166666666671,-0.2748148148148148],[-0.09874999999999995,-0.28185185185185185],[-0.10520833333333333,-0.2916666666666667],[-0.10968749999999995,-0.2757407407407407],[-0.1141666666666667,-0.25981481481481483],[-0.11364583333333336,-0.3005555555555556],[-0.11114583333333337,-0.34074074074074073],[-0.10864583333333329,-0.3809259259259259],[-0.10479166666666669,-0.3811111111111111],[-0.09322916666666667,-0.3827777777777778],[-0.07958333333333331,-0.4305555555555556],[-0.08145833333333338,-0.44351851851851853],[-0.049687500000000044,-0.41],[-0.025,-0.4111111111111111],[-0.004479166666666619,-0.3937037037037037],[-0.01885416666666669,-0.4316666666666667],[-0.041666666666666664,-0.4727777777777778],[-0.021458333333333357,-0.44537037037037036],[0.014895833333333285,-0.42592592592592593],[0.007395833333333357,-0.45092592592592595],[0.0013541666666666192,-0.4235185185185185],[0.02010416666666662,-0.3864814814814815],[0.010625000000000048,-0.3787037037037037],[0.009791666666666643,-0.3116666666666667],[-0.002708333333333357,-0.2683333333333333],[0.03447916666666669,-0.08666666666666668],[0.07166666666666661,0.07814814814814823],[0.06458333333333334,0.14962962962962956],[0.042812500000000024,0.22074074074074082],[0.08177083333333333,0.30648148148148147],[0.1131249999999999,0.3744444444444445],[0.12843749999999995,0.4112962962962963],[0.13770833333333338,0.41648148148148145],[0.1349999999999999,0.36444444444444435],[0.13270833333333343,0.2712962962962963],[0.12364583333333339,0.17018518518518513],[0.14802083333333324,0.06759259259259259],[0.1736458333333334,-0.010185185185185186],[0.2181250000000001,-0.049629629629629544],[0.2522916666666667,-0.09000000000000004],[0.2864583333333333,-0.13037037037037033],[0.30625,-0.16351851851851854],[0.30625,-0.16351851851851854],[0.3366666666666667,-0.1794444444444444],[0.3784374999999999,-0.18592592592592588],[0.3784374999999999,-0.18592592592592588],[0.4332291666666668,-0.16962962962962966],[0.4332291666666668,-0.16962962962962966],[0.39739583333333334,-0.21240740740740738],[0.39739583333333334,-0.21240740740740738],[0.3260416666666667,-0.19166666666666668],[0.3260416666666667,-0.19166666666666668],[0.24447916666666672,-0.1507407407407407],[0.24447916666666672,-0.1507407407407407],[0.16145833333333334,-0.17018518518518513],[0.16145833333333334,-0.17018518518518513],[0.06635416666666671,-0.15851851851851856],[-0.06656249999999998,-0.1809259259259259],[-0.1842708333333333,-0.23037037037037034],[-0.2579166666666667,-0.2603703703703704],[-0.3329166666666667,-0.2433333333333333],[-0.42239583333333336,-0.24666666666666665],[-0.4305208333333333,-0.23796296296296296],[-0.428125,-0.2712962962962963],[-0.39572916666666663,-0.26351851851851854],[-0.390625,-0.23499999999999996],[-0.380625,-0.21481481481481482],[-0.33562500000000006,-0.17888888888888893],[-0.29145833333333326,-0.12314814814814815],[-0.29270833333333335,-0.08574074074074076],[-0.3039583333333333,-0.10481481481481486],[-0.29312499999999997,-0.08740740740740739],[-0.2919791666666666,-0.06074074074074076],[-0.3095833333333334,-0.04203703703703712],[-0.34697916666666667,-0.08462962962962961],[-0.34697916666666667,-0.08462962962962961],[-0.3064583333333334,-0.12388888888888884],[-0.32083333333333336,-0.1235185185185185],[-0.33239583333333333,-0.10481481481481486],[-0.34395833333333337,-0.08611111111111111],[-0.299375,-0.06092592592592588],[-0.2673958333333334,-0.07148148148148152],[-0.19427083333333334,-0.06444444444444447],[-0.12114583333333329,-0.05740740740740741],[-0.030520833333333285,-0.04129629629629621],[0.024583333333333356,-0.03814814814814819],[0.03291666666666669,-0.03518518518518519],[0.0912499999999999,-0.06351851851851854],[0.13322916666666676,-0.09259259259259259],[0.13322916666666676,-0.09259259259259259],[0.19479166666666667,-0.06388888888888888],[0.184375,-0.07240740740740745],[0.1883333333333333,-0.06722222222222224],[0.1616666666666667,-0.0448148148148149],[0.1349999999999999,-0.02240740740740745],[0.12927083333333325,0.019999999999999917],[0.12385416666666677,0.02759259259259255],[0.15520833333333334,0.05925925925925926],[0.1865624999999999,0.09092592592592597],[0.2021874999999999,0.08944444444444435],[0.2021874999999999,0.08944444444444435],[0.17645833333333344,0.029259259259259176],[0.17760416666666667,-0.004074074074074159],[0.19281249999999991,-0.018333333333333292],[0.1404166666666666,-0.06981481481481479],[0.08802083333333334,-0.12129629629629629],[0.06749999999999995,-0.18777777777777774],[0.06822916666666666,-0.18611111111111112],[0.013854166666666619,-0.2559259259259259],[0.013333333333333286,-0.2892592592592592],[0.06427083333333337,-0.2759259259259259],[0.13624999999999995,-0.2683333333333333],[0.19135416666666671,-0.23129629629629625],[0.22687499999999997,-0.16944444444444445],[0.3142708333333334,-0.0977777777777778],[0.40125000000000005,-0.017592592592592594],[0.45645833333333335,0.06925925925925921],[0.5014583333333335,0.06999999999999991],[0.5376041666666665,0.10777777777777786],[0.5395833333333333,0.11777777777777781],[0.5021874999999999,0.1088888888888888],[0.46375000000000005,0.11666666666666667],[0.43250000000000005,0.0977777777777777],[0.4310416666666666,0.07074074074074083],[0.4110416666666666,0.06870370370370374],[0.3701041666666666,0.01648148148148144],[0.309375,-0.0485185185185186],[0.27281250000000007,-0.0477777777777777],[0.26458333333333334,-0.031111111111111027],[0.23666666666666672,-0.023148148148148147],[0.25416666666666665,-0.023148148148148147],[0.2734375,-0.03314814814814811],[0.26416666666666655,-0.025],[0.18614583333333337,-0.03796296296296296],[0.1460416666666667,-0.07981481481481485],[0.12052083333333338,-0.10166666666666663],[0.0818749999999999,-0.12907407407407406],[0.03770833333333338,-0.15407407407407406],[0.04656250000000005,-0.1714814814814815],[0.022812499999999975,-0.18592592592592588],[-0.02635416666666662,-0.18629629629629635],[-0.05322916666666669,-0.1772222222222222],[-0.0515625,-0.18629629629629635],[-0.010312499999999976,-0.202962962962963],[0.0046875,-0.21962962962962967],[0.01593749999999995,-0.192037037037037],[0.01593749999999995,-0.192037037037037],[0.04031250000000005,-0.1588888888888889],[0.04031250000000005,-0.1588888888888889],[0.07843749999999995,-0.14370370370370375],[0.03458333333333338,-0.1603703703703704],[0.04552083333333338,-0.18722222222222226],[0.03885416666666662,-0.20925925925925926],[0.009895833333333333,-0.24074074074074073],[-0.010416666666666666,-0.25851851851851854],[-0.027604166666666666,-0.26129629629629636],[-0.016666666666666666,-0.2646296296296296],[0.004791666666666691,-0.2905555555555555],[0.019895833333333356,-0.32537037037037037],[0.07291666666666667,-0.31851851851851853],[0.14718749999999994,-0.29444444444444445],[0.14718749999999994,-0.29444444444444445],[0.16208333333333325,-0.2737037037037037],[0.19249999999999995,-0.2535185185185185],[0.22291666666666668,-0.23333333333333334],[0.23822916666666671,-0.2418518518518519],[0.23822916666666671,-0.2418518518518519],[0.25656249999999997,-0.25166666666666665],[0.25656249999999997,-0.25166666666666665],[0.26197916666666665,-0.2477777777777778],[0.26197916666666665,-0.2477777777777778],[0.2803124999999999,-0.25851851851851854],[0.2931250000000001,-0.2705555555555556],[0.2931250000000001,-0.2705555555555556],[0.25760416666666663,-0.3125925925925926],[0.22208333333333338,-0.35462962962962963],[0.1946875000000001,-0.37407407407407406],[0.1798958333333334,-0.41814814814814816],[0.15656249999999997,-0.44074074074074077],[0.1396874999999999,-0.44833333333333336],[0.15114583333333323,-0.4522222222222222],[0.15427083333333325,-0.4653703703703704],[0.121875,-0.4438888888888889],[0.10135416666666662,-0.41222222222222227],[0.10677083333333333,-0.39444444444444443],[0.10989583333333333,-0.35722222222222216],[0.1482291666666666,-0.3207407407407407],[0.1775000000000001,-0.2903703703703704],[0.21666666666666667,-0.27999999999999997],[0.2508333333333333,-0.28944444444444445],[0.25364583333333335,-0.3012962962962963],[0.2484375,-0.29666666666666663],[0.27468750000000003,-0.3098148148148148],[0.2959374999999999,-0.3412962962962963],[0.2883333333333333,-0.34759259259259256],[0.28458333333333335,-0.3762962962962963],[0.29375,-0.3814814814814815],[0.29656250000000006,-0.3907407407407407],[0.3008333333333333,-0.39444444444444443],[0.31010416666666674,-0.37833333333333335],[0.27937500000000004,-0.36500000000000005],[0.2548958333333334,-0.36444444444444446],[0.24562499999999995,-0.3542592592592593],[0.2413541666666667,-0.3257407407407407],[0.24802083333333325,-0.3014814814814815],[0.253125,-0.2742592592592593],[0.2367708333333333,-0.2783333333333334],[0.22531249999999994,-0.2518518518518518],[0.21260416666666657,-0.23074074074074077],[0.2189583333333334,-0.20759259259259263],[0.2694791666666667,-0.16111111111111112],[0.3007291666666667,-0.15203703703703708],[0.30791666666666656,-0.15481481481481485],[0.29812500000000003,-0.18333333333333332],[0.28937499999999994,-0.20092592592592592],[0.3015625,-0.1911111111111111],[0.31614583333333335,-0.18481481481481485],[0.32937500000000003,-0.18703703703703703]]","[[-0.05802083333333338,-0.2522222222222222,0.00029999999701857405],[-0.05802083333333338,-0.2522222222222222,0.03769999999553164],[-0.10229166666666671,-0.2748148148148148,0.04529999999702028],[-0.09874999999999995,-0.28185185185185185,0.06209999999403948],[-0.10520833333333333,-0.2916666666666667,0.07879999999701681],[-0.10968749999999995,-0.2757407407407407,0.0953999999985129],[-0.1141666666666667,-0.25981481481481483,0.11209999999403664],[-0.11364583333333336,-0.3005555555555556,0.13159999999403738],[-0.11114583333333337,-0.34074074074074073,0.14539999999851005],[-0.10864583333333329,-0.3809259259259259,0.16219999999552925],[-0.10479166666666669,-0.3811111111111111,0.1790999999940368],[-0.09322916666666667,-0.3827777777777778,0.19650000000000034],[-0.07958333333333331,-0.4305555555555556,0.21209999999403806],[-0.08145833333333338,-0.44351851851851853,0.2289999999999992],[-0.049687500000000044,-0.41,0.24539999999851148],[-0.025,-0.4111111111111111,0.2620999999940423],[-0.004479166666666619,-0.3937037037037037,0.2786999999955313],[-0.01885416666666669,-0.4316666666666667,0.29539999999850863],[-0.041666666666666664,-0.4727777777777778,0.3120999999940395],[-0.021458333333333357,-0.44537037037037036,0.3315999999940402],[0.014895833333333285,-0.42592592592592593,0.3457999999970198],[0.007395833333333357,-0.45092592592592595,0.36209999999403664],[0.0013541666666666192,-0.4235185185185185,0.3786999999955327],[0.02010416666666662,-0.3864814814814815,0.39539999999851005],[0.010625000000000048,-0.3787037037037037,0.41199999999999903],[0.009791666666666643,-0.3116666666666667,0.4288999999985066],[-0.002708333333333357,-0.2683333333333333,0.4453999999985072],[0.03447916666666669,-0.08666666666666668,0.4620000000000033],[0.07166666666666661,0.07814814814814823,0.47869999999552704],[0.06458333333333334,0.14962962962962956,0.4966999999955277],[0.042812500000000024,0.22074074074074082,0.5120999999940423],[0.08177083333333333,0.30648148148148147,0.5290999999940382],[0.1131249999999999,0.3744444444444445,0.545499999999997],[0.12843749999999995,0.4112962962962963,0.5619999999999976],[0.13770833333333338,0.41648148148148145,0.5786999999955285],[0.1349999999999999,0.36444444444444435,0.5973999999985082],[0.13270833333333343,0.2712962962962963,0.6120000000000019],[0.12364583333333339,0.17018518518518513,0.6287999999970211],[0.14802083333333324,0.06759259259259259,0.64539999999851],[0.1736458333333334,-0.010185185185185186,0.6626999999955316],[0.2181250000000001,-0.049629629629629544,0.6786999999955299],[0.2522916666666667,-0.09000000000000004,0.6980000000000004],[0.2864583333333333,-0.13037037037037033,0.7142999999970172],[0.30625,-0.16351851851851854,0.7308999999985062],[0.30625,-0.16351851851851854,0.745299999997016],[0.3366666666666667,-0.1794444444444444,0.7620999999940423],[0.3784374999999999,-0.18592592592592588,0.7818999999985081],[0.3784374999999999,-0.18592592592592588,0.8005999999940414],[0.4332291666666668,-0.16962962962962966,0.8185000000000002],[0.4332291666666668,-0.16962962962962966,0.8286999999955285],[0.39739583333333334,-0.21240740740740738,0.8453999999985129],[0.39739583333333334,-0.21240740740740738,0.8620000000000019],[0.3260416666666667,-0.19166666666666668,0.8786999999955327],[0.3260416666666667,-0.19166666666666668,0.89539999999851],[0.24447916666666672,-0.1507407407407407,0.911999999999999],[0.24447916666666672,-0.1507407407407407,0.9287999999970182],[0.16145833333333334,-0.17018518518518513,0.9453999999985072],[0.16145833333333334,-0.17018518518518513,0.9621999999955264],[0.06635416666666671,-0.15851851851851856,0.9787999999970225],[-0.06656249999999998,-0.1809259259259259,0.9958999999985068],[-0.1842708333333333,-0.23037037037037034,1.0120000000000005],[-0.2579166666666667,-0.2603703703703704,1.0286999999955313],[-0.3329166666666667,-0.2433333333333333,1.0453999999985086],[-0.42239583333333336,-0.24666666666666665,1.0622999999970162],[-0.4305208333333333,-0.23796296296296296,1.0786999999955285],[-0.428125,-0.2712962962962963,1.095399999998513],[-0.39572916666666663,-0.26351851851851854,1.1132999999970181],[-0.390625,-0.23499999999999996,1.1321999999955281],[-0.380625,-0.21481481481481482,1.146599999994038],[-0.33562500000000006,-0.17888888888888893,1.162099999994041],[-0.29145833333333326,-0.12314814814814815,1.1786999999955299],[-0.29270833333333335,-0.08574074074074076,1.1953999999985072],[-0.3039583333333333,-0.10481481481481486,1.2121999999955264],[-0.29312499999999997,-0.08740740740740739,1.2310999999940364],[-0.2919791666666666,-0.06074074074074076,1.2453999999985115],[-0.3095833333333334,-0.04203703703703712,1.2620999999940423],[-0.34697916666666667,-0.08462962962962961,1.2786999999955313],[-0.34697916666666667,-0.08462962962962961,1.2952999999970203],[-0.3064583333333334,-0.12388888888888884,1.3119999999999976],[-0.32083333333333336,-0.1235185185185185,1.3320000000000007],[-0.33239583333333333,-0.10481481481481486,1.345399999998513],[-0.34395833333333337,-0.08611111111111111,1.3620000000000019],[-0.299375,-0.06092592592592588,1.3786999999955327],[-0.2673958333333334,-0.07148148148148152,1.3952999999970217],[-0.19427083333333334,-0.06444444444444447,1.411999999999999],[-0.12114583333333329,-0.05740740740740741,1.4299999999999997],[-0.030520833333333285,-0.04129629629629621,1.4452999999970189],[0.024583333333333356,-0.03814814814814819,1.4620000000000033],[0.03291666666666669,-0.03518518518518519,1.478699999995527],[0.0912499999999999,-0.06351851851851854,1.4972999999970185],[0.13322916666666676,-0.09259259259259259,1.5168999999985076],[0.13322916666666676,-0.09259259259259259,1.5287999999970197],[0.19479166666666667,-0.06388888888888888,1.5452999999970203],[0.184375,-0.07240740740740745,1.5642999999970186],[0.1883333333333333,-0.06722222222222224,1.5787999999970168],[0.1616666666666667,-0.0448148148148149,1.5955000000000013],[0.1349999999999999,-0.02240740740740745,1.6120000000000019],[0.12927083333333325,0.019999999999999917,1.631099999994042],[0.12385416666666677,0.02759259259259255,1.6452999999970217],[0.15520833333333334,0.05925925925925926,1.6621999999955293],[0.1865624999999999,0.09092592592592597,1.6817999999970183],[0.2021874999999999,0.08944444444444435,1.6977999999970166],[0.2021874999999999,0.08944444444444435,1.7121999999955264],[0.17645833333333344,0.029259259259259176,1.7287999999970225],[0.17760416666666667,-0.004074074074074159,1.74719999999553],[0.19281249999999991,-0.018333333333333292,1.7621999999955307],[0.1404166666666666,-0.06981481481481479,1.778899999998508],[0.08802083333333334,-0.12129629629629629,1.7952999999970203],[0.06749999999999995,-0.18777777777777774,1.8141999999955303],[0.06822916666666666,-0.18611111111111112,1.8322999999970193],[0.013854166666666619,-0.2559259259259259,1.8485000000000014],[0.013333333333333286,-0.2892592592592592,1.864299999997023],[0.06427083333333337,-0.2759259259259259,1.8785999999940373],[0.13624999999999995,-0.2683333333333333,1.8952999999970217],[0.19135416666666671,-0.23129629629629625,1.911999999999999],[0.22687499999999997,-0.16944444444444445,1.9309999999999974],[0.3142708333333334,-0.0977777777777778,1.9458999999985096],[0.40125000000000005,-0.017592592592592594,1.9620000000000033],[0.45645833333333335,0.06925925925925921,1.978699999995527],[0.5014583333333335,0.06999999999999991,1.995299999997016],[0.5376041666666665,0.10777777777777786,2.0120999999940423],[0.5395833333333333,0.11777777777777781,2.0286999999955313],[0.5021874999999999,0.1088888888888888,2.0453999999985086],[0.46375000000000005,0.11666666666666667,2.0620999999940395],[0.43250000000000005,0.0977777777777777,2.0786999999955285],[0.4310416666666666,0.07074074074074083,2.0952999999970174],[0.4110416666666666,0.06870370370370374,2.1141999999955274],[0.3701041666666666,0.01648148148148144,2.132399999998512],[0.309375,-0.0485185185185186,2.1469999999999985],[0.27281250000000007,-0.0477777777777777,2.1645999999940386],[0.26458333333333334,-0.031111111111111027,2.1787999999970182],[0.23666666666666672,-0.023148148148148147,2.1955999999940374],[0.25416666666666665,-0.023148148148148147,2.212099999994038],[0.2734375,-0.03314814814814811,2.231899999998511],[0.26416666666666655,-0.025,2.2466999999955277],[0.18614583333333337,-0.03796296296296296,2.2621999999955307],[0.1460416666666667,-0.07981481481481485,2.280999999999999],[0.12052083333333338,-0.10166666666666663,2.2978999999985064],[0.0818749999999999,-0.12907407407407406,2.3120999999940395],[0.03770833333333338,-0.15407407407407406,2.3312999999970216],[0.04656250000000005,-0.1714814814814815,2.345899999998508],[0.022812499999999975,-0.18592592592592588,2.362199999995532],[-0.02635416666666662,-0.18629629629629635,2.3810000000000002],[-0.05322916666666669,-0.1772222222222222,2.3954999999999984],[-0.0515625,-0.18629629629629635,2.4121999999955293],[-0.010312499999999976,-0.202962962962963,2.43319999999553],[0.0046875,-0.21962962962962967,2.4476999999955282],[0.01593749999999995,-0.192037037037037,2.463599999994038],[0.01593749999999995,-0.192037037037037,2.4787999999970225],[0.04031250000000005,-0.1588888888888889,2.4991999999955326],[0.04031250000000005,-0.1588888888888889,2.5121999999955307],[0.07843749999999995,-0.14370370370370375,2.528899999998508],[0.03458333333333338,-0.1603703703703704,2.5474999999999994],[0.04552083333333338,-0.18722222222222226,2.5635999999940395],[0.03885416666666662,-0.20925925925925926,2.579199999995531],[0.009895833333333333,-0.24074074074074073,2.5952999999970174],[-0.010416666666666666,-0.25851851851851854,2.612000000000002],[-0.027604166666666666,-0.26129629629629636,2.6286999999955327],[-0.016666666666666666,-0.2646296296296296,2.6454999999999984],[0.004791666666666691,-0.2905555555555555,2.661999999999999],[0.019895833333333356,-0.32537037037037037,2.67869999999553],[0.07291666666666667,-0.31851851851851853,2.6980000000000004],[0.14718749999999994,-0.29444444444444445,2.714899999998508],[0.14718749999999994,-0.29444444444444445,2.7285999999940387],[0.16208333333333325,-0.2737037037037037,2.745299999997016],[0.19249999999999995,-0.2535185185185185,2.7620000000000005],[0.22291666666666668,-0.23333333333333334,2.783099999994036],[0.23822916666666671,-0.2418518518518519,2.799699999995532],[0.23822916666666671,-0.2418518518518519,2.8119999999999976],[0.25656249999999997,-0.25166666666666665,2.8286999999955285],[0.25656249999999997,-0.25166666666666665,2.845399999998513],[0.26197916666666665,-0.2477777777777778,2.8620999999940366],[0.26197916666666665,-0.2477777777777778,2.8841999999955306],[0.2803124999999999,-0.25851851851851854,2.89539999999851],[0.2931250000000001,-0.2705555555555556,2.9155999999940363],[0.2931250000000001,-0.2705555555555556,2.92869999999553],[0.25760416666666663,-0.3125925925925926,2.945299999997019],[0.22208333333333338,-0.35462962962962963,2.9662999999970197],[0.1946875000000001,-0.37407407407407406,2.982099999994041],[0.1798958333333334,-0.41814814814814816,2.9979999999999976],[0.15656249999999997,-0.44074074074074077,3.0120000000000005],[0.1396874999999999,-0.44833333333333336,3.0317999999970198],[0.15114583333333323,-0.4522222222222222,3.045599999994039],[0.15427083333333325,-0.4653703703703704,3.0619999999999976],[0.121875,-0.4438888888888889,3.0786999999955285],[0.10135416666666662,-0.41222222222222227,3.0952999999970174],[0.10677083333333333,-0.39444444444444443,3.1118999999985064],[0.10989583333333333,-0.35722222222222216,3.1285999999940373],[0.1482291666666666,-0.3207407407407407,3.1452999999970217],[0.1775000000000001,-0.2903703703703704,3.161999999999999],[0.21666666666666667,-0.27999999999999997,3.17869999999553],[0.2508333333333333,-0.28944444444444445,3.1970000000000027],[0.25364583333333335,-0.3012962962962963,3.2120000000000033],[0.2484375,-0.29666666666666663,3.2287999999970225],[0.27468750000000003,-0.3098148148148148,3.245299999997016],[0.2959374999999999,-0.3412962962962963,3.2620999999940423],[0.2883333333333333,-0.34759259259259256,3.2786999999955313],[0.28458333333333335,-0.3762962962962963,3.2957999999970227],[0.29375,-0.3814814814814815,3.3119999999999976],[0.29656250000000006,-0.3907407407407407,3.3286999999955285],[0.3008333333333333,-0.39444444444444443,3.345399999998513],[0.31010416666666674,-0.37833333333333335,3.362000000000002],[0.27937500000000004,-0.36500000000000005,3.3786999999955327],[0.2548958333333334,-0.36444444444444446,3.3954999999999984],[0.24562499999999995,-0.3542592592592593,3.411999999999999],[0.2413541666666667,-0.3257407407407407,3.4298999999985114],[0.24802083333333325,-0.3014814814814815,3.445299999997019],[0.253125,-0.2742592592592593,3.4620000000000033],[0.2367708333333333,-0.2783333333333334,3.478699999995527],[0.22531249999999994,-0.2518518518518518,3.4953999999985115],[0.21260416666666657,-0.23074074074074077,3.5120000000000005],[0.2189583333333334,-0.20759259259259263,3.5287999999970197],[0.2694791666666667,-0.16111111111111112,3.5452999999970203],[0.3007291666666667,-0.15203703703703708,3.5637999999970162],[0.30791666666666656,-0.15481481481481485,3.57859999999404],[0.29812500000000003,-0.18333333333333332,3.5952999999970174],[0.28937499999999994,-0.20092592592592592,3.612000000000002],[0.3015625,-0.1911111111111111,3.6286999999955327],[0.31614583333333335,-0.18481481481481485,3.6452999999970217],[0.32937500000000003,-0.18703703703703703,3.661999999999999]]","[0.00029999999701857405,0.03769999999553164,0.04529999999702028,0.06209999999403948,0.07879999999701681,0.0953999999985129,0.11209999999403664,0.13159999999403738,0.14539999999851005,0.16219999999552925,0.1790999999940368,0.19650000000000034,0.21209999999403806,0.2289999999999992,0.24539999999851148,0.2620999999940423,0.2786999999955313,0.29539999999850863,0.3120999999940395,0.3315999999940402,0.3457999999970198,0.36209999999403664,0.3786999999955327,0.39539999999851005,0.41199999999999903,0.4288999999985066,0.4453999999985072,0.4620000000000033,0.47869999999552704,0.4966999999955277,0.5120999999940423,0.5290999999940382,0.545499999999997,0.5619999999999976,0.5786999999955285,0.5973999999985082,0.6120000000000019,0.6287999999970211,0.64539999999851,0.6626999999955316,0.6786999999955299,0.6980000000000004,0.7142999999970172,0.7308999999985062,0.745299999997016,0.7620999999940423,0.7818999999985081,0.8005999999940414,0.8185000000000002,0.8286999999955285,0.8453999999985129,0.8620000000000019,0.8786999999955327,0.89539999999851,0.911999999999999,0.9287999999970182,0.9453999999985072,0.9621999999955264,0.9787999999970225,0.9958999999985068,1.0120000000000005,1.0286999999955313,1.0453999999985086,1.0622999999970162,1.0786999999955285,1.095399999998513,1.1132999999970181,1.1321999999955281,1.146599999994038,1.162099999994041,1.1786999999955299,1.1953999999985072,1.2121999999955264,1.2310999999940364,1.2453999999985115,1.2620999999940423,1.2786999999955313,1.2952999999970203,1.3119999999999976,1.3320000000000007,1.345399999998513,1.3620000000000019,1.3786999999955327,1.3952999999970217,1.411999999999999,1.4299999999999997,1.4452999999970189,1.4620000000000033,1.478699999995527,1.4972999999970185,1.5168999999985076,1.5287999999970197,1.5452999999970203,1.5642999999970186,1.5787999999970168,1.5955000000000013,1.6120000000000019,1.631099999994042,1.6452999999970217,1.6621999999955293,1.6817999999970183,1.6977999999970166,1.7121999999955264,1.7287999999970225,1.74719999999553,1.7621999999955307,1.778899999998508,1.7952999999970203,1.8141999999955303,1.8322999999970193,1.8485000000000014,1.864299999997023,1.8785999999940373,1.8952999999970217,1.911999999999999,1.9309999999999974,1.9458999999985096,1.9620000000000033,1.978699999995527,1.995299999997016,2.0120999999940423,2.0286999999955313,2.0453999999985086,2.0620999999940395,2.0786999999955285,2.0952999999970174,2.1141999999955274,2.132399999998512,2.1469999999999985,2.1645999999940386,2.1787999999970182,2.1955999999940374,2.212099999994038,2.231899999998511,2.2466999999955277,2.2621999999955307,2.280999999999999,2.2978999999985064,2.3120999999940395,2.3312999999970216,2.345899999998508,2.362199999995532,2.3810000000000002,2.3954999999999984,2.4121999999955293,2.43319999999553,2.4476999999955282,2.463599999994038,2.4787999999970225,2.4991999999955326,2.5121999999955307,2.528899999998508,2.5474999999999994,2.5635999999940395,2.579199999995531,2.5952999999970174,2.612000000000002,2.6286999999955327,2.6454999999999984,2.661999999999999,2.67869999999553,2.6980000000000004,2.714899999998508,2.7285999999940387,2.745299999997016,2.7620000000000005,2.783099999994036,2.799699999995532,2.8119999999999976,2.8286999999955285,2.845399999998513,2.8620999999940366,2.8841999999955306,2.89539999999851,2.9155999999940363,2.92869999999553,2.945299999997019,2.9662999999970197,2.982099999994041,2.9979999999999976,3.0120000000000005,3.0317999999970198,3.045599999994039,3.0619999999999976,3.0786999999955285,3.0952999999970174,3.1118999999985064,3.1285999999940373,3.1452999999970217,3.161999999999999,3.17869999999553,3.1970000000000027,3.2120000000000033,3.2287999999970225,3.245299999997016,3.2620999999940423,3.2786999999955313,3.2957999999970227,3.3119999999999976,3.3286999999955285,3.345399999998513,3.362000000000002,3.3786999999955327,3.3954999999999984,3.411999999999999,3.4298999999985114,3.445299999997019,3.4620000000000033,3.478699999995527,3.4953999999985115,3.5120000000000005,3.5287999999970197,3.5452999999970203,3.5637999999970162,3.57859999999404,3.5952999999970174,3.612000000000002,3.6286999999955327,3.6452999999970217,3.661999999999999]","[1733284201050,1733284201080,1733284201087,1733284201104,1733284201121,1733284201137,1733284201154,1733284201173,1733284201187,1733284201204,1733284201221,1733284201238,1733284201254,1733284201271,1733284201287,1733284201304,1733284201321,1733284201337,1733284201354,1733284201373,1733284201388,1733284201404,1733284201421,1733284201437,1733284201454,1733284201471,1733284201487,1733284201504,1733284201521,1733284201539,1733284201554,1733284201571,1733284201587,1733284201604,1733284201621,1733284201639,1733284201654,1733284201671,1733284201687,1733284201705,1733284201721,1733284201740,1733284201756,1733284201773,1733284201787,1733284201804,1733284201824,1733284201842,1733284201860,1733284201871,1733284201887,1733284201904,1733284201921,1733284201937,1733284201954,1733284201971,1733284201987,1733284202004,1733284202021,1733284202038,1733284202054,1733284202071,1733284202087,1733284202104,1733284202121,1733284202137,1733284202155,1733284202174,1733284202188,1733284202204,1733284202221,1733284202237,1733284202254,1733284202273,1733284202287,1733284202304,1733284202321,1733284202337,1733284202354,1733284202374,1733284202387,1733284202404,1733284202421,1733284202437,1733284202454,1733284202472,1733284202487,1733284202504,1733284202521,1733284202539,1733284202559,1733284202571,1733284202587,1733284202606,1733284202621,1733284202637,1733284202654,1733284202673,1733284202687,1733284202704,1733284202724,1733284202740,1733284202754,1733284202771,1733284202789,1733284202804,1733284202821,1733284202837,1733284202856,1733284202874,1733284202890,1733284202906,1733284202921,1733284202937,1733284202954,1733284202973,1733284202988,1733284203004,1733284203021,1733284203037,1733284203054,1733284203071,1733284203087,1733284203104,1733284203121,1733284203137,1733284203156,1733284203174,1733284203189,1733284203206,1733284203221,1733284203237,1733284203254,1733284203274,1733284203289,1733284203304,1733284203323,1733284203340,1733284203354,1733284203373,1733284203388,1733284203404,1733284203423,1733284203437,1733284203454,1733284203475,1733284203490,1733284203505,1733284203521,1733284203541,1733284203554,1733284203571,1733284203589,1733284203605,1733284203621,1733284203637,1733284203654,1733284203671,1733284203687,1733284203704,1733284203721,1733284203740,1733284203757,1733284203771,1733284203787,1733284203804,1733284203825,1733284203842,1733284203854,1733284203871,1733284203887,1733284203904,1733284203926,1733284203937,1733284203957,1733284203971,1733284203987,1733284204008,1733284204024,1733284204040,1733284204054,1733284204074,1733284204087,1733284204104,1733284204121,1733284204137,1733284204154,1733284204170,1733284204187,1733284204204,1733284204221,1733284204239,1733284204254,1733284204271,1733284204287,1733284204304,1733284204321,1733284204338,1733284204354,1733284204371,1733284204387,1733284204404,1733284204420,1733284204437,1733284204454,1733284204472,1733284204487,1733284204504,1733284204520,1733284204537,1733284204554,1733284204571,1733284204587,1733284204606,1733284204621,1733284204637,1733284204654,1733284204670,1733284204687,1733284204704]","[[904.3,403.8],[904.3,403.8],[861.8,391.6],[865.2,387.8],[859,382.5],[854.7,391.1],[850.4,399.7],[850.9,377.7],[853.3,356],[855.7,334.3],[859.4,334.2],[870.5,333.3],[883.6,307.5],[881.8,300.5],[912.3,318.6],[936,318],[955.7,327.4],[941.9,306.9],[920,284.7],[939.4,299.5],[974.3,310],[967.1,296.5],[961.3,311.3],[979.3,331.3],[970.2,335.5],[969.4,371.7],[957.4,395.1],[993.1,493.2],[1028.8,582.2],[1022,620.8],[1001.1,659.2],[1038.5,705.5],[1068.6,742.2],[1083.3,762.1],[1092.2,764.9],[1089.6,736.8],[1087.4,686.5],[1078.7,631.9],[1102.1,576.5],[1126.7,534.5],[1169.4,513.2],[1202.2,491.4],[1235,469.6],[1254,451.7],[1254,451.7],[1283.2,443.1],[1323.3,439.6],[1323.3,439.6],[1375.9,448.4],[1375.9,448.4],[1341.5,425.3],[1341.5,425.3],[1273,436.5],[1273,436.5],[1194.7,458.6],[1194.7,458.6],[1115,448.1],[1115,448.1],[1023.7,454.4],[896.1,442.3],[783.1,415.6],[712.4,399.4],[640.4,408.6],[554.5,406.8],[546.7,411.5],[549,393.5],[580.1,397.7],[585,413.1],[594.6,424],[637.8,443.4],[680.2,473.5],[679,493.7],[668.2,483.4],[678.6,492.8],[679.7,507.2],[662.8,517.3],[626.9,494.3],[626.9,494.3],[665.8,473.1],[652,473.3],[640.9,483.4],[629.8,493.5],[672.6,507.1],[703.3,501.4],[773.5,505.2],[843.7,509],[930.7,517.7],[983.6,519.4],[991.6,521],[1047.6,505.7],[1087.9,490],[1087.9,490],[1147,505.5],[1137,500.9],[1140.8,503.7],[1115.2,515.8],[1089.6,527.9],[1084.1,550.8],[1078.9,554.9],[1109,572],[1139.1,589.1],[1154.1,588.3],[1154.1,588.3],[1129.4,555.8],[1130.5,537.8],[1145.1,530.1],[1094.8,502.3],[1044.5,474.5],[1024.8,438.6],[1025.5,439.5],[973.3,401.8],[972.8,383.8],[1021.7,391],[1090.8,395.1],[1143.7,415.1],[1177.8,448.5],[1261.7,487.2],[1345.2,530.5],[1398.2,577.4],[1441.4,577.8],[1476.1,598.2],[1478,603.6],[1442.1,598.8],[1405.2,603],[1375.2,592.8],[1373.8,578.2],[1354.6,577.1],[1315.3,548.9],[1257,513.8],[1221.9,514.2],[1214,523.2],[1187.2,527.5],[1204,527.5],[1222.5,522.1],[1213.6,526.5],[1138.7,519.5],[1100.2,496.9],[1075.7,485.1],[1038.6,470.3],[996.2,456.8],[1004.7,447.4],[981.9,439.6],[934.7,439.4],[908.9,444.3],[910.5,439.4],[950.1,430.4],[964.5,421.4],[975.3,436.3],[975.3,436.3],[998.7,454.2],[998.7,454.2],[1035.3,462.4],[993.2,453.4],[1003.7,438.9],[997.3,427],[969.5,410],[950,400.4],[933.5,398.9],[944,397.1],[964.6,383.1],[979.1,364.3],[1030,368],[1101.3,381],[1101.3,381],[1115.6,392.2],[1144.8,403.1],[1174,414],[1188.7,409.4],[1188.7,409.4],[1206.3,404.1],[1206.3,404.1],[1211.5,406.2],[1211.5,406.2],[1229.1,400.4],[1241.4,393.9],[1241.4,393.9],[1207.3,371.2],[1173.2,348.5],[1146.9,338],[1132.7,314.2],[1110.3,302],[1094.1,297.9],[1105.1,295.8],[1108.1,288.7],[1077,300.3],[1057.3,317.4],[1062.5,327],[1065.5,347.1],[1102.3,366.8],[1130.4,383.2],[1168,388.8],[1200.8,383.7],[1203.5,377.3],[1198.5,379.8],[1223.7,372.7],[1244.1,355.7],[1236.8,352.3],[1233.2,336.8],[1242,334],[1244.7,329],[1248.8,327],[1257.7,335.7],[1228.2,342.9],[1204.7,343.2],[1195.8,348.7],[1191.7,364.1],[1198.1,377.2],[1203,391.9],[1187.3,389.7],[1176.3,404],[1164.1,415.4],[1170.2,427.9],[1218.7,453],[1248.7,457.9],[1255.6,456.4],[1246.2,441],[1237.8,431.5],[1249.5,436.8],[1263.5,440.2],[1276.2,439]]","[0,0.5333]","[0.5333,0.5333]","[-0.5333,0]","[-0.5333,-0.5333]","[0,0]","[0.5333,0]","[0,-0.5333]","[0.5333,-0.5333]",0,0,0,0,1,1,Monitor,7,7,15,9
,,,,,,,,,,,,,,,,,,,,38,001,2024-12-04_11h49.12.854,Attention_exp_legacy,2023.1.0,Win32,59.88023952,,,,,,,,,,[0.434375],[0.45925925925925926],[1],[0],[0],[1.8156000000014885],"[""Option2_label""]",Option2_label,2,2.8165,"[[0.065625,0.4444444444444444],[0.065625,0.4444444444444444],[0.065625,0.4444444444444444],[0.065625,0.4444444444444444],[0.065625,0.4444444444444444],[0.065625,0.4444444444444444],[0.065625,0.4444444444444444],[0.065625,0.4444444444444444],[0.065625,0.4444444444444444],[0.065625,0.4444444444444444],[0.065625,0.4444444444444444],[0.065625,0.4444444444444444],[0.065625,0.4444444444444444],[0.065625,0.4444444444444444],[0.065625,0.4444444444444444],[0.065625,0.4444444444444444],[0.065625,0.4444444444444444],[0.065625,0.4444444444444444],[0.065625,0.4444444444444444],[0.065625,0.4444444444444444],[0.065625,0.4444444444444444],[0.065625,0.4444444444444444],[0.065625,0.4444444444444444],[0.065625,0.4444444444444444],[0.065625,0.4444444444444444],[0.065625,0.4444444444444444],[0.065625,0.4444444444444444],[0.065625,0.4444444444444444],[0.065625,0.4444444444444444],[0.065625,0.4444444444444444],[0.065625,0.4444444444444444],[0.065625,0.4444444444444444],[0.065625,0.4444444444444444],[0.065625,0.4444444444444444],[0.065625,0.4444444444444444],[0.065625,0.4444444444444444],[0.065625,0.4444444444444444],[0.065625,0.4444444444444444],[0.065625,0.4444444444444444],[0.065625,0.4444444444444444],[0.065625,0.4444444444444444],[0.065625,0.4444444444444444],[0.065625,0.4444444444444444],[0.065625,0.4444444444444444],[0.065625,0.4444444444444444],[0.065625,0.4444444444444444],[0.065625,0.4444444444444444],[0.065625,0.4444444444444444],[0.065625,0.4444444444444444],[0.065625,0.4444444444444444],[0.065625,0.4444444444444444],[0.065625,0.4444444444444444],[0.065625,0.4444444444444444],[0.065625,0.4444444444444444],[0.065625,0.4444444444444444],[0.065625,0.4444444444444444],[0.065625,0.4444444444444444],[0.065625,0.4444444444444444],[0.065625,0.4444444444444444],[0.065625,0.4444444444444444],[0.065625,0.4444444444444444],[0.065625,0.4444444444444444],[0.065625,0.4444444444444444],[0.065625,0.4444444444444444],[0.065625,0.4444444444444444],[0.065625,0.4444444444444444],[0.065625,0.4444444444444444],[0.065625,0.4444444444444444],[0.065625,0.44074074074074077],[0.06666666666666667,0.42962962962962964],[0.07395833333333333,0.4166666666666667],[0.08125,0.40370370370370373],[0.09791666666666667,0.3851851851851852],[0.11041666666666666,0.37592592592592594],[0.128125,0.36666666666666664],[0.14791666666666667,0.3574074074074074],[0.16770833333333332,0.35555555555555557],[0.1875,0.35185185185185186],[0.20520833333333333,0.35185185185185186],[0.22083333333333333,0.35185185185185186],[0.234375,0.35185185185185186],[0.24895833333333334,0.35185185185185186],[0.259375,0.35185185185185186],[0.275,0.3592592592592593],[0.29791666666666666,0.37037037037037035],[0.31145833333333334,0.37962962962962965],[0.3260416666666667,0.38333333333333336],[0.3375,0.3907407407407407],[0.35104166666666664,0.4],[0.3625,0.4074074074074074],[0.3729166666666667,0.4166666666666667],[0.3802083333333333,0.42407407407407405],[0.38645833333333335,0.42962962962962964],[0.396875,0.4351851851851852],[0.39791666666666664,0.4388888888888889],[0.403125,0.44074074074074077],[0.4114583333333333,0.4462962962962963],[0.4166666666666667,0.44814814814814813],[0.42083333333333334,0.4537037037037037],[0.4239583333333333,0.45555555555555555],[0.42916666666666664,0.45740740740740743],[0.43125,0.45925925925925926],[0.4322916666666667,0.45925925925925926],[0.434375,0.45925925925925926],[0.434375,0.45925925925925926],[0.434375,0.45925925925925926],[0.434375,0.45925925925925926],[0.434375,0.45925925925925926],[0.434375,0.45925925925925926],[0.434375,0.45925925925925926],[0.434375,0.45925925925925926],[0.434375,0.45925925925925926],[0.434375,0.45925925925925926],[0.434375,0.45925925925925926],[0.434375,0.45925925925925926],[0.434375,0.45925925925925926],[0.434375,0.45925925925925926],[0.434375,0.45925925925925926],[0.434375,0.45925925925925926],[0.434375,0.45925925925925926],[0.434375,0.45925925925925926],[0.434375,0.45925925925925926],[0.434375,0.45925925925925926],[0.434375,0.45925925925925926],[0.434375,0.45925925925925926],[0.434375,0.45925925925925926],[0.434375,0.45925925925925926],[0.434375,0.45925925925925926],[0.434375,0.45925925925925926],[0.434375,0.45925925925925926],[0.434375,0.45925925925925926],[0.434375,0.45925925925925926],[0.434375,0.45925925925925926],[0.434375,0.45925925925925926],[0.434375,0.45925925925925926],[0.434375,0.45925925925925926],[0.434375,0.45925925925925926],[0.434375,0.45925925925925926],[0.434375,0.45925925925925926],[0.434375,0.45925925925925926],[0.434375,0.45925925925925926],[0.434375,0.45925925925925926],[0.434375,0.45925925925925926],[0.434375,0.45925925925925926],[0.434375,0.45925925925925926],[0.434375,0.45925925925925926],[0.434375,0.45925925925925926],[0.434375,0.45925925925925926],[0.434375,0.45925925925925926],[0.434375,0.45925925925925926],[0.434375,0.45925925925925926],[0.434375,0.45925925925925926],[0.434375,0.45925925925925926],[0.434375,0.45925925925925926],[0.434375,0.45925925925925926],[0.434375,0.45925925925925926],[0.434375,0.45925925925925926],[0.434375,0.45925925925925926],[0.434375,0.45925925925925926],[0.434375,0.45925925925925926],[0.434375,0.45925925925925926],[0.434375,0.45925925925925926],[0.434375,0.45925925925925926],[0.434375,0.45925925925925926],[0.434375,0.45925925925925926],[0.434375,0.45925925925925926],[0.434375,0.45925925925925926],[0.434375,0.45925925925925926],[0.434375,0.45925925925925926],[0.434375,0.45925925925925926]]","[[0.27447916666666666,-0.23944444444444446],[0.2504166666666668,-0.3116666666666667],[0.2504166666666668,-0.3116666666666667],[0.2482291666666666,-0.35555555555555557],[0.2367708333333333,-0.3894444444444445],[0.23718750000000005,-0.3648148148148148],[0.23760416666666656,-0.34018518518518515],[0.23760416666666656,-0.34018518518518515],[0.22145833333333323,-0.36796296296296294],[0.22145833333333323,-0.36796296296296294],[0.22333333333333344,-0.322037037037037],[0.22333333333333344,-0.322037037037037],[0.23802083333333332,-0.2846296296296296],[0.23802083333333332,-0.2846296296296296],[0.27531249999999996,-0.22000000000000003],[0.27531249999999996,-0.22000000000000003],[0.2908333333333334,-0.17370370370370372],[0.2908333333333334,-0.17370370370370372],[0.3063541666666666,-0.12740740740740744],[0.29093749999999996,-0.16888888888888887],[0.29270833333333335,-0.15351851851851847],[0.29270833333333335,-0.15351851851851847],[0.29541666666666655,-0.1235185185185185],[0.29541666666666655,-0.08185185185185183],[0.27281250000000007,-0.09518518518518514],[0.24989583333333343,-0.10055555555555558],[0.22229166666666675,-0.13796296296296295],[0.19010416666666666,-0.23351851851851857],[0.16885416666666658,-0.24388888888888888],[0.11624999999999991,-0.23870370370370367],[0.07270833333333329,-0.17407407407407408],[-0.009583333333333381,-0.2518518518518518],[-0.07625000000000005,-0.2777777777777778],[-0.12364583333333339,-0.2898148148148148],[-0.13500000000000004,-0.2103703703703704],[-0.19427083333333334,-0.22018518518518515],[-0.24177083333333335,-0.2125925925925926],[-0.2964583333333334,-0.18185185185185182],[-0.35,-0.2337037037037037],[-0.37854166666666667,-0.2814814814814815],[-0.4070833333333333,-0.3292592592592593],[-0.4047916666666667,-0.3014814814814815],[-0.4391666666666667,-0.3320370370370371],[-0.48114583333333333,-0.3827777777777778],[-0.479375,-0.45129629629629625],[-0.45677083333333335,-0.5072222222222221],[-0.3885416666666667,-0.492037037037037],[-0.3123958333333333,-0.4487037037037037],[-0.2522916666666667,-0.3853703703703704],[-0.18583333333333332,-0.3416666666666667],[-0.11124999999999995,-0.29370370370370374],[-0.028541666666666642,-0.24018518518518517],[0.07520833333333338,-0.1801851851851852],[0.14958333333333323,-0.18277777777777776],[0.18020833333333333,-0.1675925925925926],[0.1912499999999999,-0.1301851851851852],[0.14312500000000009,-0.17629629629629628],[0.1306250000000001,-0.19388888888888886],[0.09968750000000005,-0.2361111111111111],[0.09177083333333323,-0.255],[0.07572916666666671,-0.27814814814814814],[0.03687499999999998,-0.32092592592592595],[-0.001979166666666643,-0.36370370370370364],[-0.02020833333333331,-0.35537037037037034],[-0.03843749999999998,-0.347037037037037],[-0.03708333333333336,-0.3609259259259259],[-0.06541666666666662,-0.37592592592592594],[-0.11854166666666661,-0.41092592592592586],[-0.16239583333333332,-0.4255555555555556],[-0.1638541666666666,-0.3979629629629629],[-0.14937499999999998,-0.3933333333333333],[-0.1202083333333333,-0.37462962962962965],[-0.12072916666666664,-0.3881481481481482],[-0.12145833333333336,-0.3955555555555556],[-0.12229166666666665,-0.3977777777777778],[-0.07520833333333338,-0.3811111111111111],[-0.011979166666666667,-0.35999999999999993],[0.06947916666666672,-0.3131481481481482],[0.16010416666666671,-0.262037037037037],[0.1851041666666667,-0.2922222222222222],[0.19416666666666677,-0.2994444444444444],[0.20520833333333333,-0.3109259259259259],[0.2459374999999999,-0.29018518518518516],[0.2842708333333334,-0.28055555555555556],[0.2842708333333334,-0.28055555555555556],[0.32270833333333326,-0.27611111111111114],[0.3267708333333334,-0.2837037037037037],[0.33708333333333323,-0.2846296296296296],[0.32916666666666666,-0.31129629629629635],[0.3212500000000001,-0.33796296296296297],[0.3288541666666667,-0.3424074074074074],[0.33645833333333336,-0.34685185185185186],[0.3352083333333333,-0.33555555555555555],[0.3389583333333334,-0.3485185185185185],[0.35572916666666665,-0.34759259259259256],[0.3724999999999999,-0.3466666666666666],[0.4099999999999999,-0.30166666666666664],[0.44510416666666663,-0.29000000000000004],[0.4664583333333333,-0.2983333333333334],[0.4664583333333333,-0.2983333333333334],[0.47416666666666674,-0.31296296296296294],[0.520625,-0.29240740740740734],[0.5670833333333334,-0.2718518518518519],[0.6069791666666667,-0.27907407407407403],[0.6418750000000001,-0.262037037037037],[0.6481250000000001,-0.2548148148148149],[0.654375,-0.24759259259259256],[0.6349999999999999,-0.3127777777777777],[0.6388541666666666,-0.34222222222222226],[0.6559375000000001,-0.35351851851851845],[0.6866666666666668,-0.35851851851851857],[0.6655208333333335,-0.3875925925925926],[0.6443749999999999,-0.4166666666666667],[0.6366666666666667,-0.4294444444444444],[0.6292708333333332,-0.4524074074074074],[0.6398958333333333,-0.46833333333333327],[0.6503125,-0.4781481481481481],[0.6520833333333333,-0.46648148148148144],[0.6303124999999999,-0.4474074074074075],[0.6041666666666666,-0.45],[0.5830208333333334,-0.41388888888888886],[0.5594791666666665,-0.40129629629629626],[0.5359375,-0.38870370370370366],[0.5359375,-0.38870370370370366],[0.5079166666666666,-0.4103703703703704],[0.48156249999999995,-0.4072222222222222],[0.4552083333333333,-0.40407407407407403],[0.4413541666666667,-0.39444444444444443],[0.4413541666666667,-0.39444444444444443],[0.4161458333333333,-0.41462962962962957],[0.4161458333333333,-0.41462962962962957],[0.4322916666666667,-0.40685185185185185],[0.4322916666666667,-0.40685185185185185],[0.43291666666666656,-0.41203703703703703],[0.43291666666666656,-0.41203703703703703],[0.42135416666666664,-0.4855555555555555],[0.42135416666666664,-0.4855555555555555],[0.41083333333333344,-0.562962962962963],[0.40083333333333326,-0.5433333333333333],[0.40166666666666656,-0.5216666666666666],[0.41281249999999997,-0.5007407407407407],[0.4239583333333333,-0.47981481481481486],[0.41916666666666674,-0.5251851851851852],[0.4257291666666667,-0.5416666666666666],[0.3988541666666668,-0.5131481481481482],[0.3919791666666666,-0.4474074074074075],[0.3897916666666667,-0.35851851851851857],[0.3890625,-0.27518518518518525],[0.40593750000000006,-0.28574074074074074],[0.3959374999999999,-0.2603703703703704],[0.37562499999999993,-0.24592592592592594],[0.37166666666666665,-0.24314814814814817],[0.37135416666666665,-0.18666666666666668],[0.36614583333333334,-0.13777777777777775],[0.37041666666666656,-0.15722222222222218],[0.3877083333333334,-0.18037037037037032],[0.3919791666666666,-0.19796296296296292],[0.3792708333333332,-0.21129629629629634],[0.3484375,-0.22777777777777777],[0.35750000000000004,-0.2485185185185185],[0.3645833333333333,-0.2722222222222222],[0.3553124999999999,-0.28425925925925927],[0.3400000000000001,-0.3037037037037037],[0.3462500000000001,-0.3020370370370371],[0.36083333333333345,-0.31351851851851853],[0.3628124999999999,-0.322037037037037],[0.3741666666666667,-0.3290740740740741],[0.4002083333333334,-0.325],[0.44166666666666665,-0.33055555555555555],[0.46375000000000005,-0.33555555555555555]]","[[0.27447916666666666,-0.23944444444444446,0.0001000000014954594],[0.2504166666666668,-0.3116666666666667,0.019799999997019313],[0.2504166666666668,-0.3116666666666667,0.03769999999553164],[0.2482291666666666,-0.35555555555555557,0.055199999995529936],[0.2367708333333333,-0.3894444444444445,0.069500000000005],[0.23718750000000005,-0.3648148148148148,0.08310000000149387],[0.23760416666666656,-0.34018518518518515,0.10429999999702488],[0.23760416666666656,-0.34018518518518515,0.11650000000000205],[0.22145833333333323,-0.36796296296296294,0.13310000000149103],[0.22145833333333323,-0.36796296296296294,0.14969999999553352],[0.22333333333333344,-0.322037037037037,0.1665000000000063],[0.22333333333333344,-0.322037037037037,0.1831000000014953],[0.23802083333333332,-0.2846296296296296,0.20000000000000284],[0.23802083333333332,-0.2846296296296296,0.2163999999985151],[0.27531249999999996,-0.22000000000000003,0.23310000000149245],[0.27531249999999996,-0.22000000000000003,0.2497999999970233],[0.2908333333333334,-0.17370370370370372,0.26639999999851227],[0.2908333333333334,-0.17370370370370372,0.2831000000014967],[0.3063541666666666,-0.12740740740740744,0.29979999999702045],[0.29093749999999996,-0.16888888888888887,0.31639999999850943],[0.29270833333333335,-0.15351851851851847,0.33310000000149387],[0.29270833333333335,-0.15351851851851847,0.3497999999970247],[0.29541666666666655,-0.1235185185185185,0.36650000000000205],[0.29541666666666655,-0.08185185185185183,0.383100000001491],[0.27281250000000007,-0.09518518518518514,0.3996999999955335],[0.24989583333333343,-0.10055555555555558,0.4165000000000063],[0.22229166666666675,-0.13796296296296295,0.4331000000014953],[0.19010416666666666,-0.23351851851851857,0.44979999999702613],[0.16885416666666658,-0.24388888888888888,0.4663999999985151],[0.11624999999999991,-0.23870370370370367,0.48310000000149245],[0.07270833333333329,-0.17407407407407408,0.49969999999553494],[-0.009583333333333381,-0.2518518518518518,0.5163999999985123],[-0.07625000000000005,-0.2777777777777778,0.5331000000014967],[-0.12364583333333339,-0.2898148148148148,0.5497999999970204],[-0.13500000000000004,-0.2103703703703704,0.5663999999985094],[-0.19427083333333334,-0.22018518518518515,0.5831000000014939],[-0.24177083333333335,-0.2125925925925926,0.5996999999955293],[-0.2964583333333334,-0.18185185185185182,0.6163999999985137],[-0.35,-0.2337037037037037,0.6330000000000027],[-0.37854166666666667,-0.2814814814814815,0.6510000000000034],[-0.4070833333333333,-0.3292592592592593,0.6663999999985109],[-0.4047916666666667,-0.3014814814814815,0.6831000000014953],[-0.4391666666666667,-0.3320370370370371,0.6996999999955307],[-0.48114583333333333,-0.3827777777777778,0.7163999999985151],[-0.479375,-0.45129629629629625,0.7331000000014924],[-0.45677083333333335,-0.5072222222222221,0.7497999999970233],[-0.3885416666666667,-0.492037037037037,0.7691000000014938],[-0.3123958333333333,-0.4487037037037037,0.7833999999985153],[-0.2522916666666667,-0.3853703703703704,0.7996999999955321],[-0.18583333333333332,-0.3416666666666667,0.8163999999985094],[-0.11124999999999995,-0.29370370370370374,0.8331000000014939],[-0.028541666666666642,-0.24018518518518517,0.8521000000014922],[0.07520833333333338,-0.1801851851851852,0.8663999999985137],[0.14958333333333323,-0.18277777777777776,0.8830000000000027],[0.18020833333333333,-0.1675925925925926,0.8998999999985102],[0.1912499999999999,-0.1301851851851852,0.9165000000000063],[0.14312500000000009,-0.17629629629629628,0.9331000000014953],[0.1306250000000001,-0.19388888888888886,0.9501000000014912],[0.09968750000000005,-0.2361111111111111,0.9663999999985151],[0.09177083333333323,-0.255,0.9831000000014924],[0.07572916666666671,-0.27814814814814814,1.0017999999970257],[0.03687499999999998,-0.32092592592592595,1.0176000000014938],[-0.001979166666666643,-0.36370370370370364,1.0333999999985153],[-0.02020833333333331,-0.35537037037037034,1.049699999995532],[-0.03843749999999998,-0.347037037037037,1.0663999999985094],[-0.03708333333333336,-0.3609259259259259,1.0831000000014939],[-0.06541666666666662,-0.37592592592592594,1.0996999999955293],[-0.11854166666666661,-0.41092592592592586,1.1163999999985137],[-0.16239583333333332,-0.4255555555555556,1.135399999998512],[-0.1638541666666666,-0.3979629629629629,1.152399999998515],[-0.14937499999999998,-0.3933333333333333,1.1681000000014947],[-0.1202083333333333,-0.37462962962962965,1.186],[-0.12072916666666664,-0.3881481481481482,1.2001000000014912],[-0.12145833333333336,-0.3955555555555556,1.2166000000014918],[-0.12229166666666665,-0.3977777777777778,1.2331000000014924],[-0.07520833333333338,-0.3811111111111111,1.2525000000000048],[-0.011979166666666667,-0.35999999999999993,1.266600000001496],[0.06947916666666672,-0.3131481481481482,1.2832999999970198],[0.16010416666666671,-0.262037037037037,1.301799999997023],[0.1851041666666667,-0.2922222222222222,1.3165000000000049],[0.19416666666666677,-0.2994444444444444,1.3331999999955357],[0.20520833333333333,-0.3109259259259259,1.349899999998513],[0.2459374999999999,-0.29018518518518516,1.3686000000014928],[0.2842708333333334,-0.28055555555555556,1.383100000001491],[0.2842708333333334,-0.28055555555555556,1.3997999999970219],[0.32270833333333326,-0.27611111111111114,1.4191000000014924],[0.3267708333333334,-0.2837037037037037,1.43319999999553],[0.33708333333333323,-0.2846296296296296,1.4501000000014912],[0.32916666666666666,-0.31129629629629635,1.4665000000000035],[0.3212500000000001,-0.33796296296296297,1.485699999995532],[0.3288541666666667,-0.3424074074074074,1.5],[0.33645833333333336,-0.34685185185185186,1.5165000000000006],[0.3352083333333333,-0.33555555555555555,1.535100000001492],[0.3389583333333334,-0.3485185185185185,1.5534999999999997],[0.35572916666666665,-0.34759259259259256,1.5676999999955328],[0.3724999999999999,-0.3466666666666666,1.5856000000014916],[0.4099999999999999,-0.30166666666666664,1.599899999998513],[0.44510416666666663,-0.29000000000000004,1.6166000000014904],[0.4664583333333333,-0.2983333333333334,1.6363999999985097],[0.4664583333333333,-0.2983333333333334,1.6498999999985102],[0.47416666666666674,-0.31296296296296294,1.6665000000000063],[0.520625,-0.29240740740740734,1.68319999999553],[0.5670833333333334,-0.2718518518518519,1.7018999999985098],[0.6069791666666667,-0.27907407407407403,1.7165000000000035],[0.6418750000000001,-0.262037037037037,1.7331000000014924],[0.6481250000000001,-0.2548148148148149,1.7497999999970233],[0.654375,-0.24759259259259256,1.7663999999985123],[0.6349999999999999,-0.3127777777777777,1.7863999999985154],[0.6388541666666666,-0.34222222222222226,1.799699999995532],[0.6559375000000001,-0.35351851851851845,1.816299999997021],[0.6866666666666668,-0.35851851851851857,1.8331000000014939],[0.6655208333333335,-0.3875925925925926,1.8508999999985107],[0.6443749999999999,-0.4166666666666667,1.8663999999985137],[0.6366666666666667,-0.4294444444444444,1.8841999999955306],[0.6292708333333332,-0.4524074074074074,1.8997999999970219],[0.6398958333333333,-0.46833333333333327,1.9162999999970225],[0.6503125,-0.4781481481481481,1.9329999999999998],[0.6520833333333333,-0.46648148148148144,1.9501000000014912],[0.6303124999999999,-0.4474074074074075,1.9663999999985151],[0.6041666666666666,-0.45,1.9831000000014924],[0.5830208333333334,-0.41388888888888886,2.0010000000000048],[0.5594791666666665,-0.40129629629629626,2.02039999999851],[0.5359375,-0.38870370370370366,2.03929999999702],[0.5359375,-0.38870370370370366,2.049699999995532],[0.5079166666666666,-0.4103703703703704,2.0663999999985094],[0.48156249999999995,-0.4072222222222222,2.0830000000000055],[0.4552083333333333,-0.40407407407407403,2.1048999999985156],[0.4413541666666667,-0.39444444444444443,2.1211999999955324],[0.4413541666666667,-0.39444444444444443,2.133100000001491],[0.4161458333333333,-0.41462962962962957,2.1496999999955335],[0.4161458333333333,-0.41462962962962957,2.166399999998511],[0.4322916666666667,-0.40685185185185185,2.1831000000014953],[0.4322916666666667,-0.40685185185185185,2.1996999999955307],[0.43291666666666656,-0.41203703703703703,2.216399999998515],[0.43291666666666656,-0.41203703703703703,2.237399999998516],[0.42135416666666664,-0.4855555555555555,2.2498999999985188],[0.42135416666666664,-0.4855555555555555,2.2663999999985123],[0.41083333333333344,-0.562962962962963,2.2830000000000013],[0.40083333333333326,-0.5433333333333333,2.3001000000014926],[0.40166666666666656,-0.5216666666666666,2.3163999999985094],[0.41281249999999997,-0.5007407407407407,2.3329999999999984],[0.4239583333333333,-0.47981481481481486,2.3497999999970176],[0.41916666666666674,-0.5251851851851852,2.3662999999970253],[0.4257291666666667,-0.5416666666666666,2.383100000001491],[0.3988541666666668,-0.5131481481481482,2.3996999999955335],[0.3919791666666666,-0.4474074074074075,2.416399999998518],[0.3897916666666667,-0.35851851851851857,2.433000000000007],[0.3890625,-0.27518518518518525,2.451299999997019],[0.40593750000000006,-0.28574074074074074,2.4662999999970197],[0.3959374999999999,-0.2603703703703704,2.4831000000014996],[0.37562499999999993,-0.24592592592592594,2.499699999995528],[0.37166666666666665,-0.24314814814814817,2.516299999997017],[0.37135416666666665,-0.18666666666666668,2.5330000000000013],[0.36614583333333334,-0.13777777777777775,2.549699999995539],[0.37041666666666656,-0.15722222222222218,2.566299999997028],[0.3877083333333334,-0.18037037037037032,2.583100000001494],[0.3919791666666666,-0.19796296296296292,2.5996999999955364],[0.3792708333333332,-0.21129629629629634,2.6162999999970253],[0.3484375,-0.22777777777777777,2.633100000001491],[0.35750000000000004,-0.2485185185185185,2.6496999999955335],[0.3645833333333333,-0.2722222222222222,2.666399999998518],[0.3553124999999999,-0.28425925925925927,2.683000000000007],[0.3400000000000001,-0.3037037037037037,2.6996999999955307],[0.3462500000000001,-0.3020370370370371,2.7162999999970197],[0.36083333333333345,-0.31351851851851853,2.7331000000014996],[0.3628124999999999,-0.322037037037037,2.75],[0.3741666666666667,-0.3290740740740741,2.7663999999985123],[0.4002083333333334,-0.325,2.7831999999955315],[0.44166666666666665,-0.33055555555555555,2.799699999995539],[0.46375000000000005,-0.33555555555555555,2.816500000000005]]","[0.0001000000014954594,0.019799999997019313,0.03769999999553164,0.055199999995529936,0.069500000000005,0.08310000000149387,0.10429999999702488,0.11650000000000205,0.13310000000149103,0.14969999999553352,0.1665000000000063,0.1831000000014953,0.20000000000000284,0.2163999999985151,0.23310000000149245,0.2497999999970233,0.26639999999851227,0.2831000000014967,0.29979999999702045,0.31639999999850943,0.33310000000149387,0.3497999999970247,0.36650000000000205,0.383100000001491,0.3996999999955335,0.4165000000000063,0.4331000000014953,0.44979999999702613,0.4663999999985151,0.48310000000149245,0.49969999999553494,0.5163999999985123,0.5331000000014967,0.5497999999970204,0.5663999999985094,0.5831000000014939,0.5996999999955293,0.6163999999985137,0.6330000000000027,0.6510000000000034,0.6663999999985109,0.6831000000014953,0.6996999999955307,0.7163999999985151,0.7331000000014924,0.7497999999970233,0.7691000000014938,0.7833999999985153,0.7996999999955321,0.8163999999985094,0.8331000000014939,0.8521000000014922,0.8663999999985137,0.8830000000000027,0.8998999999985102,0.9165000000000063,0.9331000000014953,0.9501000000014912,0.9663999999985151,0.9831000000014924,1.0017999999970257,1.0176000000014938,1.0333999999985153,1.049699999995532,1.0663999999985094,1.0831000000014939,1.0996999999955293,1.1163999999985137,1.135399999998512,1.152399999998515,1.1681000000014947,1.186,1.2001000000014912,1.2166000000014918,1.2331000000014924,1.2525000000000048,1.266600000001496,1.2832999999970198,1.301799999997023,1.3165000000000049,1.3331999999955357,1.349899999998513,1.3686000000014928,1.383100000001491,1.3997999999970219,1.4191000000014924,1.43319999999553,1.4501000000014912,1.4665000000000035,1.485699999995532,1.5,1.5165000000000006,1.535100000001492,1.5534999999999997,1.5676999999955328,1.5856000000014916,1.599899999998513,1.6166000000014904,1.6363999999985097,1.6498999999985102,1.6665000000000063,1.68319999999553,1.7018999999985098,1.7165000000000035,1.7331000000014924,1.7497999999970233,1.7663999999985123,1.7863999999985154,1.799699999995532,1.816299999997021,1.8331000000014939,1.8508999999985107,1.8663999999985137,1.8841999999955306,1.8997999999970219,1.9162999999970225,1.9329999999999998,1.9501000000014912,1.9663999999985151,1.9831000000014924,2.0010000000000048,2.02039999999851,2.03929999999702,2.049699999995532,2.0663999999985094,2.0830000000000055,2.1048999999985156,2.1211999999955324,2.133100000001491,2.1496999999955335,2.166399999998511,2.1831000000014953,2.1996999999955307,2.216399999998515,2.237399999998516,2.2498999999985188,2.2663999999985123,2.2830000000000013,2.3001000000014926,2.3163999999985094,2.3329999999999984,2.3497999999970176,2.3662999999970253,2.383100000001491,2.3996999999955335,2.416399999998518,2.433000000000007,2.451299999997019,2.4662999999970197,2.4831000000014996,2.499699999995528,2.516299999997017,2.5330000000000013,2.549699999995539,2.566299999997028,2.583100000001494,2.5996999999955364,2.6162999999970253,2.633100000001491,2.6496999999955335,2.666399999998518,2.683000000000007,2.6996999999955307,2.7162999999970197,2.7331000000014996,2.75,2.7663999999985123,2.7831999999955315,2.799699999995539,2.816500000000005]","[1733284205722,1733284205741,1733284205758,1733284205776,1733284205790,1733284205804,1733284205825,1733284205837,1733284205854,1733284205871,1733284205887,1733284205904,1733284205921,1733284205937,1733284205954,1733284205970,1733284205987,1733284206004,1733284206021,1733284206037,1733284206054,1733284206071,1733284206087,1733284206104,1733284206120,1733284206137,1733284206154,1733284206170,1733284206187,1733284206204,1733284206220,1733284206237,1733284206254,1733284206271,1733284206287,1733284206304,1733284206320,1733284206337,1733284206354,1733284206372,1733284206387,1733284206404,1733284206420,1733284206437,1733284206454,1733284206470,1733284206490,1733284206504,1733284206520,1733284206537,1733284206554,1733284206573,1733284206587,1733284206604,1733284206621,1733284206637,1733284206654,1733284206671,1733284206687,1733284206704,1733284206723,1733284206738,1733284206754,1733284206770,1733284206787,1733284206804,1733284206820,1733284206837,1733284206856,1733284206873,1733284206889,1733284206907,1733284206921,1733284206937,1733284206954,1733284206973,1733284206987,1733284207004,1733284207023,1733284207037,1733284207054,1733284207071,1733284207089,1733284207104,1733284207121,1733284207140,1733284207154,1733284207171,1733284207187,1733284207206,1733284207221,1733284207237,1733284207256,1733284207274,1733284207288,1733284207306,1733284207321,1733284207337,1733284207357,1733284207371,1733284207387,1733284207404,1733284207423,1733284207437,1733284207454,1733284207471,1733284207487,1733284207507,1733284207520,1733284207537,1733284207554,1733284207572,1733284207587,1733284207605,1733284207620,1733284207637,1733284207654,1733284207671,1733284207687,1733284207704,1733284207722,1733284207741,1733284207760,1733284207770,1733284207787,1733284207804,1733284207826,1733284207842,1733284207854,1733284207871,1733284207887,1733284207904,1733284207920,1733284207937,1733284207958,1733284207971,1733284207987,1733284208004,1733284208021,1733284208037,1733284208054,1733284208071,1733284208087,1733284208104,1733284208120,1733284208137,1733284208154,1733284208172,1733284208187,1733284208204,1733284208220,1733284208237,1733284208254,1733284208270,1733284208287,1733284208304,1733284208320,1733284208337,1733284208354,1733284208371,1733284208387,1733284208404,1733284208420,1733284208437,1733284208454,1733284208471,1733284208487,1733284208504,1733284208520,1733284208537]","[[1223.5,410.7],[1200.4,371.7],[1200.4,371.7],[1198.3,348],[1187.3,329.7],[1187.7,343],[1188.1,356.3],[1188.1,356.3],[1172.6,341.3],[1172.6,341.3],[1174.4,366.1],[1174.4,366.1],[1188.5,386.3],[1188.5,386.3],[1224.3,421.2],[1224.3,421.2],[1239.2,446.2],[1239.2,446.2],[1254.1,471.2],[1239.3,448.8],[1241,457.1],[1241,457.1],[1243.6,473.3],[1243.6,495.8],[1221.9,488.6],[1199.9,485.7],[1173.4,465.5],[1142.5,413.9],[1122.1,408.3],[1071.6,411.1],[1029.8,446],[950.8,404],[886.8,390],[841.3,383.5],[830.4,426.4],[773.5,421.1],[727.9,425.2],[675.4,441.8],[624,413.8],[596.6,388],[569.2,362.2],[571.4,377.2],[538.4,360.7],[498.1,333.3],[499.8,296.3],[521.5,266.1],[587,274.3],[660.1,297.7],[717.8,331.9],[781.6,355.5],[853.2,381.4],[932.6,410.3],[1032.2,442.7],[1103.6,441.3],[1133,449.5],[1143.6,469.7],[1097.4,444.8],[1085.4,435.3],[1055.7,412.5],[1048.1,402.3],[1032.7,389.8],[995.4,366.7],[958.1,343.6],[940.6,348.1],[923.1,352.6],[924.4,345.1],[897.2,337],[846.2,318.1],[804.1,310.2],[802.7,325.1],[816.6,327.6],[844.6,337.7],[844.1,330.4],[843.4,326.4],[842.6,325.2],[887.8,334.2],[948.5,345.6],[1026.7,370.9],[1113.7,398.5],[1137.7,382.2],[1146.4,378.3],[1157,372.1],[1196.1,383.3],[1232.9,388.5],[1232.9,388.5],[1269.8,390.9],[1273.7,386.8],[1283.6,386.3],[1276,371.9],[1268.4,357.5],[1275.7,355.1],[1283,352.7],[1281.8,358.8],[1285.4,351.8],[1301.5,352.3],[1317.6,352.8],[1353.6,377.1],[1387.3,383.4],[1407.8,378.9],[1407.8,378.9],[1415.2,371],[1459.8,382.1],[1504.4,393.2],[1542.7,389.3],[1576.2,398.5],[1582.2,402.4],[1588.2,406.3],[1569.6,371.1],[1573.3,355.2],[1589.7,349.1],[1619.2,346.4],[1598.9,330.7],[1578.6,315],[1571.2,308.1],[1564.1,295.7],[1574.3,287.1],[1584.3,281.8],[1586,288.1],[1565.1,298.4],[1540,297],[1519.7,316.5],[1497.1,323.3],[1474.5,330.1],[1474.5,330.1],[1447.6,318.4],[1422.3,320.1],[1397,321.8],[1383.7,327],[1383.7,327],[1359.5,316.1],[1359.5,316.1],[1375,320.3],[1375,320.3],[1375.6,317.5],[1375.6,317.5],[1364.5,277.8],[1364.5,277.8],[1354.4,236],[1344.8,246.6],[1345.6,258.3],[1356.3,269.6],[1367,280.9],[1362.4,256.4],[1368.7,247.5],[1342.9,262.9],[1336.3,298.4],[1334.2,346.4],[1333.5,391.4],[1349.7,385.7],[1340.1,399.4],[1320.6,407.2],[1316.8,408.7],[1316.5,439.2],[1311.5,465.6],[1315.6,455.1],[1332.2,442.6],[1336.3,433.1],[1324.1,425.9],[1294.5,417],[1303.2,405.8],[1310,393],[1301.1,386.5],[1286.4,376],[1292.4,376.9],[1306.4,370.7],[1308.3,366.1],[1319.2,362.3],[1344.2,364.5],[1384,361.5],[1405.2,358.8]]","[0,0.5333]","[0.5333,0.5333]","[-0.5333,0]","[-0.5333,-0.5333]","[0,0]","[0.5333,0]","[0,-0.5333]","[0.5333,-0.5333]",0,1,1,1,1,1,Monitor,9,1,11,5
