inst1_resp.keys,inst1_resp.rt,calibrationMouse.x,calibrationMouse.y,calibrationMouse.leftButton,calibrationMouse.midButton,calibrationMouse.rightButton,calibrationClick.x,calibrationClick.y,calibrationClick.leftButton,calibrationClick.midButton,calibrationClick.rightButton,calibrationClick.clicked_name,trialsc.thisRepN,trialsc.thisTrialN,trialsc.thisN,trialsc.thisIndex,trialsc.ran,calibration_x,calibration_y,participant,session,date,expName,psychopyVersion,OS,frameRate,ScreenRes_pixels,Camera_pixels,mouse_2.x,mouse_2.y,mouse_2.leftButton,mouse_2.midButton,mouse_2.rightButton,mouse_2.time,mouse_2.clicked_name,mouse.x,mouse.y,mouse.leftButton,mouse.midButton,mouse.rightButton,mouse.time,mouse.clicked_name,Choice,Trial,TrialDuration,MOUSE_GAZE,ET_GAZE,ET_GAZE_x_T,time,unixTime,ET_GAZE_NF,Loc_Option1_label,Loc_Option2_label,Loc_Cost_label,Loc_Qual_label,Loc_Option1_cost,Loc_Option2_cost,Loc_Option1_quality,Loc_Option2_quality,trials.thisRepN,trials.thisTrialN,trials.thisN,trials.thisIndex,trials.ran,Block,Device,cost1,qual1,cost2,qual2
space,2.066,0.1125,-0.105555556,1,0,0,-0.667708333,0.001851852,1,0,0,calibration_square,0,0,0,2,1,-0.67,0,31,001,2024-12-05_14h45.07.080,Attention_exp_legacy,2023.1.0,Win32,59.88023952,,,,,,,,,,,,,,,,,,,,,,,,,,,,,,,,,,,,,,,,,,,,
,,,,,,,-0.66875,-0.677777778,1,0,0,calibration_square,0,1,1,0,1,-0.67,-0.67,31,001,2024-12-05_14h45.07.080,Attention_exp_legacy,2023.1.0,Win32,59.88023952,,,,,,,,,,,,,,,,,,,,,,,,,,,,,,,,,,,,,,,,,,,,
,,,,,,,0,-0.664814815,1,0,0,calibration_square,0,2,2,9,1,0,-0.67,31,001,2024-12-05_14h45.07.080,Attention_exp_legacy,2023.1.0,Win32,59.88023952,,,,,,,,,,,,,,,,,,,,,,,,,,,,,,,,,,,,,,,,,,,,
,,,,,,,-0.332291667,0.344444444,1,0,0,,0,3,3,7,1,-0.33,0.33,31,001,2024-12-05_14h45.07.080,Attention_exp_legacy,2023.1.0,Win32,59.88023952,,,,,,,,,,,,,,,,,,,,,,,,,,,,,,,,,,,,,,,,,,,,
,,,,,,,0.673958333,0.690740741,1,0,0,,0,4,4,19,1,0.67,0.67,31,001,2024-12-05_14h45.07.080,Attention_exp_legacy,2023.1.0,Win32,59.88023952,,,,,,,,,,,,,,,,,,,,,,,,,,,,,,,,,,,,,,,,,,,,
,,,,,,,-0.321875,-0.005555556,1,0,0,calibration_square,0,5,5,6,1,-0.33,0,31,001,2024-12-05_14h45.07.080,Attention_exp_legacy,2023.1.0,Win32,59.88023952,,,,,,,,,,,,,,,,,,,,,,,,,,,,,,,,,,,,,,,,,,,,
,,,,,,,0.322916667,-0.331481481,1,0,0,calibration_square,0,6,6,15,1,0.33,-0.33,31,001,2024-12-05_14h45.07.080,Attention_exp_legacy,2023.1.0,Win32,59.88023952,,,,,,,,,,,,,,,,,,,,,,,,,,,,,,,,,,,,,,,,,,,,
,,,,,,,-0.31875,-0.322222222,1,0,0,,0,7,7,5,1,-0.33,-0.33,31,001,2024-12-05_14h45.07.080,Attention_exp_legacy,2023.1.0,Win32,59.88023952,,,,,,,,,,,,,,,,,,,,,,,,,,,,,,,,,,,,,,,,,,,,
,,,,,,,0.010416667,0.675925926,1,0,0,,0,8,8,13,1,0,0.67,31,001,2024-12-05_14h45.07.080,Attention_exp_legacy,2023.1.0,Win32,59.88023952,,,,,,,,,,,,,,,,,,,,,,,,,,,,,,,,,,,,,,,,,,,,
,,,,,,,-0.336458333,-0.653703704,1,0,0,,0,9,9,4,1,-0.33,-0.67,31,001,2024-12-05_14h45.07.080,Attention_exp_legacy,2023.1.0,Win32,59.88023952,,,,,,,,,,,,,,,,,,,,,,,,,,,,,,,,,,,,,,,,,,,,
,,,,,,,-0.328125,0.683333333,1,0,0,,0,10,10,8,1,-0.33,0.67,31,001,2024-12-05_14h45.07.080,Attention_exp_legacy,2023.1.0,Win32,59.88023952,,,,,,,,,,,,,,,,,,,,,,,,,,,,,,,,,,,,,,,,,,,,
,,,,,,,0.338541667,0.009259259,1,0,0,calibration_square,0,11,11,16,1,0.33,0,31,001,2024-12-05_14h45.07.080,Attention_exp_legacy,2023.1.0,Win32,59.88023952,,,,,,,,,,,,,,,,,,,,,,,,,,,,,,,,,,,,,,,,,,,,
,,,,,,,-0.663541667,0.335185185,1,0,0,calibration_square,0,12,12,3,1,-0.67,0.33,31,001,2024-12-05_14h45.07.080,Attention_exp_legacy,2023.1.0,Win32,59.88023952,,,,,,,,,,,,,,,,,,,,,,,,,,,,,,,,,,,,,,,,,,,,
,,,,,,,0.667708333,-0.67037037,1,0,0,calibration_square,0,13,13,20,1,0.67,-0.67,31,001,2024-12-05_14h45.07.080,Attention_exp_legacy,2023.1.0,Win32,59.88023952,,,,,,,,,,,,,,,,,,,,,,,,,,,,,,,,,,,,,,,,,,,,
,,,,,,,-0.005208333,0.335185185,1,0,0,calibration_square,0,14,14,12,1,0,0.33,31,001,2024-12-05_14h45.07.080,Attention_exp_legacy,2023.1.0,Win32,59.88023952,,,,,,,,,,,,,,,,,,,,,,,,,,,,,,,,,,,,,,,,,,,,
,,,,,,,0.3375,0.688888889,1,0,0,,0,15,15,18,1,0.33,0.67,31,001,2024-12-05_14h45.07.080,Attention_exp_legacy,2023.1.0,Win32,59.88023952,,,,,,,,,,,,,,,,,,,,,,,,,,,,,,,,,,,,,,,,,,,,
,,,,,,,-0.011458333,0.02037037,1,0,0,,0,16,16,11,1,0,0,31,001,2024-12-05_14h45.07.080,Attention_exp_legacy,2023.1.0,Win32,59.88023952,,,,,,,,,,,,,,,,,,,,,,,,,,,,,,,,,,,,,,,,,,,,
,,,,,,,0.013541667,-0.348148148,1,0,0,,0,17,17,10,1,0,-0.33,31,001,2024-12-05_14h45.07.080,Attention_exp_legacy,2023.1.0,Win32,59.88023952,,,,,,,,,,,,,,,,,,,,,,,,,,,,,,,,,,,,,,,,,,,,
,,,,,,,-0.678125,-0.312962963,1,0,0,,0,18,18,1,1,-0.67,-0.33,31,001,2024-12-05_14h45.07.080,Attention_exp_legacy,2023.1.0,Win32,59.88023952,,,,,,,,,,,,,,,,,,,,,,,,,,,,,,,,,,,,,,,,,,,,
,,,,,,,0.34375,-0.677777778,1,0,0,,0,19,19,14,1,0.33,-0.67,31,001,2024-12-05_14h45.07.080,Attention_exp_legacy,2023.1.0,Win32,59.88023952,,,,,,,,,,,,,,,,,,,,,,,,,,,,,,,,,,,,,,,,,,,,
,,,,,,,0.336458333,0.327777778,1,0,0,calibration_square,0,20,20,17,1,0.33,0.33,31,001,2024-12-05_14h45.07.080,Attention_exp_legacy,2023.1.0,Win32,59.88023952,,,,,,,,,,,,,,,,,,,,,,,,,,,,,,,,,,,,,,,,,,,,
,,,,,,,,,,,,,,,,,,,,31,001,2024-12-05_14h45.07.080,Attention_exp_legacy,2023.1.0,Win32,59.88023952,"[1920,1080]","[640,480]",[-0.026041666666666668],[-0.48518518518518516],[1],[0],[0],[8.875999999999998],"[""StartButton""]",[0.3229166666666667],[0.40185185185185185],[1],[0],[0],[6.137900000005956],"[""Option2_label""]",Option2_label,1,7.1617,"[[-0.058333333333333334,-0.05185185185185185],[-0.058333333333333334,-0.05185185185185185],[-0.058333333333333334,-0.05185185185185185],[-0.058333333333333334,-0.05185185185185185],[-0.058333333333333334,-0.05185185185185185],[-0.058333333333333334,-0.05185185185185185],[-0.058333333333333334,-0.05185185185185185],[-0.058333333333333334,-0.05185185185185185],[-0.058333333333333334,-0.05185185185185185],[-0.058333333333333334,-0.05185185185185185],[-0.058333333333333334,-0.05185185185185185],[-0.058333333333333334,-0.05185185185185185],[-0.058333333333333334,-0.05185185185185185],[-0.058333333333333334,-0.05185185185185185],[-0.058333333333333334,-0.05185185185185185],[-0.058333333333333334,-0.05185185185185185],[-0.058333333333333334,-0.05185185185185185],[-0.058333333333333334,-0.05185185185185185],[-0.058333333333333334,-0.05185185185185185],[-0.058333333333333334,-0.05185185185185185],[-0.058333333333333334,-0.05185185185185185],[-0.058333333333333334,-0.05185185185185185],[-0.058333333333333334,-0.05185185185185185],[-0.058333333333333334,-0.05185185185185185],[-0.058333333333333334,-0.05185185185185185],[-0.058333333333333334,-0.05185185185185185],[-0.058333333333333334,-0.05185185185185185],[-0.058333333333333334,-0.05185185185185185],[-0.058333333333333334,-0.05185185185185185],[-0.058333333333333334,-0.05185185185185185],[-0.058333333333333334,-0.05185185185185185],[-0.058333333333333334,-0.05185185185185185],[-0.058333333333333334,-0.05185185185185185],[-0.058333333333333334,-0.05185185185185185],[-0.058333333333333334,-0.05185185185185185],[-0.058333333333333334,-0.05185185185185185],[-0.058333333333333334,-0.05185185185185185],[-0.058333333333333334,-0.05185185185185185],[-0.058333333333333334,-0.05185185185185185],[-0.058333333333333334,-0.05185185185185185],[-0.058333333333333334,-0.05185185185185185],[-0.058333333333333334,-0.05185185185185185],[-0.058333333333333334,-0.05185185185185185],[-0.058333333333333334,-0.05185185185185185],[-0.058333333333333334,-0.05185185185185185],[-0.058333333333333334,-0.05185185185185185],[-0.058333333333333334,-0.05185185185185185],[-0.058333333333333334,-0.05185185185185185],[-0.058333333333333334,-0.05185185185185185],[-0.058333333333333334,-0.05185185185185185],[-0.058333333333333334,-0.05185185185185185],[-0.058333333333333334,-0.05185185185185185],[-0.058333333333333334,-0.05185185185185185],[-0.058333333333333334,-0.05185185185185185],[-0.057291666666666664,-0.05],[-0.057291666666666664,-0.046296296296296294],[-0.057291666666666664,-0.046296296296296294],[-0.05625,-0.04259259259259259],[-0.05520833333333333,-0.03333333333333333],[-0.053125,-0.027777777777777776],[-0.051041666666666666,-0.016666666666666666],[-0.04895833333333333,-0.012962962962962963],[-0.04583333333333333,-0.003703703703703704],[-0.04375,0.011111111111111112],[-0.040625,0.018518518518518517],[-0.036458333333333336,0.03333333333333333],[-0.03333333333333333,0.046296296296296294],[-0.03125,0.06111111111111111],[-0.029166666666666667,0.07592592592592592],[-0.027083333333333334,0.08888888888888889],[-0.021875,0.11851851851851852],[-0.019791666666666666,0.13518518518518519],[-0.017708333333333333,0.14629629629629629],[-0.015625,0.1574074074074074],[-0.015625,0.15925925925925927],[-0.015625,0.16666666666666666],[-0.014583333333333334,0.17222222222222222],[-0.013541666666666667,0.17777777777777778],[-0.0125,0.18518518518518517],[-0.011458333333333333,0.18888888888888888],[-0.010416666666666666,0.1925925925925926],[-0.010416666666666666,0.1925925925925926],[-0.010416666666666666,0.19444444444444445],[-0.010416666666666666,0.19444444444444445],[-0.010416666666666666,0.19444444444444445],[-0.010416666666666666,0.19444444444444445],[-0.010416666666666666,0.19444444444444445],[-0.010416666666666666,0.19444444444444445],[-0.010416666666666666,0.19444444444444445],[-0.010416666666666666,0.19444444444444445],[-0.010416666666666666,0.19444444444444445],[-0.010416666666666666,0.19444444444444445],[-0.010416666666666666,0.19444444444444445],[-0.010416666666666666,0.19444444444444445],[-0.010416666666666666,0.19444444444444445],[-0.010416666666666666,0.19444444444444445],[-0.010416666666666666,0.19444444444444445],[-0.010416666666666666,0.19444444444444445],[-0.010416666666666666,0.19444444444444445],[-0.010416666666666666,0.19444444444444445],[-0.010416666666666666,0.19444444444444445],[-0.010416666666666666,0.19444444444444445],[-0.009375,0.19444444444444445],[-0.008333333333333333,0.19444444444444445],[-0.008333333333333333,0.19074074074074074],[-0.007291666666666667,0.18888888888888888],[-0.007291666666666667,0.18888888888888888],[-0.007291666666666667,0.18888888888888888],[-0.00625,0.18888888888888888],[-0.003125,0.18888888888888888],[0.0020833333333333333,0.18888888888888888],[0.009375,0.1925925925925926],[0.01875,0.20185185185185187],[0.028125,0.2111111111111111],[0.03229166666666667,0.21481481481481482],[0.03854166666666667,0.22037037037037038],[0.04375,0.22777777777777777],[0.05,0.2351851851851852],[0.058333333333333334,0.25],[0.06458333333333334,0.26481481481481484],[0.071875,0.28703703703703703],[0.078125,0.30185185185185187],[0.08541666666666667,0.32037037037037036],[0.09166666666666666,0.3388888888888889],[0.09270833333333334,0.34074074074074073],[0.09583333333333334,0.35],[0.1,0.3611111111111111],[0.10208333333333333,0.3685185185185185],[0.10416666666666667,0.37407407407407406],[0.109375,0.3851851851851852],[0.1125,0.3907407407407407],[0.115625,0.4],[0.11875,0.40370370370370373],[0.12083333333333333,0.40925925925925927],[0.12291666666666666,0.4111111111111111],[0.12395833333333334,0.412962962962963],[0.12708333333333333,0.4203703703703704],[0.12708333333333333,0.4222222222222222],[0.12916666666666668,0.42592592592592593],[0.13020833333333334,0.42592592592592593],[0.13125,0.42962962962962964],[0.13125,0.43148148148148147],[0.13333333333333333,0.4351851851851852],[0.134375,0.43703703703703706],[0.134375,0.43703703703703706],[0.13645833333333332,0.4388888888888889],[0.13645833333333332,0.44074074074074077],[0.13854166666666667,0.4425925925925926],[0.13958333333333334,0.4462962962962963],[0.14166666666666666,0.45],[0.14479166666666668,0.4537037037037037],[0.146875,0.45555555555555555],[0.14791666666666667,0.45925925925925926],[0.14895833333333333,0.46111111111111114],[0.15,0.4648148148148148],[0.15,0.4648148148148148],[0.15,0.4666666666666667],[0.15,0.4703703703703704],[0.15,0.4703703703703704],[0.15,0.4722222222222222],[0.15,0.4740740740740741],[0.15,0.4759259259259259],[0.15,0.4777777777777778],[0.15,0.47962962962962963],[0.14895833333333333,0.48148148148148145],[0.14895833333333333,0.48148148148148145],[0.146875,0.48333333333333334],[0.14479166666666668,0.48703703703703705],[0.14270833333333333,0.48703703703703705],[0.13854166666666667,0.48703703703703705],[0.13541666666666666,0.4888888888888889],[0.128125,0.4888888888888889],[0.12291666666666666,0.4888888888888889],[0.11458333333333333,0.48518518518518516],[0.10729166666666666,0.48148148148148145],[0.09791666666666667,0.4759259259259259],[0.0875,0.4703703703703704],[0.08020833333333334,0.46296296296296297],[0.075,0.45925925925925926],[0.07083333333333333,0.4537037037037037],[0.06666666666666667,0.45],[0.0625,0.4462962962962963],[0.059375,0.44074074074074077],[0.05625,0.43703703703703706],[0.052083333333333336,0.43333333333333335],[0.04895833333333333,0.42962962962962964],[0.04895833333333333,0.42962962962962964],[0.04583333333333333,0.42777777777777776],[0.04583333333333333,0.42777777777777776],[0.04479166666666667,0.42777777777777776],[0.042708333333333334,0.42407407407407405],[0.042708333333333334,0.42407407407407405],[0.042708333333333334,0.42407407407407405],[0.042708333333333334,0.42407407407407405],[0.042708333333333334,0.42407407407407405],[0.042708333333333334,0.42407407407407405],[0.042708333333333334,0.42407407407407405],[0.042708333333333334,0.42407407407407405],[0.042708333333333334,0.42407407407407405],[0.042708333333333334,0.42407407407407405],[0.042708333333333334,0.42407407407407405],[0.042708333333333334,0.42407407407407405],[0.042708333333333334,0.42407407407407405],[0.042708333333333334,0.42407407407407405],[0.042708333333333334,0.42407407407407405],[0.042708333333333334,0.42407407407407405],[0.042708333333333334,0.42407407407407405],[0.042708333333333334,0.42407407407407405],[0.042708333333333334,0.42407407407407405],[0.042708333333333334,0.42407407407407405],[0.042708333333333334,0.42407407407407405],[0.042708333333333334,0.42407407407407405],[0.042708333333333334,0.42407407407407405],[0.042708333333333334,0.42407407407407405],[0.042708333333333334,0.42407407407407405],[0.042708333333333334,0.42407407407407405],[0.042708333333333334,0.42407407407407405],[0.042708333333333334,0.42407407407407405],[0.042708333333333334,0.42407407407407405],[0.042708333333333334,0.42407407407407405],[0.042708333333333334,0.42407407407407405],[0.042708333333333334,0.42407407407407405],[0.042708333333333334,0.42407407407407405],[0.042708333333333334,0.42407407407407405],[0.042708333333333334,0.42407407407407405],[0.042708333333333334,0.42407407407407405],[0.042708333333333334,0.42407407407407405],[0.042708333333333334,0.42407407407407405],[0.042708333333333334,0.42407407407407405],[0.042708333333333334,0.42407407407407405],[0.042708333333333334,0.42407407407407405],[0.042708333333333334,0.42407407407407405],[0.042708333333333334,0.42407407407407405],[0.042708333333333334,0.42407407407407405],[0.042708333333333334,0.42407407407407405],[0.042708333333333334,0.42407407407407405],[0.042708333333333334,0.42407407407407405],[0.042708333333333334,0.42407407407407405],[0.042708333333333334,0.42407407407407405],[0.042708333333333334,0.42407407407407405],[0.042708333333333334,0.42407407407407405],[0.042708333333333334,0.42407407407407405],[0.042708333333333334,0.42407407407407405],[0.042708333333333334,0.42407407407407405],[0.042708333333333334,0.42407407407407405],[0.042708333333333334,0.42407407407407405],[0.042708333333333334,0.42407407407407405],[0.042708333333333334,0.42407407407407405],[0.042708333333333334,0.42407407407407405],[0.042708333333333334,0.42407407407407405],[0.042708333333333334,0.42407407407407405],[0.042708333333333334,0.42407407407407405],[0.042708333333333334,0.42407407407407405],[0.042708333333333334,0.42407407407407405],[0.042708333333333334,0.42407407407407405],[0.042708333333333334,0.42407407407407405],[0.042708333333333334,0.42407407407407405],[0.042708333333333334,0.42407407407407405],[0.042708333333333334,0.42407407407407405],[0.042708333333333334,0.42407407407407405],[0.042708333333333334,0.42407407407407405],[0.042708333333333334,0.42407407407407405],[0.042708333333333334,0.42407407407407405],[0.042708333333333334,0.42407407407407405],[0.042708333333333334,0.4222222222222222],[0.042708333333333334,0.4222222222222222],[0.042708333333333334,0.4222222222222222],[0.042708333333333334,0.4222222222222222],[0.042708333333333334,0.4222222222222222],[0.042708333333333334,0.4222222222222222],[0.042708333333333334,0.4222222222222222],[0.042708333333333334,0.4222222222222222],[0.042708333333333334,0.4222222222222222],[0.042708333333333334,0.4222222222222222],[0.042708333333333334,0.4222222222222222],[0.042708333333333334,0.4222222222222222],[0.042708333333333334,0.4222222222222222],[0.042708333333333334,0.4222222222222222],[0.042708333333333334,0.4222222222222222],[0.042708333333333334,0.4222222222222222],[0.041666666666666664,0.4185185185185185],[0.041666666666666664,0.4185185185185185],[0.041666666666666664,0.4185185185185185],[0.041666666666666664,0.4185185185185185],[0.041666666666666664,0.4185185185185185],[0.041666666666666664,0.4185185185185185],[0.041666666666666664,0.4185185185185185],[0.041666666666666664,0.4185185185185185],[0.041666666666666664,0.4185185185185185],[0.041666666666666664,0.4185185185185185],[0.041666666666666664,0.4185185185185185],[0.041666666666666664,0.4185185185185185],[0.041666666666666664,0.4185185185185185],[0.041666666666666664,0.4185185185185185],[0.041666666666666664,0.4185185185185185],[0.041666666666666664,0.4185185185185185],[0.041666666666666664,0.4185185185185185],[0.041666666666666664,0.4185185185185185],[0.041666666666666664,0.4185185185185185],[0.041666666666666664,0.4185185185185185],[0.041666666666666664,0.4185185185185185],[0.041666666666666664,0.4185185185185185],[0.041666666666666664,0.4185185185185185],[0.041666666666666664,0.4185185185185185],[0.041666666666666664,0.4185185185185185],[0.041666666666666664,0.4185185185185185],[0.041666666666666664,0.4185185185185185],[0.041666666666666664,0.4185185185185185],[0.041666666666666664,0.4185185185185185],[0.041666666666666664,0.4185185185185185],[0.041666666666666664,0.4185185185185185],[0.041666666666666664,0.4185185185185185],[0.041666666666666664,0.4185185185185185],[0.041666666666666664,0.4185185185185185],[0.041666666666666664,0.4185185185185185],[0.041666666666666664,0.4185185185185185],[0.041666666666666664,0.4185185185185185],[0.041666666666666664,0.4185185185185185],[0.041666666666666664,0.4185185185185185],[0.041666666666666664,0.4185185185185185],[0.041666666666666664,0.4185185185185185],[0.041666666666666664,0.4185185185185185],[0.042708333333333334,0.4185185185185185],[0.051041666666666666,0.4185185185185185],[0.05625,0.4185185185185185],[0.0625,0.4185185185185185],[0.07083333333333333,0.4185185185185185],[0.08125,0.4185185185185185],[0.08958333333333333,0.4185185185185185],[0.09791666666666667,0.4185185185185185],[0.10416666666666667,0.4185185185185185],[0.10833333333333334,0.4185185185185185],[0.11041666666666666,0.4185185185185185],[0.11145833333333334,0.4185185185185185],[0.11145833333333334,0.4185185185185185],[0.1125,0.4185185185185185],[0.1125,0.4185185185185185],[0.1125,0.4185185185185185],[0.11458333333333333,0.4185185185185185],[0.115625,0.4185185185185185],[0.11875,0.4185185185185185],[0.12291666666666666,0.4166666666666667],[0.134375,0.4148148148148148],[0.14583333333333334,0.4148148148148148],[0.16145833333333334,0.4111111111111111],[0.17083333333333334,0.40925925925925927],[0.19270833333333334,0.4074074074074074],[0.23020833333333332,0.4074074074074074],[0.25625,0.40555555555555556],[0.2760416666666667,0.40555555555555556],[0.29270833333333335,0.40555555555555556],[0.30520833333333336,0.40555555555555556],[0.3145833333333333,0.40555555555555556],[0.31875,0.40185185185185185],[0.321875,0.40185185185185185],[0.321875,0.40185185185185185],[0.3229166666666667,0.40185185185185185],[0.3229166666666667,0.40185185185185185],[0.3229166666666667,0.40185185185185185],[0.3229166666666667,0.40185185185185185],[0.3229166666666667,0.40185185185185185],[0.3229166666666667,0.40185185185185185],[0.3229166666666667,0.40185185185185185],[0.3229166666666667,0.40185185185185185],[0.3229166666666667,0.40185185185185185],[0.3229166666666667,0.40185185185185185],[0.3229166666666667,0.40185185185185185],[0.3229166666666667,0.40185185185185185],[0.3229166666666667,0.40185185185185185],[0.3229166666666667,0.40185185185185185],[0.3229166666666667,0.40185185185185185],[0.3229166666666667,0.40185185185185185],[0.3229166666666667,0.40185185185185185],[0.3229166666666667,0.40185185185185185],[0.3229166666666667,0.40185185185185185],[0.3229166666666667,0.40185185185185185],[0.3229166666666667,0.40185185185185185],[0.3229166666666667,0.40185185185185185],[0.3229166666666667,0.40185185185185185],[0.3229166666666667,0.40185185185185185],[0.3229166666666667,0.40185185185185185],[0.3229166666666667,0.40185185185185185],[0.3229166666666667,0.40185185185185185],[0.3229166666666667,0.40185185185185185],[0.3229166666666667,0.40185185185185185],[0.3229166666666667,0.40185185185185185],[0.3229166666666667,0.40185185185185185],[0.3229166666666667,0.40185185185185185],[0.3229166666666667,0.40185185185185185],[0.3229166666666667,0.40185185185185185],[0.3229166666666667,0.40185185185185185],[0.3229166666666667,0.40185185185185185],[0.3229166666666667,0.40185185185185185],[0.3229166666666667,0.40185185185185185],[0.3229166666666667,0.40185185185185185],[0.3229166666666667,0.40185185185185185],[0.3229166666666667,0.40185185185185185],[0.3229166666666667,0.40185185185185185],[0.3229166666666667,0.40185185185185185],[0.3229166666666667,0.40185185185185185],[0.3229166666666667,0.40185185185185185],[0.3229166666666667,0.40185185185185185],[0.3229166666666667,0.40185185185185185],[0.3229166666666667,0.40185185185185185],[0.32395833333333335,0.40185185185185185],[0.32395833333333335,0.39814814814814814],[0.32708333333333334,0.3925925925925926],[0.32916666666666666,0.387037037037037],[0.32916666666666666,0.3851851851851852],[0.32916666666666666,0.3851851851851852],[0.3302083333333333,0.38333333333333336],[0.33125,0.37962962962962965],[0.33125,0.37777777777777777],[0.33229166666666665,0.37592592592592594],[0.33229166666666665,0.37592592592592594],[0.33229166666666665,0.37407407407407406],[0.3333333333333333,0.37222222222222223],[0.3333333333333333,0.37222222222222223],[0.3333333333333333,0.37222222222222223],[0.3333333333333333,0.37222222222222223],[0.3333333333333333,0.37222222222222223],[0.3333333333333333,0.37222222222222223],[0.3333333333333333,0.37222222222222223],[0.3333333333333333,0.37222222222222223],[0.3333333333333333,0.37222222222222223],[0.3333333333333333,0.37222222222222223],[0.3333333333333333,0.37222222222222223],[0.3333333333333333,0.37222222222222223],[0.3333333333333333,0.37222222222222223],[0.3333333333333333,0.37222222222222223]]","[[-0.21000000000000002,0.33796296296296297],[-0.21000000000000002,0.33796296296296297],[-0.21302083333333333,0.3727777777777777],[-0.21302083333333333,0.3727777777777777],[-0.21739583333333337,0.37703703703703706],[-0.21739583333333337,0.37703703703703706],[-0.21937500000000001,0.3794444444444444],[-0.21937500000000001,0.3794444444444444],[-0.2169791666666666,0.3653703703703703],[-0.19947916666666668,0.38851851851851843],[-0.1860416666666667,0.40925925925925927],[-0.17374999999999996,0.380925925925926],[-0.16145833333333334,0.35259259259259257],[-0.13052083333333328,0.3877777777777777],[-0.11052083333333336,0.4140740740740741],[-0.09552083333333337,0.3903703703703703],[-0.08958333333333333,0.39444444444444443],[-0.0860416666666667,0.40037037037037043],[-0.09979166666666663,0.422037037037037],[-0.12604166666666666,0.40314814814814826],[-0.14270833333333333,0.3937037037037037],[-0.14270833333333333,0.3937037037037037],[-0.13781249999999995,0.40777777777777785],[-0.13895833333333332,0.41277777777777774],[-0.15406249999999996,0.40333333333333327],[-0.15958333333333338,0.3838888888888888],[-0.15458333333333332,0.4103703703703704],[-0.1438541666666667,0.4337037037037038],[-0.15354166666666663,0.45500000000000007],[-0.13479166666666664,0.4729629629629629],[-0.11604166666666664,0.490925925925926],[-0.09645833333333335,0.5177777777777778],[-0.08937499999999995,0.5224074074074074],[-0.0765625,0.5161111111111112],[-0.06062500000000005,0.5231481481481481],[-0.05656249999999995,0.5472222222222223],[-0.0625,0.55],[-0.06875,0.5553703703703703],[-0.05458333333333331,0.5627777777777777],[-0.07229166666666664,0.5540740740740742],[-0.08979166666666671,0.5574074074074075],[-0.11385416666666662,0.5327777777777779],[-0.1469791666666667,0.5114814814814815],[-0.17979166666666668,0.5101851851851852],[-0.17979166666666668,0.5101851851851852],[-0.20604166666666662,0.49370370370370376],[-0.2235416666666667,0.4655555555555555],[-0.2389583333333333,0.4557407407407408],[-0.2609375,0.4403703703703703],[-0.2829166666666667,0.425],[-0.28552083333333333,0.40962962962962973],[-0.2883333333333333,0.3822222222222222],[-0.30927083333333333,0.3475925925925927],[-0.3188541666666667,0.3274074074074073],[-0.32843749999999994,0.3072222222222222],[-0.328125,0.28833333333333344],[-0.33354166666666674,0.2712962962962963],[-0.3264583333333333,0.23259259259259263],[-0.30708333333333326,0.18037037037037032],[-0.2938541666666667,0.14814814814814814],[-0.2873958333333333,0.12925925925925918],[-0.2752083333333334,0.1359259259259259],[-0.24468749999999997,0.1618518518518518],[-0.2280208333333333,0.14518518518518514],[-0.21135416666666665,0.12851851851851848],[-0.1857291666666666,0.12962962962962962],[-0.1502083333333334,0.1124074074074075],[-0.12927083333333336,0.0985185185185186],[-0.12281249999999998,0.1124074074074075],[-0.11020833333333328,0.10629629629629625],[-0.0938541666666667,0.10925925925925926],[-0.08854166666666667,0.08592592592592588],[-0.0829166666666667,0.06870370370370374],[-0.057500000000000044,0.09203703703703713],[-0.03260416666666662,0.1111111111111111],[-0.03354166666666671,0.10833333333333334],[-0.029062499999999977,0.10444444444444441],[-0.02687499999999995,0.12666666666666662],[-0.025312499999999953,0.1081481481481481],[-0.00927083333333331,0.12092592592592584],[0.0067708333333333336,0.13148148148148148],[0.036666666666666715,0.15129629629629637],[0.06625000000000002,0.16500000000000004],[0.06499999999999997,0.11703703703703712],[0.0609375,0.10259259259259255],[0.059791666666666646,0.06444444444444436],[0.05354166666666664,0.05740740740740741],[0.05562499999999997,0.03425925925925926],[0.06166666666666672,0.043703703703703745],[0.05322916666666669,0.021851851851851768],[0.04364583333333331,-0.01796296296296305],[0.01583333333333338,-0.06074074074074076],[0.0068750000000000235,-0.07370370370370373],[0.02177083333333331,-0.04222222222222214],[0.03291666666666669,-0.052962962962963],[0.04114583333333333,-0.04000000000000004],[0.04572916666666664,-0.005370370370370328],[0.04645833333333336,0.011666666666666582],[0.06197916666666667,0.0544444444444444],[0.08875000000000005,0.1088888888888888],[0.12572916666666673,0.17518518518518522],[0.1772916666666667,0.2492592592592593],[0.20114583333333325,0.25555555555555554],[0.1740624999999999,0.2485185185185186],[0.1540625000000001,0.2544444444444444],[0.14791666666666667,0.22388888888888886],[0.14791666666666667,0.22388888888888886],[0.15333333333333338,0.18462962962962973],[0.15010416666666657,0.18314814814814812],[0.1109375,0.14685185185185176],[0.07864583333333333,0.09166666666666666],[0.028645833333333332,0.027222222222222307],[-0.025,-0.03629629629629634],[-0.058854166666666666,-0.07629629629629628],[-0.04874999999999995,-0.08388888888888892],[-0.03802083333333333,-0.08148148148148149],[-0.030312500000000023,-0.038703703703703664],[-0.030312500000000023,-0.038703703703703664],[-0.033749999999999974,-0.04296296296296305],[-0.033749999999999974,-0.04296296296296305],[-0.04572916666666664,-0.08555555555555554],[-0.04572916666666664,-0.08555555555555554],[-0.019166666666666644,-0.09981481481481477],[-0.044062499999999956,-0.12629629629629627],[-0.044062499999999956,-0.12629629629629627],[-0.024583333333333356,-0.14018518518518516],[-0.024583333333333356,-0.14018518518518516],[-0.014895833333333285,-0.14518518518518514],[-0.014895833333333285,-0.14518518518518514],[-0.0109375,-0.1566666666666667],[0.0020833333333333333,-0.15777777777777777],[0.01739583333333338,-0.21888888888888886],[0.013333333333333286,-0.30333333333333334],[0.004062499999999977,-0.32388888888888884],[0.009791666666666643,-0.3362962962962963],[0.008333333333333333,-0.36203703703703705],[0.04020833333333336,-0.3683333333333333],[0.021875,-0.35555555555555557],[0.013541666666666667,-0.375],[0.004791666666666691,-0.35851851851851857],[-0.011770833333333286,-0.3738888888888888],[-0.03770833333333338,-0.305],[-0.025312499999999953,-0.2596296296296296],[0.007604166666666619,-0.2477777777777778],[0.021041666666666715,-0.24277777777777781],[0.024270833333333287,-0.24370370370370376],[0.04125000000000002,-0.25407407407407406],[0.07270833333333329,-0.2807407407407408],[0.1125,-0.30629629629629623],[0.12760416666666666,-0.30574074074074076],[0.14479166666666668,-0.28777777777777774],[0.1631249999999999,-0.3705555555555556],[0.15166666666666656,-0.4103703703703704],[0.1421875,-0.4455555555555556],[0.1486458333333334,-0.4535185185185185],[0.1603125000000001,-0.4537037037037037],[0.15520833333333334,-0.43444444444444447],[0.12010416666666662,-0.4255555555555556],[0.09958333333333323,-0.40185185185185185],[0.09322916666666667,-0.40129629629629626],[0.09947916666666666,-0.44351851851851853],[0.11104166666666657,-0.4192592592592592],[0.12416666666666672,-0.38481481481481483],[0.12322916666666663,-0.3512962962962963],[0.103125,-0.3490740740740741],[0.103125,-0.3490740740740741],[0.10666666666666676,-0.31074074074074076],[0.12552083333333333,-0.3133333333333333],[0.15416666666666667,-0.3055555555555556],[0.1375,-0.2851851851851852],[0.1265625,-0.28277777777777774],[0.10541666666666671,-0.2511111111111112],[0.10479166666666657,-0.2644444444444445],[0.09656250000000005,-0.2705555555555556],[0.08833333333333329,-0.2766666666666666],[0.1131249999999999,-0.28277777777777774],[0.09927083333333328,-0.3303703703703703],[0.05406249999999998,-0.3022222222222222],[0.03895833333333331,-0.24981481481481477],[0.051250000000000046,-0.2935185185185185],[0.0743750000000001,-0.35259259259259257],[0.09302083333333329,-0.39962962962962967],[0.09114583333333333,-0.4016666666666666],[0.08937499999999995,-0.42185185185185187],[0.08760416666666657,-0.442037037037037],[0.07552083333333333,-0.45129629629629625],[0.07270833333333329,-0.44611111111111107],[0.08635416666666676,-0.4859259259259259],[0.08635416666666676,-0.4859259259259259],[0.10197916666666676,-0.5609259259259259],[0.10197916666666676,-0.5609259259259259],[0.12354166666666658,-0.5507407407407408],[0.12010416666666662,-0.5175925925925926],[0.12114583333333329,-0.4964814814814815],[0.11864583333333342,-0.4637037037037037],[0.12104166666666671,-0.4498148148148148],[0.12062499999999995,-0.4292592592592593],[0.12020833333333343,-0.4087037037037037],[0.1345833333333334,-0.39462962962962966],[0.1599999999999999,-0.39296296296296296],[0.17354166666666657,-0.3803703703703703],[0.14739583333333334,-0.41092592592592586],[0.13541666666666666,-0.44907407407407407],[0.14802083333333324,-0.4583333333333333],[0.16416666666666657,-0.4792592592592593],[0.17479166666666662,-0.4729629629629629],[0.18822916666666673,-0.4733333333333334],[0.22083333333333333,-0.47370370370370374],[0.23916666666666658,-0.4844444444444445],[0.2490624999999999,-0.48259259259259263],[0.27468750000000003,-0.46833333333333327],[0.3180208333333333,-0.42185185185185187],[0.3667708333333332,-0.384074074074074],[0.39093749999999994,-0.37518518518518523],[0.4046875,-0.3418518518518519],[0.425,-0.31611111111111106],[0.45583333333333326,-0.28851851851851856],[0.46749999999999997,-0.2609259259259259],[0.4817708333333333,-0.22462962962962965],[0.4957291666666668,-0.19074074074074074],[0.48385416666666664,-0.20907407407407402],[0.48156249999999995,-0.225],[0.4818749999999999,-0.24148148148148144],[0.4847916666666668,-0.26648148148148143],[0.49812500000000004,-0.31592592592592594],[0.5203125,-0.387037037037037],[0.5160416666666667,-0.4374074074074074],[0.5006249999999999,-0.49611111111111106],[0.4947916666666667,-0.5525925925925925],[0.47416666666666674,-0.5916666666666667],[0.44166666666666665,-0.5996296296296296],[0.44166666666666665,-0.5885185185185186],[0.42843749999999997,-0.5661111111111111],[0.41260416666666655,-0.5351851851851852],[0.39187500000000003,-0.5351851851851852],[0.3611458333333334,-0.5162962962962964],[0.3260416666666667,-0.4792592592592593],[0.3020833333333333,-0.43388888888888894],[0.3020833333333333,-0.43388888888888894],[0.2534374999999999,-0.3905555555555555],[0.2534374999999999,-0.3905555555555555],[0.2375,-0.39888888888888885],[0.24854166666666658,-0.3940740740740741],[0.24854166666666658,-0.3940740740740741],[0.22333333333333344,-0.3846296296296296],[0.22333333333333344,-0.3846296296296296],[0.19000000000000009,-0.32888888888888895],[0.19000000000000009,-0.32888888888888895],[0.18406250000000005,-0.23722222222222225],[0.1703125,-0.1440740740740741],[0.14552083333333338,-0.010925925925925884],[0.13677083333333329,0.04092592592592597],[0.12447916666666667,0.11037037037037041],[0.10614583333333343,0.1801851851851851],[0.07020833333333343,0.28666666666666657],[0.057500000000000044,0.41796296296296304],[0.03916666666666669,0.5061111111111111],[0.0375,0.5562962962962963],[0.046875,0.5788888888888889],[0.07427083333333329,0.6385185185185185],[0.11052083333333323,0.644814814814815],[0.14343750000000005,0.6846296296296297],[0.18395833333333325,0.7088888888888888],[0.25,0.7268518518518519],[0.3103125000000001,0.7514814814814814],[0.28072916666666664,0.6533333333333332],[0.2615624999999999,0.5805555555555556],[0.23489583333333333,0.49907407407407406],[0.1553124999999999,0.4474074074074075],[0.0728125000000001,0.3714814814814815],[-0.01260416666666669,0.3172222222222221],[-0.04510416666666662,0.2718518518518518],[-0.08166666666666664,0.22444444444444453],[-0.14104166666666665,0.15999999999999995],[-0.19885416666666664,0.07851851851851847],[-0.18239583333333337,0.1337037037037038],[-0.16697916666666662,0.18296296296296288],[-0.1469791666666667,0.1985185185185186],[-0.1125,0.17592592592592593],[-0.0936458333333333,0.16796296296296304],[-0.06854166666666663,0.1544444444444444],[-0.06812499999999998,0.09129629629629621],[-0.057395833333333354,0.072037037037037],[-0.03083333333333336,0.0668518518518519],[0.00614583333333331,0.07240740740740745],[0.0203125,0.032777777777777864],[0.027395833333333286,-0.025],[0.03833333333333329,-0.04129629629629621],[0.051145833333333356,-0.06277777777777774],[0.07145833333333323,-0.09203703703703701],[0.09249999999999996,-0.14666666666666664],[0.09864583333333338,-0.1581481481481481],[0.0818749999999999,-0.1983333333333334],[0.08166666666666676,-0.2511111111111112],[0.06697916666666662,-0.2959259259259259],[0.06468750000000002,-0.34888888888888886],[0.07156250000000004,-0.3890740740740741],[0.07708333333333334,-0.4316666666666667],[0.08760416666666657,-0.462037037037037],[0.09989583333333343,-0.4938888888888889],[0.11145833333333334,-0.5003703703703704],[0.12208333333333338,-0.4892592592592592],[0.1453125,-0.4933333333333333],[0.14312500000000009,-0.4868518518518518],[0.14916666666666673,-0.48870370370370364],[0.16364583333333324,-0.47240740740740744],[0.17239583333333333,-0.45018518518518524],[0.1892708333333334,-0.42981481481481487],[0.19083333333333338,-0.4125925925925926],[0.19083333333333338,-0.4125925925925926],[0.1759375000000001,-0.41333333333333333],[0.16760416666666675,-0.4177777777777778],[0.16239583333333343,-0.41388888888888886],[0.13760416666666658,-0.41814814814814816],[0.14739583333333334,-0.36944444444444446],[0.1571875000000001,-0.3207407407407407],[0.1556250000000001,-0.2770370370370371],[0.16677083333333323,-0.2690740740740741],[0.15927083333333342,-0.2759259259259259],[0.17239583333333333,-0.24388888888888888],[0.20593750000000005,-0.18259259259259264],[0.22260416666666671,-0.1346296296296296],[0.23135416666666658,-0.10796296296296298],[0.26239583333333344,-0.11925925925925922],[0.2789583333333333,-0.15925925925925927],[0.28895833333333343,-0.2175925925925926],[0.29968750000000005,-0.2788888888888889],[0.2798958333333334,-0.2794444444444444],[0.2677083333333333,-0.27037037037037037],[0.24333333333333323,-0.30407407407407405],[0.21166666666666673,-0.33796296296296297],[0.19322916666666667,-0.3562962962962963],[0.171875,-0.39592592592592596],[0.15572916666666667,-0.3801851851851852],[0.1258333333333333,-0.39388888888888884],[0.10250000000000009,-0.38925925925925925],[0.08125,-0.3622222222222223],[0.08718750000000004,-0.3714814814814815],[0.0884375000000001,-0.36796296296296294],[0.05291666666666662,-0.3531481481481481],[0.030208333333333334,-0.34740740740740744],[-0.0018749999999999527,-0.32833333333333337],[0.007291666666666667,-0.31870370370370377],[-0.012083333333333357,-0.33907407407407414],[-0.028958333333333287,-0.3522222222222222],[-0.028958333333333287,-0.3522222222222222],[-0.03114583333333331,-0.325],[-0.06145833333333333,-0.3001851851851852],[-0.09750000000000002,-0.2646296296296296],[-0.08208333333333329,-0.28777777777777774],[-0.029895833333333382,-0.32222222222222224],[0.01604166666666664,-0.38722222222222225],[0.075,-0.39648148148148155],[0.09562499999999995,-0.375],[0.13229166666666667,-0.327962962962963],[0.16260416666666658,-0.2992592592592593],[0.18802083333333333,-0.30185185185185187],[0.18802083333333333,-0.30185185185185187],[0.27374999999999994,-0.32814814814814813],[0.27374999999999994,-0.32814814814814813],[0.3546875,-0.33370370370370367],[0.3546875,-0.33370370370370367],[0.34614583333333326,-0.334074074074074],[0.34614583333333326,-0.334074074074074],[0.34104166666666674,-0.32888888888888895],[0.34104166666666674,-0.32888888888888895],[0.3629166666666668,-0.2916666666666667],[0.3629166666666668,-0.2916666666666667],[0.3662499999999999,-0.27555555555555555],[0.38312499999999994,-0.29000000000000004],[0.40427083333333325,-0.29981481481481476],[0.4479166666666667,-0.3042592592592593],[0.4721874999999999,-0.3257407407407407],[0.4353125000000001,-0.3496296296296296],[0.3913541666666667,-0.3901851851851852],[0.4084374999999999,-0.3744444444444444],[0.4273958333333333,-0.3514814814814815],[0.4147916666666667,-0.33351851851851855],[0.42156250000000006,-0.3907407407407407],[0.4018749999999999,-0.4007407407407407],[0.39302083333333326,-0.4418518518518519],[0.3572916666666667,-0.4690740740740741],[0.3556250000000001,-0.48777777777777775],[0.3876041666666666,-0.47129629629629627],[0.4253124999999999,-0.46037037037037043],[0.4382291666666667,-0.43703703703703706],[0.45968749999999997,-0.4301851851851852],[0.4898958333333333,-0.41888888888888887],[0.4805208333333333,-0.38925925925925925],[0.4805208333333333,-0.38925925925925925],[0.4790625000000001,-0.3412962962962963],[0.5047916666666665,-0.2992592592592593],[0.5412499999999999,-0.2581481481481481],[0.5270833333333333,-0.24666666666666665],[0.5233333333333334,-0.2644444444444445],[0.5245833333333333,-0.3072222222222222],[0.5322916666666667,-0.377962962962963],[0.5076041666666666,-0.42370370370370375],[0.4794791666666666,-0.46111111111111114],[0.4513541666666666,-0.4677777777777778],[0.46083333333333343,-0.5164814814814814],[0.4,-0.5305555555555556],[0.36572916666666655,-0.5901851851851851],[0.3403125000000001,-0.5942592592592593],[0.29364583333333344,-0.5888888888888889],[0.29364583333333344,-0.5888888888888889],[0.29010416666666666,-0.5561111111111111],[0.2772916666666667,-0.5320370370370371],[0.28958333333333336,-0.5494444444444444],[0.2881249999999999,-0.522962962962963],[0.3333333333333333,-0.5207407407407407],[0.346875,-0.5072222222222221],[0.346875,-0.5072222222222221],[0.3802083333333333,-0.507962962962963],[0.38291666666666657,-0.46111111111111114],[0.3865624999999999,-0.42370370370370375],[0.40906250000000005,-0.412962962962963],[0.38791666666666674,-0.40018518518518525],[0.37374999999999997,-0.3816666666666667],[0.365625,-0.34314814814814815],[0.3712500000000001,-0.3485185185185185],[0.34916666666666674,-0.35907407407407405],[0.3388541666666666,-0.4112962962962963],[0.34041666666666665,-0.4427777777777778],[0.3460416666666667,-0.4762962962962963],[0.3680208333333333,-0.5268518518518519],[0.37177083333333344,-0.5272222222222221],[0.3765625,-0.5655555555555555],[0.4010416666666667,-0.5466666666666666],[0.3962500000000001,-0.5362962962962964]]","[[-0.21000000000000002,0.33796296296296297,0.00020000001788389454],[-0.21000000000000002,0.33796296296296297,0.03560000002384811],[-0.21302083333333333,0.3727777777777777,0.0452000000178856],[-0.21302083333333333,0.3727777777777777,0.06200000000001182],[-0.21739583333333337,0.37703703703703706,0.07850000000000534],[-0.21739583333333337,0.37703703703703706,0.09520000001788276],[-0.21937500000000001,0.3794444444444444,0.11510000002384402],[-0.21937500000000001,0.3794444444444444,0.1285000000000025],[-0.2169791666666666,0.3653703703703703,0.14520000001789413],[-0.19947916666666668,0.38851851851851843,0.1618000000119224],[-0.1860416666666667,0.40925925925925927,0.1784000000059649],[-0.17374999999999996,0.380925925925926,0.1951000000238423],[-0.16145833333333334,0.35259259259259257,0.21190000000596854],[-0.13052083333333328,0.3877777777777777,0.22840000000596206],[-0.11052083333333336,0.4140740740740741,0.24520000001788844],[-0.09552083333333337,0.3903703703703703,0.26180000001193093],[-0.08958333333333333,0.39444444444444443,0.2785000000000082],[-0.0860416666666667,0.40037037037037043,0.29510000002385084],[-0.09979166666666663,0.422037037037037,0.3118000000119281],[-0.12604166666666666,0.40314814814814826,0.3286000000238545],[-0.14270833333333333,0.3937037037037037,0.345100000023848],[-0.14270833333333333,0.3937037037037037,0.36180000001192525],[-0.13781249999999995,0.40777777777777785,0.37860000002385163],[-0.13895833333333332,0.41277777777777774,0.3952000000178941],[-0.15406249999999996,0.40333333333333327,0.4118000000119224],[-0.15958333333333338,0.3838888888888888,0.42849999999999966],[-0.15458333333333332,0.4103703703703704,0.4451000000238423],[-0.1438541666666667,0.4337037037037038,0.4618000000119338],[-0.15354166666666663,0.45500000000000007,0.47840000000596206],[-0.13479166666666664,0.4729629629629629,0.49520000001788844],[-0.11604166666666664,0.490925925925926,0.5118000000119309],[-0.09645833333333335,0.5177777777777778,0.5285000000000082],[-0.08937499999999995,0.5224074074074074,0.5452000000178856],[-0.0765625,0.5161111111111112,0.5619000000059629],[-0.06062500000000005,0.5231481481481481,0.5784000000059706],[-0.05656249999999995,0.5472222222222223,0.5952000000178828],[-0.0625,0.55,0.6117000000178905],[-0.06875,0.5553703703703703,0.6285000000000025],[-0.05458333333333331,0.5627777777777777,0.6451000000238452],[-0.07229166666666664,0.5540740740740742,0.6618000000119224],[-0.08979166666666671,0.5574074074074075,0.6784999999999997],[-0.11385416666666662,0.5327777777777779,0.6951000000238423],[-0.1469791666666667,0.5114814814814815,0.7118000000119338],[-0.17979166666666668,0.5101851851851852,0.7284000000059621],[-0.17979166666666668,0.5101851851851852,0.7452000000178884],[-0.20604166666666662,0.49370370370370376,0.7618000000119309],[-0.2235416666666667,0.4655555555555555,0.7785000000000082],[-0.2389583333333333,0.4557407407407408,0.7952000000178856],[-0.2609375,0.4403703703703703,0.8117000000178933],[-0.2829166666666667,0.425,0.8286000000238545],[-0.28552083333333333,0.40962962962962973,0.8452000000178828],[-0.2883333333333333,0.3822222222222222,0.8618000000119252],[-0.30927083333333333,0.3475925925925927,0.8785000000000025],[-0.3188541666666667,0.3274074074074073,0.8969000000059708],[-0.32843749999999994,0.3072222222222222,0.9147000000178878],[-0.328125,0.28833333333333344,0.9286000000238488],[-0.33354166666666674,0.2712962962962963,0.945300000011926],[-0.3264583333333333,0.23259259259259263,0.9643000000119315],[-0.30708333333333326,0.18037037037037032,0.9787000000178807],[-0.2938541666666667,0.14814814814814814,0.9955000000000069],[-0.2873958333333333,0.12925925925925918,1.0165000000000077],[-0.2752083333333334,0.1359259259259259,1.0309000000059712],[-0.24468749999999997,0.1618518518518518,1.0453000000119204],[-0.2280208333333333,0.14518518518518514,1.0620000000000118],[-0.21135416666666665,0.12851851851851848,1.081900000005973],[-0.1857291666666666,0.12962962962962962,1.0953000000119317],[-0.1502083333333334,0.1124074074074075,1.11190000000596],[-0.12927083333333336,0.0985185185185186,1.1314000000059679],[-0.12281249999999998,0.1124074074074075,1.1452000000178941],[-0.11020833333333328,0.10629629629629625,1.16220000001789],[-0.0938541666666667,0.10925925925925926,1.1786000000238488],[-0.08854166666666667,0.08592592592592588,1.1975000000000051],[-0.0829166666666667,0.06870370370370374,1.2120000000000033],[-0.057500000000000044,0.09203703703703713,1.2287000000178807],[-0.03260416666666662,0.1111111111111111,1.2452000000178884],[-0.03354166666666671,0.10833333333333334,1.264100000023845],[-0.029062499999999977,0.10444444444444441,1.278700000017892],[-0.02687499999999995,0.12666666666666662,1.2956000000238532],[-0.025312499999999953,0.1081481481481481,1.3170000000000073],[-0.00927083333333331,0.12092592592592584,1.3323000000119265],[0.0067708333333333336,0.13148148148148148,1.348100000023848],[0.036666666666666715,0.15129629629629637,1.3618000000119252],[0.06625000000000002,0.16500000000000004,1.382000000000005],[0.06499999999999997,0.11703703703703712,1.3964000000059684],[0.0609375,0.10259259259259255,1.4132000000178806],[0.059791666666666646,0.06444444444444436,1.4284999999999997],[0.05354166666666664,0.05740740740740741,1.4451000000238423],[0.05562499999999997,0.03425925925925926,1.4618000000119338],[0.06166666666666672,0.043703703703703745,1.478400000005962],[0.05322916666666669,0.021851851851851768,1.4951000000238537],[0.04364583333333331,-0.01796296296296305,1.511700000017882],[0.01583333333333338,-0.06074074074074076,1.5285000000000082],[0.0068750000000000235,-0.07370370370370373,1.5451000000238508],[0.02177083333333331,-0.04222222222222214,1.5625],[0.03291666666666669,-0.052962962962963,1.5785000000000053],[0.04114583333333333,-0.04000000000000004,1.5952000000178828],[0.04572916666666664,-0.005370370370370328,1.6118000000119252],[0.04645833333333336,0.011666666666666582,1.6285000000000025],[0.06197916666666667,0.0544444444444444,1.6452000000178941],[0.08875000000000005,0.1088888888888888,1.6618000000119224],[0.12572916666666673,0.17518518518518522,1.6784999999999997],[0.1772916666666667,0.2492592592592593,1.6951000000238423],[0.20114583333333325,0.25555555555555554,1.7152000000178873],[0.1740624999999999,0.2485185185185186,1.7305000000000064],[0.1540625000000001,0.2544444444444444,1.7480000000000047],[0.14791666666666667,0.22388888888888886,1.7686000000238522],[0.14791666666666667,0.22388888888888886,1.7784000000059592],[0.15333333333333338,0.18462962962962973,1.7951000000238508],[0.15010416666666657,0.18314814814814812,1.8120000000000118],[0.1109375,0.14685185185185176,1.8320000000000078],[0.07864583333333333,0.09166666666666666,1.8476000000238457],[0.028645833333333332,0.027222222222222307,1.864300000011923],[-0.025,-0.03629629629629634,1.8825000000000074],[-0.058854166666666666,-0.07629629629629628,1.8954000000059636],[-0.04874999999999995,-0.08388888888888892,1.9120000000000061],[-0.03802083333333333,-0.08148148148148149,1.9284999999999997],[-0.030312500000000023,-0.038703703703703664,1.9504000000059705],[-0.030312500000000023,-0.038703703703703664,1.9621000000238524],[-0.033749999999999974,-0.04296296296296305,1.9789000000059644],[-0.033749999999999974,-0.04296296296296305,2.0013000000119234],[-0.04572916666666664,-0.08555555555555554,2.0120000000000005],[-0.04572916666666664,-0.08555555555555554,2.028500000000008],[-0.019166666666666644,-0.09981481481481477,2.0454000000059693],[-0.044062499999999956,-0.12629629629629627,2.0705000000000098],[-0.044062499999999956,-0.12629629629629627,2.0790000000000077],[-0.024583333333333356,-0.14018518518518516,2.0954000000059665],[-0.024583333333333356,-0.14018518518518516,2.112000000000009],[-0.014895833333333285,-0.14518518518518514,2.135900000005961],[-0.014895833333333285,-0.14518518518518514,2.145300000011929],[-0.0109375,-0.1566666666666667,2.162000000000006],[0.0020833333333333333,-0.15777777777777777,2.181400000005965],[0.01739583333333338,-0.21888888888888886,2.196800000011933],[0.013333333333333286,-0.30333333333333334,2.2120000000000033],[0.004062499999999977,-0.32388888888888884,2.228600000023846],[0.009791666666666643,-0.3362962962962963,2.247700000017886],[0.008333333333333333,-0.36203703703703705,2.2620000000000005],[0.04020833333333336,-0.3683333333333333,2.278700000017892],[0.021875,-0.35555555555555557,2.2952000000178856],[0.013541666666666667,-0.375,2.314800000011928],[0.004791666666666691,-0.35851851851851857,2.3285000000000053],[-0.011770833333333286,-0.3738888888888888,2.3453000000119317],[-0.03770833333333338,-0.305,2.3653000000119278],[-0.025312499999999953,-0.2596296296296296,2.3810000000000002],[0.007604166666666619,-0.2477777777777778,2.39610000002385],[0.021041666666666715,-0.24277777777777781,2.4118000000119224],[0.024270833333333287,-0.24370370370370376,2.4311000000238465],[0.04125000000000002,-0.25407407407407406,2.4458000000119284],[0.07270833333333329,-0.2807407407407408,2.4634000000059615],[0.1125,-0.30629629629629623,2.4787000000178807],[0.12760416666666666,-0.30574074074074076,2.4991000000238444],[0.14479166666666668,-0.28777777777777774,2.5135000000000076],[0.1631249999999999,-0.3705555555555556,2.5289000000059616],[0.15166666666666656,-0.4103703703703704,2.5452000000178856],[0.1421875,-0.4455555555555556,2.564800000011928],[0.1486458333333334,-0.4535185185185185,2.580200000017882],[0.1603125000000001,-0.4537037037037037,2.595100000023848],[0.15520833333333334,-0.43444444444444447,2.61190000000596],[0.12010416666666662,-0.4255555555555556,2.6317000000178865],[0.09958333333333323,-0.40185185185185185,2.645300000011929],[0.09322916666666667,-0.40129629629629626,2.662000000000006],[0.09947916666666666,-0.44351851851851853,2.678600000023849],[0.11104166666666657,-0.4192592592592592,2.6980000000000075],[0.12416666666666672,-0.38481481481481483,2.715400000005971],[0.12322916666666663,-0.3512962962962963,2.731400000005962],[0.103125,-0.3490740740740741,2.751500000000007],[0.103125,-0.3490740740740741,2.761800000011931],[0.10666666666666676,-0.31074074074074076,2.778800000011927],[0.12552083333333333,-0.3133333333333333,2.7953000000119204],[0.15416666666666667,-0.3055555555555556,2.8153000000119306],[0.1375,-0.2851851851851852,2.83060000002385],[0.1265625,-0.28277777777777774,2.8456000000238504],[0.10541666666666671,-0.2511111111111112,2.8656000000238464],[0.10479166666666657,-0.2644444444444445,2.880400000005963],[0.09656250000000005,-0.2705555555555556,2.895300000011929],[0.08833333333333329,-0.2766666666666666,2.9119000000059714],[0.1131249999999999,-0.28277777777777774,2.9318000000119326],[0.09927083333333328,-0.3303703703703703,2.9480000000000075],[0.05406249999999998,-0.3022222222222222,2.9651000000238525],[0.03895833333333331,-0.24981481481481477,2.982200000017883],[0.051250000000000046,-0.2935185185185185,2.995700000017891],[0.0743750000000001,-0.35259259259259257,3.0119000000059657],[0.09302083333333329,-0.39962962962962967,3.028600000023843],[0.09114583333333333,-0.4016666666666666,3.048500000000004],[0.08937499999999995,-0.42185185185185187,3.06340000000597],[0.08760416666666657,-0.442037037037037,3.0787000000178892],[0.07552083333333333,-0.45129629629629625,3.0977000000178805],[0.07270833333333329,-0.44611111111111107,3.1129999999999995],[0.08635416666666676,-0.4859259259259259,3.128800000011921],[0.08635416666666676,-0.4859259259259259,3.1458000000119313],[0.10197916666666676,-0.5609259259259259,3.1734000000059694],[0.10197916666666676,-0.5609259259259259,3.1826000000238537],[0.12354166666666658,-0.5507407407407408,3.1950000000000074],[0.12010416666666662,-0.5175925925925926,3.211700000017885],[0.12114583333333329,-0.4964814814814815,3.228400000005962],[0.11864583333333342,-0.4637037037037037,3.2451000000238537],[0.12104166666666671,-0.4498148148148148,3.261700000017882],[0.12062499999999995,-0.4292592592592593,3.278400000005959],[0.12020833333333343,-0.4087037037037037,3.2952000000178856],[0.1345833333333334,-0.39462962962962966,3.311800000011928],[0.1599999999999999,-0.39296296296296296,3.3284000000059706],[0.17354166666666657,-0.3803703703703703,3.345100000023848],[0.14739583333333334,-0.41092592592592586,3.36190000000596],[0.13541666666666666,-0.44907407407407407,3.3785000000000025],[0.14802083333333324,-0.4583333333333333,3.395100000023845],[0.16416666666666657,-0.4792592592592593,3.4118000000119224],[0.17479166666666662,-0.4729629629629629,3.4284999999999997],[0.18822916666666673,-0.4733333333333334,3.4451000000238423],[0.22083333333333333,-0.47370370370370374,3.461700000017885],[0.23916666666666658,-0.4844444444444445,3.478400000005962],[0.2490624999999999,-0.48259259259259263,3.4950000000000045],[0.27468750000000003,-0.46833333333333327,3.511800000011931],[0.3180208333333333,-0.42185185185185187,3.5289000000059616],[0.3667708333333332,-0.384074074074074,3.5452000000178856],[0.39093749999999994,-0.37518518518518523,3.5617000000178933],[0.4046875,-0.3418518518518519,3.5785000000000053],[0.425,-0.31611111111111106,3.595100000023848],[0.45583333333333326,-0.28851851851851856,3.6117000000178905],[0.46749999999999997,-0.2609259259259259,3.6285000000000025],[0.4817708333333333,-0.22462962962962965,3.645200000017894],[0.4957291666666668,-0.19074074074074074,3.6617000000178876],[0.48385416666666664,-0.20907407407407402,3.6784999999999997],[0.48156249999999995,-0.225,3.6951000000238423],[0.4818749999999999,-0.24148148148148144,3.7119000000059685],[0.4847916666666668,-0.26648148148148143,3.728400000005962],[0.49812500000000004,-0.31592592592592594,3.7451000000238537],[0.5203125,-0.387037037037037,3.761800000011931],[0.5160416666666667,-0.4374074074074074,3.7819000000059617],[0.5006249999999999,-0.49611111111111106,3.79640000000596],[0.4947916666666667,-0.5525925925925925,3.8117000000178933],[0.47416666666666674,-0.5916666666666667,3.8284000000059706],[0.44166666666666665,-0.5996296296296296,3.8452000000178828],[0.44166666666666665,-0.5885185185185186,3.8618000000119252],[0.42843749999999997,-0.5661111111111111,3.8785000000000025],[0.41260416666666655,-0.5351851851851852,3.895200000017894],[0.39187500000000003,-0.5351851851851852,3.9117000000178876],[0.3611458333333334,-0.5162962962962964,3.928400000005965],[0.3260416666666667,-0.4792592592592593,3.9451000000238423],[0.3020833333333333,-0.43388888888888894,3.9674000000059664],[0.3020833333333333,-0.43388888888888894,3.978400000005962],[0.2534374999999999,-0.3905555555555555,3.9950000000000045],[0.2534374999999999,-0.3905555555555555,4.011800000011931],[0.2375,-0.39888888888888885,4.028400000005959],[0.24854166666666658,-0.3940740740740741,4.052800000011928],[0.24854166666666658,-0.3940740740740741,4.063200000017886],[0.22333333333333344,-0.3846296296296296,4.078500000000005],[0.22333333333333344,-0.3846296296296296,4.095100000023848],[0.19000000000000009,-0.32888888888888895,4.111800000011925],[0.19000000000000009,-0.32888888888888895,4.128400000005968],[0.18406250000000005,-0.23722222222222225,4.145100000023845],[0.1703125,-0.1440740740740741,4.161800000011922],[0.14552083333333338,-0.010925925925925884,4.178400000005965],[0.13677083333333329,0.04092592592592597,4.195100000023842],[0.12447916666666667,0.11037037037037041,4.211700000017885],[0.10614583333333343,0.1801851851851851,4.228500000000011],[0.07020833333333343,0.28666666666666657,4.245200000017888],[0.057500000000000044,0.41796296296296304,4.261700000017882],[0.03916666666666669,0.5061111111111111,4.278400000005959],[0.0375,0.5562962962962963,4.295100000023851],[0.046875,0.5788888888888889,4.311700000017893],[0.07427083333333329,0.6385185185185185,4.328400000005971],[0.11052083333333323,0.644814814814815,4.345100000023848],[0.14343750000000005,0.6846296296296297,4.3617000000178905],[0.18395833333333325,0.7088888888888888,4.378400000005968],[0.25,0.7268518518518519,4.395100000023845],[0.3103125000000001,0.7514814814814814,4.415000000000006],[0.28072916666666664,0.6533333333333332,4.429700000017888],[0.2615624999999999,0.5805555555555556,4.445100000023842],[0.23489583333333333,0.49907407407407406,4.461700000017885],[0.1553124999999999,0.4474074074074075,4.478400000005962],[0.0728125000000001,0.3714814814814815,4.495100000023854],[-0.01260416666666669,0.3172222222222221,4.511800000011931],[-0.04510416666666662,0.2718518518518518,4.5283000000119245],[-0.08166666666666664,0.22444444444444453,4.545100000023851],[-0.14104166666666665,0.15999999999999995,4.561700000017893],[-0.19885416666666664,0.07851851851851847,4.578400000005971],[-0.18239583333333337,0.1337037037037038,4.595200000017883],[-0.16697916666666662,0.18296296296296288,4.6117000000178905],[-0.1469791666666667,0.1985185185185186,4.628400000005968],[-0.1125,0.17592592592592593,4.645100000023845],[-0.0936458333333333,0.16796296296296304,4.661800000011922],[-0.06854166666666663,0.1544444444444444,4.682100000023851],[-0.06812499999999998,0.09129629629629621,4.69550000000001],[-0.057395833333333354,0.072037037037037,4.711800000011934],[-0.03083333333333336,0.0668518518518519,4.7297000000178855],[0.00614583333333331,0.07240740740740745,4.748000000000005],[0.0203125,0.032777777777777864,4.764300000011929],[0.027395833333333286,-0.025,4.779700000017883],[0.03833333333333329,-0.04129629629629621,4.795100000023851],[0.051145833333333356,-0.06277777777777774,4.811800000011928],[0.07145833333333323,-0.09203703703703701,4.828400000005971],[0.09249999999999996,-0.14666666666666664,4.845100000023848],[0.09864583333333338,-0.1581481481481481,4.861800000011925],[0.0818749999999999,-0.1983333333333334,4.878400000005968],[0.08166666666666676,-0.2511111111111112,4.895100000023845],[0.06697916666666662,-0.2959259259259259,4.914600000023853],[0.06468750000000002,-0.34888888888888886,4.928400000005965],[0.07156250000000004,-0.3890740740740741,4.945100000023842],[0.07708333333333334,-0.4316666666666667,4.961800000011934],[0.08760416666666657,-0.462037037037037,4.978400000005962],[0.09989583333333343,-0.4938888888888889,4.995100000023854],[0.11145833333333334,-0.5003703703703704,5.011800000011931],[0.12208333333333338,-0.4892592592592592,5.028400000005959],[0.1453125,-0.4933333333333333,5.045100000023851],[0.14312500000000009,-0.4868518518518518,5.063000000000002],[0.14916666666666673,-0.48870370370370364,5.078400000005971],[0.16364583333333324,-0.47240740740740744,5.095100000023848],[0.17239583333333333,-0.45018518518518524,5.1117000000178905],[0.1892708333333334,-0.42981481481481487,5.128300000011933],[0.19083333333333338,-0.4125925925925926,5.145200000017894],[0.19083333333333338,-0.4125925925925926,5.161900000005971],[0.1759375000000001,-0.41333333333333333,5.178400000005965],[0.16760416666666675,-0.4177777777777778,5.195100000023842],[0.16239583333333343,-0.41388888888888886,5.211800000011934],[0.13760416666666658,-0.41814814814814816,5.228400000005962],[0.14739583333333334,-0.36944444444444446,5.245100000023854],[0.1571875000000001,-0.3207407407407407,5.262300000011933],[0.1556250000000001,-0.2770370370370371,5.278400000005959],[0.16677083333333323,-0.2690740740740741,5.295100000023851],[0.15927083333333342,-0.2759259259259259,5.311800000011928],[0.17239583333333333,-0.24388888888888888,5.328400000005971],[0.20593750000000005,-0.18259259259259264,5.345200000017883],[0.22260416666666671,-0.1346296296296296,5.361800000011925],[0.23135416666666658,-0.10796296296296298,5.381300000011933],[0.26239583333333344,-0.11925925925925922,5.395100000023845],[0.2789583333333333,-0.15925925925925927,5.411900000005971],[0.28895833333333343,-0.2175925925925926,5.4285],[0.29968750000000005,-0.2788888888888889,5.447600000023854],[0.2798958333333334,-0.2794444444444444,5.4634000000059615],[0.2677083333333333,-0.27037037037037037,5.480000000000004],[0.24333333333333323,-0.30407407407407405,5.498300000011923],[0.21166666666666673,-0.33796296296296297,5.514300000011929],[0.19322916666666667,-0.3562962962962963,5.528500000000008],[0.171875,-0.39592592592592596,5.547700000017883],[0.15572916666666667,-0.3801851851851852,5.5625],[0.1258333333333333,-0.39388888888888884,5.578700000017889],[0.10250000000000009,-0.38925925925925925,5.595200000017883],[0.08125,-0.3622222222222223,5.611800000011925],[0.08718750000000004,-0.3714814814814815,5.628400000005968],[0.0884375000000001,-0.36796296296296294,5.648300000011929],[0.05291666666666662,-0.3531481481481481,5.6648000000119225],[0.030208333333333334,-0.34740740740740744,5.68040000000596],[-0.0018749999999999527,-0.32833333333333337,5.69850000000001],[0.007291666666666667,-0.31870370370370377,5.714700000017885],[-0.012083333333333357,-0.33907407407407414,5.731100000023844],[-0.028958333333333287,-0.3522222222222222,5.75],[-0.028958333333333287,-0.3522222222222222,5.761900000005966],[-0.03114583333333331,-0.325,5.778800000011927],[-0.06145833333333333,-0.3001851851851852,5.795200000017886],[-0.09750000000000002,-0.2646296296296296,5.8147000000178934],[-0.08208333333333329,-0.28777777777777774,5.828800000011924],[-0.029895833333333382,-0.32222222222222224,5.845300000011932],[0.01604166666666664,-0.38722222222222225,5.865100000023844],[0.075,-0.39648148148148155,5.882100000023854],[0.09562499999999995,-0.375,5.896700000017887],[0.13229166666666667,-0.327962962962963,5.914700000017888],[0.16260416666666658,-0.2992592592592593,5.9288000000119325],[0.18802083333333333,-0.30185185185185187,5.9504000000059705],[0.18802083333333333,-0.30185185185185187,5.964500000000001],[0.27374999999999994,-0.32814814814814813,5.978500000000011],[0.27374999999999994,-0.32814814814814813,5.9950000000000045],[0.3546875,-0.33370370370370367,6.011800000011931],[0.3546875,-0.33370370370370367,6.028400000005959],[0.34614583333333326,-0.334074074074074,6.045100000023851],[0.34614583333333326,-0.334074074074074,6.061800000011928],[0.34104166666666674,-0.32888888888888895,6.078400000005971],[0.34104166666666674,-0.32888888888888895,6.094999999999999],[0.3629166666666668,-0.2916666666666667,6.111800000011925],[0.3629166666666668,-0.2916666666666667,6.128400000005968],[0.3662499999999999,-0.27555555555555555,6.145100000023845],[0.38312499999999994,-0.29000000000000004,6.163100000023846],[0.40427083333333325,-0.29981481481481476,6.178400000005965],[0.4479166666666667,-0.3042592592592593,6.195100000023842],[0.4721874999999999,-0.3257407407407407,6.211700000017885],[0.4353125000000001,-0.3496296296296296,6.228400000005962],[0.3913541666666667,-0.3901851851851852,6.246000000000009],[0.4084374999999999,-0.3744444444444444,6.2620000000000005],[0.4273958333333333,-0.3514814814814815,6.278400000005959],[0.4147916666666667,-0.33351851851851855,6.295100000023851],[0.42156250000000006,-0.3907407407407407,6.311700000017893],[0.4018749999999999,-0.4007407407407407,6.328400000005971],[0.39302083333333326,-0.4418518518518519,6.345100000023848],[0.3572916666666667,-0.4690740740740741,6.361800000011925],[0.3556250000000001,-0.48777777777777775,6.378400000005968],[0.3876041666666666,-0.47129629629629627,6.395100000023845],[0.4253124999999999,-0.46037037037037043,6.411800000011922],[0.4382291666666667,-0.43703703703703706,6.42830000001193],[0.45968749999999997,-0.4301851851851852,6.445000000000007],[0.4898958333333333,-0.41888888888888887,6.461700000017885],[0.4805208333333333,-0.38925925925925925,6.481100000023844],[0.4805208333333333,-0.38925925925925925,6.4974000000059675],[0.4790625000000001,-0.3412962962962963,6.512500000000003],[0.5047916666666665,-0.2992592592592593,6.528500000000008],[0.5412499999999999,-0.2581481481481481,6.545100000023851],[0.5270833333333333,-0.24666666666666665,6.561700000017893],[0.5233333333333334,-0.2644444444444445,6.578400000005971],[0.5245833333333333,-0.3072222222222222,6.595100000023848],[0.5322916666666667,-0.377962962962963,6.611800000011925],[0.5076041666666666,-0.42370370370370375,6.628400000005968],[0.4794791666666666,-0.46111111111111114,6.646600000023852],[0.4513541666666666,-0.4677777777777778,6.662000000000006],[0.46083333333333343,-0.5164814814814814,6.67830000001193],[0.4,-0.5305555555555556,6.695100000023842],[0.36572916666666655,-0.5901851851851851,6.711800000011934],[0.3403125000000001,-0.5942592592592593,6.728400000005962],[0.29364583333333344,-0.5888888888888889,6.747500000000002],[0.29364583333333344,-0.5888888888888889,6.76210000002385],[0.29010416666666666,-0.5561111111111111,6.778700000017892],[0.2772916666666667,-0.5320370370370371,6.795200000017886],[0.28958333333333336,-0.5494444444444444,6.814000000000007],[0.2881249999999999,-0.522962962962963,6.828400000005971],[0.3333333333333333,-0.5207407407407407,6.845300000011932],[0.346875,-0.5072222222222221,6.864200000017888],[0.346875,-0.5072222222222221,6.878700000017886],[0.3802083333333333,-0.507962962962963,6.895200000017894],[0.38291666666666657,-0.46111111111111114,6.911700000017888],[0.3865624999999999,-0.42370370370370375,6.930700000017893],[0.40906250000000005,-0.412962962962963,6.945200000017891],[0.38791666666666674,-0.40018518518518525,6.961700000017885],[0.37374999999999997,-0.3816666666666667,6.978400000005962],[0.365625,-0.34314814814814815,6.9950000000000045],[0.3712500000000001,-0.3485185185185185,7.011700000017882],[0.34916666666666674,-0.35907407407407405,7.028400000005959],[0.3388541666666666,-0.4112962962962963,7.045000000000002],[0.34041666666666665,-0.4427777777777778,7.061700000017893],[0.3460416666666667,-0.4762962962962963,7.078400000005971],[0.3680208333333333,-0.5268518518518519,7.094999999999999],[0.37177083333333344,-0.5272222222222221,7.1117000000178905],[0.3765625,-0.5655555555555555,7.128400000005968],[0.4010416666666667,-0.5466666666666666,7.145100000023845],[0.3962500000000001,-0.5362962962962964,7.161700000017888]]","[0.00020000001788389454,0.03560000002384811,0.0452000000178856,0.06200000000001182,0.07850000000000534,0.09520000001788276,0.11510000002384402,0.1285000000000025,0.14520000001789413,0.1618000000119224,0.1784000000059649,0.1951000000238423,0.21190000000596854,0.22840000000596206,0.24520000001788844,0.26180000001193093,0.2785000000000082,0.29510000002385084,0.3118000000119281,0.3286000000238545,0.345100000023848,0.36180000001192525,0.37860000002385163,0.3952000000178941,0.4118000000119224,0.42849999999999966,0.4451000000238423,0.4618000000119338,0.47840000000596206,0.49520000001788844,0.5118000000119309,0.5285000000000082,0.5452000000178856,0.5619000000059629,0.5784000000059706,0.5952000000178828,0.6117000000178905,0.6285000000000025,0.6451000000238452,0.6618000000119224,0.6784999999999997,0.6951000000238423,0.7118000000119338,0.7284000000059621,0.7452000000178884,0.7618000000119309,0.7785000000000082,0.7952000000178856,0.8117000000178933,0.8286000000238545,0.8452000000178828,0.8618000000119252,0.8785000000000025,0.8969000000059708,0.9147000000178878,0.9286000000238488,0.945300000011926,0.9643000000119315,0.9787000000178807,0.9955000000000069,1.0165000000000077,1.0309000000059712,1.0453000000119204,1.0620000000000118,1.081900000005973,1.0953000000119317,1.11190000000596,1.1314000000059679,1.1452000000178941,1.16220000001789,1.1786000000238488,1.1975000000000051,1.2120000000000033,1.2287000000178807,1.2452000000178884,1.264100000023845,1.278700000017892,1.2956000000238532,1.3170000000000073,1.3323000000119265,1.348100000023848,1.3618000000119252,1.382000000000005,1.3964000000059684,1.4132000000178806,1.4284999999999997,1.4451000000238423,1.4618000000119338,1.478400000005962,1.4951000000238537,1.511700000017882,1.5285000000000082,1.5451000000238508,1.5625,1.5785000000000053,1.5952000000178828,1.6118000000119252,1.6285000000000025,1.6452000000178941,1.6618000000119224,1.6784999999999997,1.6951000000238423,1.7152000000178873,1.7305000000000064,1.7480000000000047,1.7686000000238522,1.7784000000059592,1.7951000000238508,1.8120000000000118,1.8320000000000078,1.8476000000238457,1.864300000011923,1.8825000000000074,1.8954000000059636,1.9120000000000061,1.9284999999999997,1.9504000000059705,1.9621000000238524,1.9789000000059644,2.0013000000119234,2.0120000000000005,2.028500000000008,2.0454000000059693,2.0705000000000098,2.0790000000000077,2.0954000000059665,2.112000000000009,2.135900000005961,2.145300000011929,2.162000000000006,2.181400000005965,2.196800000011933,2.2120000000000033,2.228600000023846,2.247700000017886,2.2620000000000005,2.278700000017892,2.2952000000178856,2.314800000011928,2.3285000000000053,2.3453000000119317,2.3653000000119278,2.3810000000000002,2.39610000002385,2.4118000000119224,2.4311000000238465,2.4458000000119284,2.4634000000059615,2.4787000000178807,2.4991000000238444,2.5135000000000076,2.5289000000059616,2.5452000000178856,2.564800000011928,2.580200000017882,2.595100000023848,2.61190000000596,2.6317000000178865,2.645300000011929,2.662000000000006,2.678600000023849,2.6980000000000075,2.715400000005971,2.731400000005962,2.751500000000007,2.761800000011931,2.778800000011927,2.7953000000119204,2.8153000000119306,2.83060000002385,2.8456000000238504,2.8656000000238464,2.880400000005963,2.895300000011929,2.9119000000059714,2.9318000000119326,2.9480000000000075,2.9651000000238525,2.982200000017883,2.995700000017891,3.0119000000059657,3.028600000023843,3.048500000000004,3.06340000000597,3.0787000000178892,3.0977000000178805,3.1129999999999995,3.128800000011921,3.1458000000119313,3.1734000000059694,3.1826000000238537,3.1950000000000074,3.211700000017885,3.228400000005962,3.2451000000238537,3.261700000017882,3.278400000005959,3.2952000000178856,3.311800000011928,3.3284000000059706,3.345100000023848,3.36190000000596,3.3785000000000025,3.395100000023845,3.4118000000119224,3.4284999999999997,3.4451000000238423,3.461700000017885,3.478400000005962,3.4950000000000045,3.511800000011931,3.5289000000059616,3.5452000000178856,3.5617000000178933,3.5785000000000053,3.595100000023848,3.6117000000178905,3.6285000000000025,3.645200000017894,3.6617000000178876,3.6784999999999997,3.6951000000238423,3.7119000000059685,3.728400000005962,3.7451000000238537,3.761800000011931,3.7819000000059617,3.79640000000596,3.8117000000178933,3.8284000000059706,3.8452000000178828,3.8618000000119252,3.8785000000000025,3.895200000017894,3.9117000000178876,3.928400000005965,3.9451000000238423,3.9674000000059664,3.978400000005962,3.9950000000000045,4.011800000011931,4.028400000005959,4.052800000011928,4.063200000017886,4.078500000000005,4.095100000023848,4.111800000011925,4.128400000005968,4.145100000023845,4.161800000011922,4.178400000005965,4.195100000023842,4.211700000017885,4.228500000000011,4.245200000017888,4.261700000017882,4.278400000005959,4.295100000023851,4.311700000017893,4.328400000005971,4.345100000023848,4.3617000000178905,4.378400000005968,4.395100000023845,4.415000000000006,4.429700000017888,4.445100000023842,4.461700000017885,4.478400000005962,4.495100000023854,4.511800000011931,4.5283000000119245,4.545100000023851,4.561700000017893,4.578400000005971,4.595200000017883,4.6117000000178905,4.628400000005968,4.645100000023845,4.661800000011922,4.682100000023851,4.69550000000001,4.711800000011934,4.7297000000178855,4.748000000000005,4.764300000011929,4.779700000017883,4.795100000023851,4.811800000011928,4.828400000005971,4.845100000023848,4.861800000011925,4.878400000005968,4.895100000023845,4.914600000023853,4.928400000005965,4.945100000023842,4.961800000011934,4.978400000005962,4.995100000023854,5.011800000011931,5.028400000005959,5.045100000023851,5.063000000000002,5.078400000005971,5.095100000023848,5.1117000000178905,5.128300000011933,5.145200000017894,5.161900000005971,5.178400000005965,5.195100000023842,5.211800000011934,5.228400000005962,5.245100000023854,5.262300000011933,5.278400000005959,5.295100000023851,5.311800000011928,5.328400000005971,5.345200000017883,5.361800000011925,5.381300000011933,5.395100000023845,5.411900000005971,5.4285,5.447600000023854,5.4634000000059615,5.480000000000004,5.498300000011923,5.514300000011929,5.528500000000008,5.547700000017883,5.5625,5.578700000017889,5.595200000017883,5.611800000011925,5.628400000005968,5.648300000011929,5.6648000000119225,5.68040000000596,5.69850000000001,5.714700000017885,5.731100000023844,5.75,5.761900000005966,5.778800000011927,5.795200000017886,5.8147000000178934,5.828800000011924,5.845300000011932,5.865100000023844,5.882100000023854,5.896700000017887,5.914700000017888,5.9288000000119325,5.9504000000059705,5.964500000000001,5.978500000000011,5.9950000000000045,6.011800000011931,6.028400000005959,6.045100000023851,6.061800000011928,6.078400000005971,6.094999999999999,6.111800000011925,6.128400000005968,6.145100000023845,6.163100000023846,6.178400000005965,6.195100000023842,6.211700000017885,6.228400000005962,6.246000000000009,6.2620000000000005,6.278400000005959,6.295100000023851,6.311700000017893,6.328400000005971,6.345100000023848,6.361800000011925,6.378400000005968,6.395100000023845,6.411800000011922,6.42830000001193,6.445000000000007,6.461700000017885,6.481100000023844,6.4974000000059675,6.512500000000003,6.528500000000008,6.545100000023851,6.561700000017893,6.578400000005971,6.595100000023848,6.611800000011925,6.628400000005968,6.646600000023852,6.662000000000006,6.67830000001193,6.695100000023842,6.711800000011934,6.728400000005962,6.747500000000002,6.76210000002385,6.778700000017892,6.795200000017886,6.814000000000007,6.828400000005971,6.845300000011932,6.864200000017888,6.878700000017886,6.895200000017894,6.911700000017888,6.930700000017893,6.945200000017891,6.961700000017885,6.978400000005962,6.9950000000000045,7.011700000017882,7.028400000005959,7.045000000000002,7.061700000017893,7.078400000005971,7.094999999999999,7.1117000000178905,7.128400000005968,7.145100000023845,7.161700000017888]","[1733381160343,1733381160371,1733381160380,1733381160397,1733381160414,1733381160430,1733381160450,1733381160464,1733381160480,1733381160497,1733381160514,1733381160530,1733381160547,1733381160563,1733381160580,1733381160597,1733381160614,1733381160630,1733381160647,1733381160664,1733381160680,1733381160697,1733381160714,1733381160730,1733381160747,1733381160764,1733381160780,1733381160797,1733381160813,1733381160830,1733381160847,1733381160863,1733381160880,1733381160897,1733381160913,1733381160930,1733381160947,1733381160964,1733381160980,1733381160997,1733381161013,1733381161030,1733381161047,1733381161064,1733381161080,1733381161097,1733381161114,1733381161130,1733381161147,1733381161164,1733381161180,1733381161197,1733381161214,1733381161232,1733381161250,1733381161264,1733381161280,1733381161299,1733381161314,1733381161331,1733381161352,1733381161366,1733381161380,1733381161397,1733381161417,1733381161430,1733381161447,1733381161467,1733381161480,1733381161497,1733381161514,1733381161533,1733381161547,1733381161564,1733381161580,1733381161599,1733381161614,1733381161631,1733381161652,1733381161667,1733381161683,1733381161697,1733381161717,1733381161731,1733381161748,1733381161763,1733381161780,1733381161797,1733381161813,1733381161830,1733381161847,1733381161864,1733381161880,1733381161897,1733381161913,1733381161930,1733381161947,1733381161964,1733381161980,1733381161997,1733381162013,1733381162030,1733381162050,1733381162066,1733381162083,1733381162104,1733381162113,1733381162130,1733381162147,1733381162167,1733381162183,1733381162199,1733381162218,1733381162230,1733381162247,1733381162264,1733381162285,1733381162297,1733381162314,1733381162336,1733381162347,1733381162364,1733381162380,1733381162406,1733381162414,1733381162430,1733381162447,1733381162471,1733381162480,1733381162497,1733381162516,1733381162532,1733381162547,1733381162564,1733381162583,1733381162597,1733381162614,1733381162630,1733381162650,1733381162664,1733381162680,1733381162700,1733381162716,1733381162731,1733381162747,1733381162766,1733381162781,1733381162798,1733381162814,1733381162834,1733381162848,1733381162864,1733381162880,1733381162900,1733381162915,1733381162930,1733381162947,1733381162967,1733381162980,1733381162997,1733381163014,1733381163033,1733381163050,1733381163066,1733381163087,1733381163097,1733381163114,1733381163130,1733381163150,1733381163166,1733381163181,1733381163201,1733381163215,1733381163230,1733381163247,1733381163267,1733381163283,1733381163300,1733381163317,1733381163331,1733381163347,1733381163364,1733381163384,1733381163398,1733381163414,1733381163433,1733381163448,1733381163464,1733381163481,1733381163508,1733381163518,1733381163530,1733381163547,1733381163563,1733381163580,1733381163597,1733381163613,1733381163630,1733381163647,1733381163663,1733381163680,1733381163697,1733381163714,1733381163730,1733381163747,1733381163763,1733381163780,1733381163797,1733381163813,1733381163830,1733381163847,1733381163864,1733381163880,1733381163897,1733381163913,1733381163930,1733381163947,1733381163963,1733381163980,1733381163997,1733381164014,1733381164030,1733381164047,1733381164063,1733381164080,1733381164097,1733381164117,1733381164131,1733381164147,1733381164163,1733381164180,1733381164197,1733381164213,1733381164230,1733381164247,1733381164263,1733381164280,1733381164302,1733381164313,1733381164330,1733381164347,1733381164363,1733381164388,1733381164398,1733381164413,1733381164430,1733381164447,1733381164463,1733381164480,1733381164497,1733381164513,1733381164530,1733381164547,1733381164563,1733381164580,1733381164597,1733381164613,1733381164630,1733381164647,1733381164663,1733381164680,1733381164697,1733381164713,1733381164730,1733381164750,1733381164765,1733381164780,1733381164797,1733381164813,1733381164830,1733381164847,1733381164863,1733381164880,1733381164897,1733381164913,1733381164930,1733381164947,1733381164963,1733381164980,1733381164997,1733381165017,1733381165030,1733381165047,1733381165065,1733381165083,1733381165099,1733381165115,1733381165130,1733381165147,1733381165163,1733381165180,1733381165197,1733381165213,1733381165230,1733381165250,1733381165263,1733381165280,1733381165297,1733381165313,1733381165330,1733381165347,1733381165363,1733381165380,1733381165398,1733381165413,1733381165430,1733381165447,1733381165463,1733381165480,1733381165497,1733381165513,1733381165530,1733381165547,1733381165563,1733381165580,1733381165597,1733381165613,1733381165630,1733381165647,1733381165663,1733381165680,1733381165697,1733381165716,1733381165730,1733381165747,1733381165764,1733381165783,1733381165798,1733381165815,1733381165833,1733381165849,1733381165864,1733381165883,1733381165897,1733381165914,1733381165930,1733381165947,1733381165963,1733381165983,1733381166000,1733381166015,1733381166034,1733381166050,1733381166066,1733381166085,1733381166097,1733381166114,1733381166130,1733381166150,1733381166164,1733381166180,1733381166200,1733381166217,1733381166232,1733381166250,1733381166264,1733381166285,1733381166300,1733381166314,1733381166330,1733381166347,1733381166363,1733381166380,1733381166397,1733381166413,1733381166430,1733381166447,1733381166463,1733381166480,1733381166498,1733381166513,1733381166530,1733381166547,1733381166563,1733381166581,1733381166597,1733381166613,1733381166630,1733381166647,1733381166663,1733381166680,1733381166697,1733381166713,1733381166730,1733381166747,1733381166763,1733381166780,1733381166797,1733381166816,1733381166832,1733381166848,1733381166863,1733381166880,1733381166897,1733381166913,1733381166930,1733381166947,1733381166963,1733381166982,1733381166997,1733381167013,1733381167030,1733381167047,1733381167063,1733381167083,1733381167097,1733381167114,1733381167130,1733381167149,1733381167163,1733381167180,1733381167199,1733381167214,1733381167230,1733381167247,1733381167266,1733381167280,1733381167297,1733381167313,1733381167330,1733381167347,1733381167363,1733381167380,1733381167397,1733381167413,1733381167430,1733381167447,1733381167463,1733381167480,1733381167497]","[[758.4,722.5],[758.4,722.5],[755.5,741.3],[755.5,741.3],[751.3,743.6],[751.3,743.6],[749.4,744.9],[749.4,744.9],[751.7,737.3],[768.5,749.8],[781.4,761],[793.2,745.7],[805,730.4],[834.7,749.4],[853.9,763.6],[868.3,750.8],[874,753],[877.4,756.2],[864.2,767.9],[839,757.7],[823,752.6],[823,752.6],[827.7,760.2],[826.6,762.9],[812.1,757.8],[806.8,747.3],[811.6,761.6],[821.9,774.2],[812.6,785.7],[830.6,795.4],[848.6,805.1],[867.4,819.6],[874.2,822.1],[886.5,818.7],[901.8,822.5],[905.7,835.5],[900,837],[894,839.9],[907.6,843.9],[890.6,839.2],[873.8,841],[850.7,827.7],[818.9,816.2],[787.4,815.5],[787.4,815.5],[762.2,806.6],[745.4,791.4],[730.6,786.1],[709.5,777.8],[688.4,769.5],[685.9,761.2],[683.2,746.4],[663.1,727.7],[653.9,716.8],[644.7,705.9],[645,695.7],[639.8,686.5],[646.6,665.6],[665.2,637.4],[677.9,620],[684.1,609.8],[695.8,613.4],[725.1,627.4],[741.1,618.4],[757.1,609.4],[781.7,610],[815.8,600.7],[835.9,593.2],[842.1,600.7],[854.2,597.4],[869.9,599],[875,586.4],[880.4,577.1],[904.8,589.7],[928.7,600],[927.8,598.5],[932.1,596.4],[934.2,608.4],[935.7,598.4],[951.1,605.3],[966.5,611],[995.2,621.7],[1023.6,629.1],[1022.4,603.2],[1018.5,595.4],[1017.4,574.8],[1011.4,571],[1013.4,558.5],[1019.2,563.6],[1011.1,551.8],[1001.9,530.3],[975.2,507.2],[966.6,500.2],[980.9,517.2],[991.6,511.4],[999.5,518.4],[1003.9,537.1],[1004.6,546.3],[1019.5,569.4],[1045.2,598.8],[1080.7,634.6],[1130.2,674.6],[1153.1,678],[1127.1,674.2],[1107.9,677.4],[1102,660.9],[1102,660.9],[1107.2,639.7],[1104.1,638.9],[1066.5,619.3],[1035.5,589.5],[987.5,554.7],[936,520.4],[903.5,498.8],[913.2,494.7],[923.5,496],[930.9,519.1],[930.9,519.1],[927.6,516.8],[927.6,516.8],[916.1,493.8],[916.1,493.8],[941.6,486.1],[917.7,471.8],[917.7,471.8],[936.4,464.3],[936.4,464.3],[945.7,461.6],[945.7,461.6],[949.5,455.4],[962,454.8],[976.7,421.8],[972.8,376.2],[963.9,365.1],[969.4,358.4],[968,344.5],[998.6,341.1],[981,348],[973,337.5],[964.6,346.4],[948.7,338.1],[923.8,375.3],[935.7,399.8],[967.3,406.2],[980.2,408.9],[983.3,408.4],[999.6,402.8],[1029.8,388.4],[1068,374.6],[1082.5,374.9],[1099,384.6],[1116.6,339.9],[1105.6,318.4],[1096.5,299.4],[1102.7,295.1],[1113.9,295],[1109,305.4],[1075.3,310.2],[1055.6,323],[1049.5,323.3],[1055.5,300.5],[1066.6,313.6],[1079.2,332.2],[1078.3,350.3],[1059,351.5],[1059,351.5],[1062.4,372.2],[1080.5,370.8],[1108,375],[1092,386],[1081.5,387.3],[1061.2,404.4],[1060.6,397.2],[1052.7,393.9],[1044.8,390.6],[1068.6,387.3],[1055.3,361.6],[1011.9,376.8],[997.4,405.1],[1009.2,381.5],[1031.4,349.6],[1049.3,324.2],[1047.5,323.1],[1045.8,312.2],[1044.1,301.3],[1032.5,296.3],[1029.8,299.1],[1042.9,277.6],[1042.9,277.6],[1057.9,237.1],[1057.9,237.1],[1078.6,242.6],[1075.3,260.5],[1076.3,271.9],[1073.9,289.6],[1076.2,297.1],[1075.8,308.2],[1075.4,319.3],[1089.2,326.9],[1113.6,327.8],[1126.6,334.6],[1101.5,318.1],[1090,297.5],[1102.1,292.5],[1117.6,281.2],[1127.8,284.6],[1140.7,284.4],[1172,284.2],[1189.6,278.4],[1199.1,279.4],[1223.7,287.1],[1265.3,312.2],[1312.1,332.6],[1335.3,337.4],[1348.5,355.4],[1368,369.3],[1397.6,384.2],[1408.8,399.1],[1422.5,418.7],[1435.9,437],[1424.5,427.1],[1422.3,418.5],[1422.6,409.6],[1425.4,396.1],[1438.2,369.4],[1459.5,331],[1455.4,303.8],[1440.6,272.1],[1435,241.6],[1415.2,220.5],[1384,216.2],[1384,222.2],[1371.3,234.3],[1356.1,251],[1336.2,251],[1306.7,261.2],[1273,281.2],[1250,305.7],[1250,305.7],[1203.3,329.1],[1203.3,329.1],[1188,324.6],[1198.6,327.2],[1198.6,327.2],[1174.4,332.3],[1174.4,332.3],[1142.4,362.4],[1142.4,362.4],[1136.7,411.9],[1123.5,462.2],[1099.7,534.1],[1091.3,562.1],[1079.5,599.6],[1061.9,637.3],[1027.4,694.8],[1015.2,765.7],[997.6,813.3],[996,840.4],[1005,852.6],[1031.3,884.8],[1066.1,888.2],[1097.7,909.7],[1136.6,922.8],[1200,932.5],[1257.9,945.8],[1229.5,892.8],[1211.1,853.5],[1185.5,809.5],[1109.1,781.6],[1029.9,740.6],[947.9,711.3],[916.7,686.8],[881.6,661.2],[824.6,626.4],[769.1,582.4],[784.9,612.2],[799.7,638.8],[818.9,647.2],[852,635],[870.1,630.7],[894.2,623.4],[894.6,589.3],[904.9,578.9],[930.4,576.1],[965.9,579.1],[979.5,557.7],[986.3,526.5],[996.8,517.7],[1009.1,506.1],[1028.6,490.3],[1048.8,460.8],[1054.7,454.6],[1038.6,432.9],[1038.4,404.4],[1024.3,380.2],[1022.1,351.6],[1028.7,329.9],[1034,306.9],[1044.1,290.5],[1055.9,273.3],[1067,269.8],[1077.2,275.8],[1099.5,273.6],[1097.4,277.1],[1103.2,276.1],[1117.1,284.9],[1125.5,296.9],[1141.7,307.9],[1143.2,317.2],[1143.2,317.2],[1128.9,316.8],[1120.9,314.4],[1115.9,316.5],[1092.1,314.2],[1101.5,340.5],[1110.9,366.8],[1109.4,390.4],[1120.1,394.7],[1112.9,391],[1125.5,408.3],[1157.7,441.4],[1173.7,467.3],[1182.1,481.7],[1211.9,475.6],[1227.8,454],[1237.4,422.5],[1247.7,389.4],[1228.7,389.1],[1217,394],[1193.6,375.8],[1163.2,357.5],[1145.5,347.6],[1125,326.2],[1109.5,334.7],[1080.8,327.3],[1058.4,329.8],[1038,344.4],[1043.7,339.4],[1044.9,341.3],[1010.8,349.3],[989,352.4],[958.2,362.7],[967,367.9],[948.4,356.9],[932.2,349.8],[932.2,349.8],[930.1,364.5],[901,377.9],[866.4,397.1],[881.2,384.6],[931.3,366],[975.4,330.9],[1032,325.9],[1051.8,337.5],[1087,362.9],[1116.1,378.4],[1140.5,377],[1140.5,377],[1222.8,362.8],[1222.8,362.8],[1300.5,359.8],[1300.5,359.8],[1292.3,359.6],[1292.3,359.6],[1287.4,362.4],[1287.4,362.4],[1308.4,382.5],[1308.4,382.5],[1311.6,391.2],[1327.8,383.4],[1348.1,378.1],[1390,375.7],[1413.3,364.1],[1377.9,351.2],[1335.7,329.3],[1352.1,337.8],[1370.3,350.2],[1358.2,359.9],[1364.7,329],[1345.8,323.6],[1337.3,301.4],[1303,286.7],[1301.4,276.6],[1332.1,285.5],[1368.3,291.4],[1380.7,304],[1401.3,307.7],[1430.3,313.8],[1421.3,329.8],[1421.3,329.8],[1419.9,355.7],[1444.6,378.4],[1479.6,400.6],[1466,406.8],[1462.4,397.2],[1463.6,374.1],[1471,335.9],[1447.3,311.2],[1420.3,291],[1393.3,287.4],[1402.4,261.1],[1344,253.5],[1311.1,221.3],[1286.7,219.1],[1241.9,222],[1241.9,222],[1238.5,239.7],[1226.2,252.7],[1238,243.3],[1236.6,257.6],[1280,258.8],[1293,266.1],[1293,266.1],[1325,265.7],[1327.6,291],[1331.1,311.2],[1352.7,317],[1332.4,323.9],[1318.8,333.9],[1311,354.7],[1316.4,351.8],[1295.2,346.1],[1285.3,317.9],[1286.8,300.9],[1292.2,282.8],[1313.3,255.5],[1316.9,255.3],[1321.5,234.6],[1345,244.8],[1340.4,250.4]]","[0,0.3527331528]","[0.3527331528,0.3527331528]","[-0.3527331528,-0.3527331528]","[-0.3527331528,0]","[0,-0.3527331528]","[0.3527331528,-0.3527331528]","[0,0]","[0.3527331528,0]",0,0,0,0,1,2,Tablet,7,1,11,9
