inst1_resp.keys,inst1_resp.rt,calibrationMouse.x,calibrationMouse.y,calibrationMouse.leftButton,calibrationMouse.midButton,calibrationMouse.rightButton,calibrationClick.x,calibrationClick.y,calibrationClick.leftButton,calibrationClick.midButton,calibrationClick.rightButton,trialsc.thisRepN,trialsc.thisTrialN,trialsc.thisN,trialsc.thisIndex,trialsc.ran,calibration_x,calibration_y,participant,session,date,expName,psychopyVersion,OS,frameRate,calibrationClick.clicked_name,ScreenRes_pixels,mouse_2.x,mouse_2.y,mouse_2.leftButton,mouse_2.midButton,mouse_2.rightButton,mouse_2.time,mouse_2.clicked_name,Camera_pixels,mouse.x,mouse.y,mouse.leftButton,mouse.midButton,mouse.rightButton,mouse.time,mouse.clicked_name,Choice,Trial,TrialDuration,MOUSE_GAZE,ET_GAZE,ET_GAZE_x_T,time,unixTime,ET_GAZE_NF,Loc_Option1_label,Loc_Option2_label,Loc_Cost_label,Loc_Qual_label,Loc_Option1_cost,Loc_Option2_cost,Loc_Option1_quality,Loc_Option2_quality,trials.thisRepN,trials.thisTrialN,trials.thisN,trials.thisIndex,trials.ran,Block,Device,cost1,qual1,cost2,qual2
space,1.5808,0.086458333,0.225925926,1,0,0,0.655208333,-0.661111111,1,0,0,0,0,0,20,1,0.67,-0.67,20,001,2024-12-04_14h28.25.596,Attention_exp_legacy,2023.1.0,Win32,60.24096386,,,,,,,,,,,,,,,,,,,,,,,,,,,,,,,,,,,,,,,,,,,,,
,,,,,,,0.00625,-0.644444444,1,0,0,0,1,1,9,1,0,-0.67,20,001,2024-12-04_14h28.25.596,Attention_exp_legacy,2023.1.0,Win32,60.24096386,,,,,,,,,,,,,,,,,,,,,,,,,,,,,,,,,,,,,,,,,,,,,
,,,,,,,-0.326041667,-0.333333333,1,0,0,0,2,2,5,1,-0.33,-0.33,20,001,2024-12-04_14h28.25.596,Attention_exp_legacy,2023.1.0,Win32,60.24096386,calibration_square,,,,,,,,,,,,,,,,,,,,,,,,,,,,,,,,,,,,,,,,,,,,
,,,,,,,0.335416667,-0.664814815,1,0,0,0,3,3,14,1,0.33,-0.67,20,001,2024-12-04_14h28.25.596,Attention_exp_legacy,2023.1.0,Win32,60.24096386,calibration_square,,,,,,,,,,,,,,,,,,,,,,,,,,,,,,,,,,,,,,,,,,,,
,,,,,,,0.011458333,0.683333333,1,0,0,0,4,4,13,1,0,0.67,20,001,2024-12-04_14h28.25.596,Attention_exp_legacy,2023.1.0,Win32,60.24096386,,,,,,,,,,,,,,,,,,,,,,,,,,,,,,,,,,,,,,,,,,,,,
,,,,,,,-0.007291667,0.381481481,1,0,0,0,5,5,12,1,0,0.33,20,001,2024-12-04_14h28.25.596,Attention_exp_legacy,2023.1.0,Win32,60.24096386,,,,,,,,,,,,,,,,,,,,,,,,,,,,,,,,,,,,,,,,,,,,,
,,,,,,,-0.654166667,0.32962963,1,0,0,0,6,6,3,1,-0.67,0.33,20,001,2024-12-04_14h28.25.596,Attention_exp_legacy,2023.1.0,Win32,60.24096386,,,,,,,,,,,,,,,,,,,,,,,,,,,,,,,,,,,,,,,,,,,,,
,,,,,,,-0.334375,-0.009259259,1,0,0,0,7,7,6,1,-0.33,0,20,001,2024-12-04_14h28.25.596,Attention_exp_legacy,2023.1.0,Win32,60.24096386,calibration_square,,,,,,,,,,,,,,,,,,,,,,,,,,,,,,,,,,,,,,,,,,,,
,,,,,,,-0.672916667,-0.042592593,1,0,0,0,8,8,2,1,-0.67,0,20,001,2024-12-04_14h28.25.596,Attention_exp_legacy,2023.1.0,Win32,60.24096386,,,,,,,,,,,,,,,,,,,,,,,,,,,,,,,,,,,,,,,,,,,,,
,,,,,,,0.3,0.337037037,1,0,0,0,9,9,17,1,0.33,0.33,20,001,2024-12-04_14h28.25.596,Attention_exp_legacy,2023.1.0,Win32,60.24096386,,,,,,,,,,,,,,,,,,,,,,,,,,,,,,,,,,,,,,,,,,,,,
,,,,,,,0.672916667,0.672222222,1,0,0,0,10,10,19,1,0.67,0.67,20,001,2024-12-04_14h28.25.596,Attention_exp_legacy,2023.1.0,Win32,60.24096386,calibration_square,,,,,,,,,,,,,,,,,,,,,,,,,,,,,,,,,,,,,,,,,,,,
,,,,,,,0.334375,0,1,0,0,0,11,11,16,1,0.33,0,20,001,2024-12-04_14h28.25.596,Attention_exp_legacy,2023.1.0,Win32,60.24096386,calibration_square,,,,,,,,,,,,,,,,,,,,,,,,,,,,,,,,,,,,,,,,,,,,
,,,,,,,0.330208333,0.683333333,1,0,0,0,12,12,18,1,0.33,0.67,20,001,2024-12-04_14h28.25.596,Attention_exp_legacy,2023.1.0,Win32,60.24096386,,,,,,,,,,,,,,,,,,,,,,,,,,,,,,,,,,,,,,,,,,,,,
,,,,,,,-0.0125,-0.005555556,1,0,0,0,13,13,11,1,0,0,20,001,2024-12-04_14h28.25.596,Attention_exp_legacy,2023.1.0,Win32,60.24096386,,,,,,,,,,,,,,,,,,,,,,,,,,,,,,,,,,,,,,,,,,,,,
,,,,,,,-0.673958333,-0.666666667,1,0,0,0,14,14,0,1,-0.67,-0.67,20,001,2024-12-04_14h28.25.596,Attention_exp_legacy,2023.1.0,Win32,60.24096386,calibration_square,,,,,,,,,,,,,,,,,,,,,,,,,,,,,,,,,,,,,,,,,,,,
,,,,,,,-0.330208333,-0.664814815,1,0,0,0,15,15,4,1,-0.33,-0.67,20,001,2024-12-04_14h28.25.596,Attention_exp_legacy,2023.1.0,Win32,60.24096386,calibration_square,,,,,,,,,,,,,,,,,,,,,,,,,,,,,,,,,,,,,,,,,,,,
,,,,,,,-0.3375,0.335185185,1,0,0,0,16,16,7,1,-0.33,0.33,20,001,2024-12-04_14h28.25.596,Attention_exp_legacy,2023.1.0,Win32,60.24096386,calibration_square,,,,,,,,,,,,,,,,,,,,,,,,,,,,,,,,,,,,,,,,,,,,
,,,,,,,-0.33125,0.685185185,1,0,0,0,17,17,8,1,-0.33,0.67,20,001,2024-12-04_14h28.25.596,Attention_exp_legacy,2023.1.0,Win32,60.24096386,,,,,,,,,,,,,,,,,,,,,,,,,,,,,,,,,,,,,,,,,,,,,
,,,,,,,-0.004166667,-0.307407407,1,0,0,0,18,18,10,1,0,-0.33,20,001,2024-12-04_14h28.25.596,Attention_exp_legacy,2023.1.0,Win32,60.24096386,,,,,,,,,,,,,,,,,,,,,,,,,,,,,,,,,,,,,,,,,,,,,
,,,,,,,-0.688541667,-0.322222222,1,0,0,0,19,19,1,1,-0.67,-0.33,20,001,2024-12-04_14h28.25.596,Attention_exp_legacy,2023.1.0,Win32,60.24096386,,,,,,,,,,,,,,,,,,,,,,,,,,,,,,,,,,,,,,,,,,,,,
,,,,,,,0.327083333,-0.312962963,1,0,0,0,20,20,15,1,0.33,-0.33,20,001,2024-12-04_14h28.25.596,Attention_exp_legacy,2023.1.0,Win32,60.24096386,,,,,,,,,,,,,,,,,,,,,,,,,,,,,,,,,,,,,,,,,,,,,
,,,,,,,,,,,,,,,,,,,20,001,2024-12-04_14h28.25.596,Attention_exp_legacy,2023.1.0,Win32,60.24096386,,"[1920,1080]",[0.0625],[-0.5185185185185185],[1],[0],[0],[0.7803000000044733],"[""StartButton""]","[640,480]",[-0.05416666666666667],[0.32222222222222224],[1],[0],[0],[1.5878999999985126],"[""Option1_label""]",Option1_label,1,2.6001,"[[0.06666666666666667,-0.31851851851851853],[0.06666666666666667,-0.31851851851851853],[0.06666666666666667,-0.31851851851851853],[0.06666666666666667,-0.31851851851851853],[0.06666666666666667,-0.31851851851851853],[0.06666666666666667,-0.31851851851851853],[0.06666666666666667,-0.31851851851851853],[0.06666666666666667,-0.31851851851851853],[0.06666666666666667,-0.31851851851851853],[0.06666666666666667,-0.31851851851851853],[0.06666666666666667,-0.31851851851851853],[0.06666666666666667,-0.31851851851851853],[0.06666666666666667,-0.31851851851851853],[0.06666666666666667,-0.31851851851851853],[0.06666666666666667,-0.31851851851851853],[0.06666666666666667,-0.31851851851851853],[0.06666666666666667,-0.31851851851851853],[0.06666666666666667,-0.31851851851851853],[0.06666666666666667,-0.31851851851851853],[0.06666666666666667,-0.31851851851851853],[0.06666666666666667,-0.31851851851851853],[0.06666666666666667,-0.31851851851851853],[0.06666666666666667,-0.31851851851851853],[0.06666666666666667,-0.31851851851851853],[0.06666666666666667,-0.31851851851851853],[0.06666666666666667,-0.31851851851851853],[0.06666666666666667,-0.31851851851851853],[0.06666666666666667,-0.31851851851851853],[0.06666666666666667,-0.31851851851851853],[0.06666666666666667,-0.31851851851851853],[0.06666666666666667,-0.31851851851851853],[0.06666666666666667,-0.31851851851851853],[0.06666666666666667,-0.31851851851851853],[0.06666666666666667,-0.31851851851851853],[0.06666666666666667,-0.3055555555555556],[0.06145833333333333,-0.2833333333333333],[0.05,-0.2574074074074074],[0.04375,-0.24444444444444444],[0.036458333333333336,-0.22777777777777777],[0.030208333333333334,-0.21666666666666667],[0.025,-0.20185185185185187],[0.022916666666666665,-0.19444444444444445],[0.022916666666666665,-0.18888888888888888],[0.022916666666666665,-0.17962962962962964],[0.023958333333333335,-0.16666666666666666],[0.028125,-0.15185185185185185],[0.036458333333333336,-0.13518518518518519],[0.058333333333333334,-0.1],[0.08229166666666667,-0.07037037037037037],[0.10520833333333333,-0.044444444444444446],[0.12291666666666666,-0.024074074074074074],[0.13854166666666667,-0.003703703703703704],[0.14479166666666668,0.003703703703703704],[0.146875,0.007407407407407408],[0.146875,0.009259259259259259],[0.146875,0.009259259259259259],[0.146875,0.009259259259259259],[0.146875,0.009259259259259259],[0.146875,0.009259259259259259],[0.1375,0.009259259259259259],[0.12604166666666666,0.009259259259259259],[0.103125,0.003703703703703704],[0.06875,-0.007407407407407408],[0.022916666666666665,-0.024074074074074074],[-0.022916666666666665,-0.04814814814814815],[-0.05416666666666667,-0.05740740740740741],[-0.07291666666666667,-0.05925925925925926],[-0.09479166666666666,-0.05740740740740741],[-0.13333333333333333,-0.03888888888888889],[-0.15208333333333332,-0.025925925925925925],[-0.1625,-0.011111111111111112],[-0.16354166666666667,-0.005555555555555556],[-0.16458333333333333,0.014814814814814815],[-0.16354166666666667,0.07222222222222222],[-0.15833333333333333,0.0962962962962963],[-0.14583333333333334,0.13518518518518519],[-0.13020833333333334,0.17222222222222222],[-0.11770833333333333,0.20185185185185187],[-0.10520833333333333,0.22777777777777777],[-0.09583333333333334,0.24814814814814815],[-0.08854166666666667,0.2611111111111111],[-0.08229166666666667,0.27037037037037037],[-0.07604166666666666,0.2796296296296296],[-0.071875,0.2851851851851852],[-0.06875,0.29074074074074074],[-0.06666666666666667,0.29444444444444445],[-0.06354166666666666,0.30185185185185187],[-0.0625,0.3037037037037037],[-0.06041666666666667,0.30925925925925923],[-0.058333333333333334,0.3148148148148148],[-0.05625,0.31851851851851853],[-0.05416666666666667,0.32222222222222224],[-0.05416666666666667,0.32222222222222224],[-0.05416666666666667,0.32222222222222224],[-0.05416666666666667,0.32222222222222224],[-0.05416666666666667,0.32222222222222224],[-0.05416666666666667,0.32222222222222224],[-0.05416666666666667,0.32222222222222224],[-0.05416666666666667,0.32222222222222224],[-0.05416666666666667,0.32222222222222224],[-0.05416666666666667,0.32222222222222224],[-0.05416666666666667,0.32222222222222224],[-0.05416666666666667,0.32222222222222224],[-0.05416666666666667,0.32222222222222224],[-0.05416666666666667,0.32222222222222224],[-0.05416666666666667,0.32222222222222224],[-0.05416666666666667,0.32222222222222224],[-0.05416666666666667,0.32222222222222224],[-0.05416666666666667,0.32222222222222224],[-0.05416666666666667,0.32222222222222224],[-0.05416666666666667,0.32222222222222224],[-0.05416666666666667,0.32222222222222224],[-0.05416666666666667,0.32222222222222224],[-0.05416666666666667,0.32222222222222224],[-0.05416666666666667,0.32222222222222224],[-0.05416666666666667,0.32222222222222224],[-0.05416666666666667,0.32222222222222224],[-0.05416666666666667,0.32222222222222224],[-0.05416666666666667,0.32222222222222224],[-0.05416666666666667,0.32222222222222224],[-0.05416666666666667,0.32222222222222224],[-0.05416666666666667,0.32222222222222224],[-0.05416666666666667,0.32222222222222224],[-0.05416666666666667,0.32222222222222224],[-0.05416666666666667,0.32222222222222224],[-0.05416666666666667,0.32222222222222224],[-0.05416666666666667,0.32222222222222224],[-0.05416666666666667,0.32037037037037036],[-0.05416666666666667,0.32037037037037036],[-0.05416666666666667,0.32037037037037036],[-0.05416666666666667,0.31666666666666665],[-0.05416666666666667,0.31666666666666665],[-0.05416666666666667,0.3148148148148148],[-0.05416666666666667,0.3148148148148148],[-0.05520833333333333,0.31296296296296294],[-0.05520833333333333,0.31296296296296294],[-0.05520833333333333,0.3111111111111111],[-0.05520833333333333,0.30925925925925923],[-0.05625,0.3074074074074074],[-0.05625,0.3074074074074074],[-0.05625,0.3074074074074074],[-0.05625,0.3055555555555556],[-0.05625,0.3055555555555556],[-0.057291666666666664,0.3037037037037037],[-0.057291666666666664,0.3037037037037037],[-0.057291666666666664,0.3037037037037037],[-0.057291666666666664,0.30185185185185187],[-0.057291666666666664,0.3],[-0.057291666666666664,0.3],[-0.057291666666666664,0.3],[-0.057291666666666664,0.29814814814814816],[-0.057291666666666664,0.29814814814814816],[-0.057291666666666664,0.29814814814814816],[-0.057291666666666664,0.29814814814814816],[-0.057291666666666664,0.29814814814814816],[-0.057291666666666664,0.2962962962962963]]","[[0.04864583333333338,0.3362962962962963],[0.04864583333333338,0.3362962962962963],[0.04864583333333338,0.3362962962962963],[0.03822916666666672,0.3588888888888888],[0.036145833333333384,0.3948148148148149],[0.02020833333333331,0.3618518518518518],[0.016875000000000046,0.3416666666666667],[0.016250000000000025,0.3396296296296296],[0.02302083333333336,0.35259259259259257],[0.022083333333333382,0.3387037037037037],[0.021041666666666715,0.3316666666666667],[0.005833333333333357,0.381111111111111],[0.002291666666666714,0.38555555555555565],[0.0012500000000000473,0.36999999999999994],[-0.003333333333333381,0.34333333333333327],[-0.006562499999999953,0.375],[-0.017916666666666713,0.3685185185185185],[-0.025937499999999978,0.3670370370370371],[-0.06864583333333331,0.35462962962962963],[-0.10812499999999996,0.3735185185185186],[-0.1453125,0.381111111111111],[-0.17614583333333336,0.35537037037037034],[-0.21322916666666672,0.38370370370370377],[-0.25187499999999996,0.4044444444444444],[-0.28489583333333335,0.42592592592592593],[-0.3145833333333333,0.42555555555555546],[-0.3519791666666666,0.4420370370370371],[-0.38937499999999997,0.45851851851851855],[-0.38041666666666674,0.47925925925925916],[-0.369375,0.4714814814814815],[-0.38010416666666663,0.4524074074074073],[-0.39083333333333337,0.43333333333333335],[-0.3779166666666666,0.40111111111111114],[-0.38218749999999996,0.38055555555555554],[-0.38947916666666665,0.3516666666666666],[-0.3452083333333333,0.32944444444444443],[-0.3259375,0.32685185185185184],[-0.30666666666666664,0.3242592592592593],[-0.30437500000000006,0.3127777777777777],[-0.2830208333333334,0.30092592592592593],[-0.2234375,0.31444444444444436],[-0.1638541666666666,0.327962962962963],[-0.11843750000000004,0.31592592592592594],[-0.05583333333333336,0.29222222222222216],[-0.00458333333333331,0.28129629629629627],[-0.006458333333333381,0.27685185185185185],[0.012812499999999952,0.23851851851851844],[0.03208333333333328,0.20018518518518522],[0.06645833333333329,0.18074074074074079],[0.07927083333333323,0.15722222222222218],[0.06593749999999995,0.13203703703703695],[0.05260416666666667,0.10685185185185193],[0.06322916666666671,0.11370370370370367],[0.06479166666666672,0.09981481481481477],[0.04541666666666669,0.125],[0.043124999999999976,0.1205555555555556],[0.04791666666666667,0.1388888888888889],[0.05447916666666662,0.17037037037037037],[0.04718749999999995,0.19296296296296306],[0.06531250000000005,0.22611111111111115],[0.07104166666666671,0.20462962962962963],[0.08947916666666676,0.22018518518518515],[0.07687499999999996,0.19314814814814807],[0.07020833333333343,0.16777777777777783],[0.07020833333333343,0.16777777777777783],[0.09583333333333334,0.12888888888888894],[0.09583333333333334,0.12888888888888894],[0.08177083333333333,0.11574074074074074],[0.08479166666666677,0.09462962962962967],[0.08479166666666677,0.09462962962962967],[0.06416666666666669,0.05055555555555547],[0.06416666666666669,0.05055555555555547],[0.051250000000000046,0.03425925925925926],[0.015416666666666618,0.01185185185185181],[0.015416666666666618,0.01185185185185181],[0.007187499999999976,0.012037037037037037],[0.0006250000000000236,0.012037037037037037],[0.002395833333333286,0.042407407407407366],[0.0046875,0.0705555555555556],[0.002291666666666714,0.07388888888888885],[0.02354166666666669,0.10981481481481473],[0.00927083333333331,0.08333333333333333],[0.014583333333333334,0.08055555555555556],[0.012916666666666642,0.05055555555555547],[0.018020833333333285,0.05259259259259255],[0.018020833333333285,0.05259259259259255],[0.01270833333333338,0.036666666666666584],[0,0.0011111111111111532],[-0.02958333333333331,-0.046481481481481526],[-0.04583333333333333,-0.07981481481481485],[-0.05354166666666664,-0.10351851851851848],[-0.06072916666666662,-0.1690740740740741],[-0.06875,-0.18592592592592588],[-0.07447916666666667,-0.21666666666666667],[-0.05572916666666667,-0.24388888888888888],[-0.04375,-0.3031481481481481],[-0.03916666666666669,-0.377962962962963],[-0.041562499999999974,-0.47000000000000003],[-0.027604166666666666,-0.557962962962963],[-0.024374999999999977,-0.6388888888888888],[-0.033749999999999974,-0.7020370370370371],[-0.043124999999999976,-0.7651851851851852],[-0.03989583333333328,-0.8207407407407408],[-0.03968750000000002,-0.8705555555555556],[-0.04635416666666667,-0.8405555555555555],[-0.05302083333333331,-0.8105555555555556],[-0.049687500000000044,-0.7161111111111111],[-0.04697916666666669,-0.6011111111111112],[-0.05635416666666669,-0.5124074074074074],[-0.05354166666666664,-0.4524074074074074],[-0.042812500000000024,-0.3742592592592593],[-0.03208333333333328,-0.29611111111111105],[-0.020624999999999952,-0.17851851851851847],[-0.010625000000000048,-0.06259259259259262],[-0.006666666666666643,-0.004444444444444402],[-0.002708333333333357,0.053703703703703705],[0.0003124999999999526,0.09444444444444444],[0.003958333333333286,0.11462962962962958],[0.025,0.14074074074074075],[0.033645833333333285,0.19018518518518526],[0.030416666666666713,0.1838888888888888],[0.019166666666666644,0.1874074074074075],[0.01395833333333331,0.20981481481481473],[0.014687500000000023,0.23444444444444448],[0.010208333333333286,0.20907407407407402],[0.005729166666666666,0.18370370370370379],[0.003541666666666643,0.1866666666666666],[0.005312500000000024,0.1574074074074074],[0.019687499999999976,0.12537037037037047],[0.035625000000000046,0.18777777777777774],[0.07260416666666672,0.22592592592592592],[0.07260416666666672,0.22592592592592592],[0.0931250000000001,0.22185185185185177],[0.11697916666666662,0.16833333333333328],[0.13802083333333334,0.10259259259259255],[0.15760416666666663,0.08092592592592601],[0.1803124999999999,0.08777777777777773],[0.20166666666666658,0.0837037037037038],[0.21583333333333338,0.07962962962962963],[0.1814583333333334,0.09314814814814806],[0.17781250000000004,0.05129629629629638],[0.14552083333333338,0.023333333333333376],[0.14552083333333338,0.023333333333333376],[0.1336458333333333,0.039629629629629584],[0.11114583333333337,0.052037037037037076],[0.10489583333333338,0.07166666666666675],[0.06645833333333329,0.000925925925925926],[0.04093749999999995,-0.027962962962963005],[0.017916666666666713,-0.07148148148148152],[-0.006562499999999953,-0.07388888888888885],[-0.0013541666666666192,-0.04537037037037037],[-0.02802083333333331,-0.0933333333333333],[-0.06197916666666667,-0.1361111111111111],[-0.09187500000000005,-0.19074074074074074],[-0.11458333333333333,-0.23629629629629634],[-0.1460416666666667,-0.27462962962962967]]","[[0.04864583333333338,0.3362962962962963,0.0002999999970114686],[0.04864583333333338,0.3362962962962963,0.04049999999999443],[0.04864583333333338,0.3362962962962963,0.045299999997013174],[0.03822916666666672,0.3588888888888888,0.06199999999999761],[0.036145833333333384,0.3948148148148149,0.07939999999851466],[0.02020833333333331,0.3618518518518518,0.09529999999702454],[0.016875000000000046,0.3416666666666667,0.11199999999999477],[0.016250000000000025,0.3396296296296296,0.12869999999553272],[0.02302083333333336,0.35259259259259257,0.14539999999850295],[0.022083333333333382,0.3387037037037037,0.16199999999999193],[0.021041666666666715,0.3316666666666667,0.17929999999701351],[0.005833333333333357,0.381111111111111,0.19769999999552113],[0.002291666666666714,0.38555555555555565,0.2150000000000034],[0.0012500000000000473,0.36999999999999994,0.22869999999552704],[-0.003333333333333381,0.34333333333333327,0.24539999999851148],[-0.006562499999999953,0.375,0.26200000000000045],[-0.017916666666666713,0.3685185185185185,0.27879999999701965],[-0.025937499999999978,0.3670370370370371,0.29539999999850863],[-0.06864583333333331,0.35462962962962963,0.31469999999552556],[-0.10812499999999996,0.3735185185185186,0.32869999999552135],[-0.1453125,0.381111111111111,0.3453999999985058],[-0.17614583333333336,0.35537037037037034,0.36199999999999477],[-0.21322916666666672,0.38370370370370377,0.3786999999955327],[-0.25187499999999996,0.4044444444444444,0.39539999999850295],[-0.28489583333333335,0.42592592592592593,0.4152999999970177],[-0.3145833333333333,0.42555555555555546,0.4286999999955299],[-0.3519791666666666,0.4420370370370371,0.4453999999985143],[-0.38937499999999997,0.45851851851851855,0.4620000000000033],[-0.38041666666666674,0.47925925925925916,0.47869999999552704],[-0.369375,0.4714814814814815,0.4953999999985115],[-0.38010416666666663,0.4524074074074073,0.514199999995526],[-0.39083333333333337,0.43333333333333335,0.5286999999955242],[-0.3779166666666666,0.40111111111111114,0.5453999999985086],[-0.38218749999999996,0.38055555555555554,0.5618999999985022],[-0.38947916666666665,0.3516666666666666,0.5826999999955262],[-0.3452083333333333,0.32944444444444443,0.5976999999955268],[-0.3259375,0.32685185185185184,0.6147999999970182],[-0.30666666666666664,0.3242592592592593,0.628799999997014],[-0.30437500000000006,0.3127777777777777,0.647699999995524],[-0.2830208333333334,0.30092592592592593,0.6621999999955221],[-0.2234375,0.31444444444444436,0.679000000000002],[-0.1638541666666666,0.327962962962963,0.6992999999970237],[-0.11843750000000004,0.31592592592592594,0.7147999999970125],[-0.05583333333333336,0.29222222222222216,0.7291999999955294],[-0.00458333333333331,0.28129629629629627,0.7480000000000047],[-0.006458333333333381,0.27685185185185185,0.7625000000000028],[0.012812499999999952,0.23851851851851844,0.7788999999985151],[0.03208333333333328,0.20018518518518522,0.7955000000000041],[0.06645833333333329,0.18074074074074079,0.815899999998507],[0.07927083333333323,0.15722222222222218,0.8291999999955237],[0.06593749999999995,0.13203703703703695,0.8455000000000013],[0.05260416666666667,0.10685185185185193,0.8620999999940437],[0.06322916666666671,0.11370370370370367,0.8813999999985072],[0.06479166666666672,0.09981481481481477,0.8954999999999984],[0.04541666666666669,0.125,0.9122999999970176],[0.043124999999999976,0.1205555555555556,0.9285999999940344],[0.04791666666666667,0.1388888888888889,0.9452999999970189],[0.05447916666666662,0.17037037037037037,0.9618999999985078],[0.04718749999999995,0.19296296296296306,0.978699999995527],[0.06531250000000005,0.22611111111111115,0.9997999999970233],[0.07104166666666671,0.20462962962962963,1.0150000000000006],[0.08947916666666676,0.22018518518518515,1.0288999999985151],[0.07687499999999996,0.19314814814814807,1.0489999999999924],[0.07020833333333343,0.16777777777777783,1.0655999999940349],[0.07020833333333343,0.16777777777777783,1.0788999999985123],[0.09583333333333334,0.12888888888888894,1.0955000000000013],[0.09583333333333334,0.12888888888888894,1.1162999999970111],[0.08177083333333333,0.11574074074074074,1.128799999997014],[0.08479166666666677,0.09462962962962967,1.1492999999970124],[0.08479166666666677,0.09462962962962967,1.1832999999970184],[0.06416666666666669,0.05055555555555547,1.1915000000000049],[0.06416666666666669,0.05055555555555547,1.198699999995526],[0.051250000000000046,0.03425925925925926,1.2121999999955335],[0.015416666666666618,0.01185185185185181,1.2366999999955226],[0.015416666666666618,0.01185185185185181,1.2453999999985115],[0.007187499999999976,0.012037037037037037,1.2620999999940352],[0.0006250000000000236,0.012037037037037037,1.2790999999940311],[0.002395833333333286,0.042407407407407366,1.2978999999985064],[0.0046875,0.0705555555555556,1.313999999999993],[0.002291666666666714,0.07388888888888885,1.3288999999985123],[0.02354166666666669,0.10981481481481473,1.3476999999955268],[0.00927083333333331,0.08333333333333333,1.362199999995525],[0.014583333333333334,0.08055555555555556,1.379499999999993],[0.012916666666666642,0.05055555555555547,1.3955999999940332],[0.018020833333333285,0.05259259259259255,1.414699999995534],[0.018020833333333285,0.05259259259259255,1.4295999999940392],[0.01270833333333338,0.036666666666666584,1.4456999999955258],[0,0.0011111111111111532,1.4623999999985102],[-0.02958333333333331,-0.046481481481481526,1.4806999999955224],[-0.04583333333333333,-0.07981481481481485,1.4954999999999927],[-0.05354166666666664,-0.10351851851851848,1.5133999999985122],[-0.06072916666666662,-0.1690740740740741,1.5287999999970197],[-0.06875,-0.18592592592592588,1.5452999999970132],[-0.07447916666666667,-0.21666666666666667,1.5621999999955278],[-0.05572916666666667,-0.24388888888888888,1.5786999999955214],[-0.04375,-0.3031481481481481,1.5955000000000013],[-0.03916666666666669,-0.377962962962963,1.6142999999970158],[-0.041562499999999974,-0.47000000000000003,1.6285999999940373],[-0.027604166666666666,-0.557962962962963,1.645399999998503],[-0.024374999999999977,-0.6388888888888888,1.661999999999992],[-0.033749999999999974,-0.7020370370370371,1.6785999999940344],[-0.043124999999999976,-0.7651851851851852,1.6952999999970189],[-0.03989583333333328,-0.8207407407407408,1.713199999995524],[-0.03968750000000002,-0.8705555555555556,1.7285999999940316],[-0.04635416666666667,-0.8405555555555555,1.745299999997016],[-0.05302083333333331,-0.8105555555555556,1.7620000000000005],[-0.049687500000000044,-0.7161111111111111,1.7787999999970197],[-0.04697916666666669,-0.6011111111111112,1.7953999999985086],[-0.05635416666666669,-0.5124074074074074,1.8141999999955232],[-0.05354166666666664,-0.4524074074074074,1.82859999999404],[-0.042812500000000024,-0.3742592592592593,1.8452999999970245],[-0.03208333333333328,-0.29611111111111105,1.8618999999985135],[-0.020624999999999952,-0.17851851851851847,1.8786999999955327],[-0.010625000000000048,-0.06259259259259262,1.8952999999970217],[-0.006666666666666643,-0.004444444444444402,1.911999999999992],[-0.002708333333333357,0.053703703703703705,1.9285999999940344],[0.0003124999999999526,0.09444444444444444,1.9452999999970189],[0.003958333333333286,0.11462962962962958,1.9620000000000033],[0.025,0.14074074074074075,1.978699999995527],[0.033645833333333285,0.19018518518518526,1.995299999997016],[0.030416666666666713,0.1838888888888888,2.0120000000000005],[0.019166666666666644,0.1874074074074075,2.0317999999970198],[0.01395833333333331,0.20981481481481473,2.045299999997013],[0.014687500000000023,0.23444444444444448,2.061899999998502],[0.010208333333333286,0.20907407407407402,2.07859999999404],[0.005729166666666666,0.18370370370370379,2.0952999999970245],[0.003541666666666643,0.1866666666666666,2.112499999999997],[0.005312500000000024,0.1574074074074074,2.130699999995528],[0.019687499999999976,0.12537037037037047,2.1452999999970217],[0.035625000000000046,0.18777777777777774,2.161999999999992],[0.07260416666666672,0.22592592592592592,2.1822999999970136],[0.07260416666666672,0.22592592592592592,2.1953999999985143],[0.0931250000000001,0.22185185185185177,2.2123999999985102],[0.11697916666666662,0.16833333333333328,2.228699999995527],[0.13802083333333334,0.10259259259259255,2.2472999999970114],[0.15760416666666663,0.08092592592592601,2.2620000000000005],[0.1803124999999999,0.08777777777777773,2.278899999998515],[0.20166666666666658,0.0837037037037038,2.295500000000004],[0.21583333333333338,0.07962962962962963,2.313999999999993],[0.1814583333333334,0.09314814814814806,2.3286999999955214],[0.17781250000000004,0.05129629629629638,2.3452999999970245],[0.14552083333333338,0.023333333333333376,2.364099999994039],[0.14552083333333338,0.023333333333333376,2.3785999999940373],[0.1336458333333333,0.039629629629629584,2.395599999994033],[0.11114583333333337,0.052037037037037076,2.411999999999992],[0.10489583333333338,0.07166666666666675,2.42869999999553],[0.06645833333333329,0.000925925925925926,2.447199999995533],[0.04093749999999995,-0.027962962962963005,2.465299999997015],[0.017916666666666713,-0.07148148148148152,2.4788999999985037],[-0.006562499999999953,-0.07388888888888885,2.495299999997016],[-0.0013541666666666192,-0.04537037037037037,2.514899999998505],[-0.02802083333333331,-0.0933333333333333,2.528599999994043],[-0.06197916666666667,-0.1361111111111111,2.5456999999955343],[-0.09187500000000005,-0.19074074074074074,2.5619999999999976],[-0.11458333333333333,-0.23629629629629634,2.5786999999955214],[-0.1460416666666667,-0.27462962962962967,2.6000999999940433]]","[0.0002999999970114686,0.04049999999999443,0.045299999997013174,0.06199999999999761,0.07939999999851466,0.09529999999702454,0.11199999999999477,0.12869999999553272,0.14539999999850295,0.16199999999999193,0.17929999999701351,0.19769999999552113,0.2150000000000034,0.22869999999552704,0.24539999999851148,0.26200000000000045,0.27879999999701965,0.29539999999850863,0.31469999999552556,0.32869999999552135,0.3453999999985058,0.36199999999999477,0.3786999999955327,0.39539999999850295,0.4152999999970177,0.4286999999955299,0.4453999999985143,0.4620000000000033,0.47869999999552704,0.4953999999985115,0.514199999995526,0.5286999999955242,0.5453999999985086,0.5618999999985022,0.5826999999955262,0.5976999999955268,0.6147999999970182,0.628799999997014,0.647699999995524,0.6621999999955221,0.679000000000002,0.6992999999970237,0.7147999999970125,0.7291999999955294,0.7480000000000047,0.7625000000000028,0.7788999999985151,0.7955000000000041,0.815899999998507,0.8291999999955237,0.8455000000000013,0.8620999999940437,0.8813999999985072,0.8954999999999984,0.9122999999970176,0.9285999999940344,0.9452999999970189,0.9618999999985078,0.978699999995527,0.9997999999970233,1.0150000000000006,1.0288999999985151,1.0489999999999924,1.0655999999940349,1.0788999999985123,1.0955000000000013,1.1162999999970111,1.128799999997014,1.1492999999970124,1.1832999999970184,1.1915000000000049,1.198699999995526,1.2121999999955335,1.2366999999955226,1.2453999999985115,1.2620999999940352,1.2790999999940311,1.2978999999985064,1.313999999999993,1.3288999999985123,1.3476999999955268,1.362199999995525,1.379499999999993,1.3955999999940332,1.414699999995534,1.4295999999940392,1.4456999999955258,1.4623999999985102,1.4806999999955224,1.4954999999999927,1.5133999999985122,1.5287999999970197,1.5452999999970132,1.5621999999955278,1.5786999999955214,1.5955000000000013,1.6142999999970158,1.6285999999940373,1.645399999998503,1.661999999999992,1.6785999999940344,1.6952999999970189,1.713199999995524,1.7285999999940316,1.745299999997016,1.7620000000000005,1.7787999999970197,1.7953999999985086,1.8141999999955232,1.82859999999404,1.8452999999970245,1.8618999999985135,1.8786999999955327,1.8952999999970217,1.911999999999992,1.9285999999940344,1.9452999999970189,1.9620000000000033,1.978699999995527,1.995299999997016,2.0120000000000005,2.0317999999970198,2.045299999997013,2.061899999998502,2.07859999999404,2.0952999999970245,2.112499999999997,2.130699999995528,2.1452999999970217,2.161999999999992,2.1822999999970136,2.1953999999985143,2.2123999999985102,2.228699999995527,2.2472999999970114,2.2620000000000005,2.278899999998515,2.295500000000004,2.313999999999993,2.3286999999955214,2.3452999999970245,2.364099999994039,2.3785999999940373,2.395599999994033,2.411999999999992,2.42869999999553,2.447199999995533,2.465299999997015,2.4788999999985037,2.495299999997016,2.514899999998505,2.528599999994043,2.5456999999955343,2.5619999999999976,2.5786999999955214,2.6000999999940433]","[1733293763757,1733293763790,1733293763795,1733293763811,1733293763829,1733293763845,1733293763861,1733293763878,1733293763895,1733293763911,1733293763929,1733293763947,1733293763964,1733293763978,1733293763995,1733293764011,1733293764028,1733293764045,1733293764064,1733293764078,1733293764095,1733293764111,1733293764128,1733293764145,1733293764164,1733293764178,1733293764195,1733293764211,1733293764228,1733293764245,1733293764263,1733293764278,1733293764295,1733293764311,1733293764332,1733293764347,1733293764364,1733293764378,1733293764397,1733293764411,1733293764428,1733293764449,1733293764464,1733293764478,1733293764497,1733293764512,1733293764528,1733293764545,1733293764565,1733293764578,1733293764595,1733293764611,1733293764631,1733293764645,1733293764661,1733293764678,1733293764695,1733293764711,1733293764728,1733293764749,1733293764764,1733293764778,1733293764798,1733293764815,1733293764828,1733293764845,1733293764866,1733293764878,1733293764899,1733293764933,1733293764941,1733293764948,1733293764961,1733293764986,1733293764995,1733293765011,1733293765028,1733293765047,1733293765063,1733293765078,1733293765097,1733293765111,1733293765129,1733293765145,1733293765164,1733293765179,1733293765195,1733293765212,1733293765230,1733293765245,1733293765263,1733293765278,1733293765295,1733293765311,1733293765328,1733293765345,1733293765364,1733293765378,1733293765395,1733293765411,1733293765428,1733293765445,1733293765462,1733293765478,1733293765495,1733293765511,1733293765528,1733293765545,1733293765563,1733293765578,1733293765595,1733293765611,1733293765628,1733293765644,1733293765661,1733293765678,1733293765695,1733293765711,1733293765728,1733293765744,1733293765761,1733293765781,1733293765795,1733293765811,1733293765828,1733293765844,1733293765862,1733293765880,1733293765894,1733293765911,1733293765932,1733293765945,1733293765962,1733293765978,1733293765997,1733293766011,1733293766028,1733293766045,1733293766063,1733293766078,1733293766095,1733293766113,1733293766128,1733293766145,1733293766161,1733293766178,1733293766196,1733293766215,1733293766228,1733293766244,1733293766264,1733293766278,1733293766295,1733293766311,1733293766328,1733293766349]","[[1006.7,721.6],[1006.7,721.6],[1006.7,721.6],[996.7,733.8],[994.7,753.2],[979.4,735.4],[976.2,724.5],[975.6,723.4],[982.1,730.4],[981.2,722.9],[980.2,719.1],[965.6,745.8],[962.2,748.2],[961.2,739.8],[956.8,725.4],[953.7,742.5],[942.8,739],[935.1,738.2],[894.1,731.5],[856.2,741.7],[820.5,745.8],[790.9,731.9],[755.3,747.2],[718.2,758.4],[686.5,770],[658,769.8],[622.1,778.7],[586.2,787.6],[594.8,798.8],[605.4,794.6],[595.1,784.3],[584.8,774],[597.2,756.6],[593.1,745.5],[586.1,729.9],[628.6,717.9],[647.1,716.5],[665.6,715.1],[667.8,708.9],[688.3,702.5],[745.5,709.8],[802.7,717.1],[846.3,710.6],[906.4,697.8],[955.6,691.9],[953.8,689.5],[972.3,668.8],[990.8,648.1],[1023.8,637.6],[1036.1,624.9],[1023.3,611.3],[1010.5,597.7],[1020.7,601.4],[1022.2,593.9],[1003.6,607.5],[1001.4,605.1],[1006,615],[1012.3,632],[1005.3,644.2],[1022.7,662.1],[1028.2,650.5],[1045.9,658.9],[1033.8,644.3],[1027.4,630.6],[1027.4,630.6],[1052,609.6],[1052,609.6],[1038.5,602.5],[1041.4,591.1],[1041.4,591.1],[1021.6,567.3],[1021.6,567.3],[1009.2,558.5],[974.8,546.4],[974.8,546.4],[966.9,546.5],[960.6,546.5],[962.3,562.9],[964.5,578.1],[962.2,579.9],[982.6,599.3],[968.9,585],[974,583.5],[972.4,567.3],[977.3,568.4],[977.3,568.4],[972.2,559.8],[960,540.6],[931.6,514.9],[916,496.9],[908.6,484.1],[901.7,448.7],[894,439.6],[888.5,423],[906.5,408.3],[918,376.3],[922.4,335.9],[920.1,286.2],[933.5,238.7],[936.6,195],[927.6,160.9],[918.6,126.8],[921.7,96.8],[921.9,69.9],[915.5,86.1],[909.1,102.3],[912.3,153.3],[914.9,215.4],[905.9,263.3],[908.6,295.7],[918.9,337.9],[929.2,380.1],[940.2,443.6],[949.8,506.2],[953.6,537.6],[957.4,569],[960.3,591],[963.8,601.9],[984,616],[992.3,642.7],[989.2,639.3],[978.4,641.2],[973.4,653.3],[974.1,666.6],[969.8,652.9],[965.5,639.2],[963.4,640.8],[965.1,625],[978.9,607.7],[994.2,641.4],[1029.7,662],[1029.7,662],[1049.4,659.8],[1072.3,630.9],[1092.5,595.4],[1111.3,583.7],[1133.1,587.4],[1153.6,585.2],[1167.2,583],[1134.2,590.3],[1130.7,567.7],[1099.7,552.6],[1099.7,552.6],[1088.3,561.4],[1066.7,568.1],[1060.7,578.7],[1023.8,540.5],[999.3,524.9],[977.2,501.4],[953.7,500.1],[958.7,515.5],[933.1,489.6],[900.5,466.5],[871.8,437],[850,412.4],[819.8,391.7]]","[0,0.37864299999999995]","[0.37864299999999995,0.37864299999999995]","[-0.37864299999999995,-0.37864299999999995]","[-0.37864299999999995,0]","[0,-0.37864299999999995]","[0.37864299999999995,-0.37864299999999995]","[0,0]","[0.37864299999999995,0]",0,0,0,0,1,3,Laptop,11,9,9,1
,,,,,,,,,,,,,,,,,,,20,001,2024-12-04_14h28.25.596,Attention_exp_legacy,2023.1.0,Win32,60.24096386,,,,,,,,,,,[0.49895833333333334],[0.4],[1],[0],[0],[0.7642999999970215],"[""Option2_label""]",Option2_label,2,1.7827,"[[-0.059375,0.29074074074074074],[-0.059375,0.29074074074074074],[-0.059375,0.29074074074074074],[-0.059375,0.29074074074074074],[-0.059375,0.29074074074074074],[-0.059375,0.29074074074074074],[-0.059375,0.28888888888888886],[-0.059375,0.28888888888888886],[-0.059375,0.28888888888888886],[-0.059375,0.28703703703703703],[-0.059375,0.28703703703703703],[-0.059375,0.28703703703703703],[-0.059375,0.28703703703703703],[-0.059375,0.2833333333333333],[-0.059375,0.2833333333333333],[-0.059375,0.2833333333333333],[-0.059375,0.2833333333333333],[-0.059375,0.2833333333333333],[-0.059375,0.2833333333333333],[-0.059375,0.2814814814814815],[-0.059375,0.2777777777777778],[-0.059375,0.2777777777777778],[-0.053125,0.2740740740740741],[-0.00625,0.27037037037037037],[0.06979166666666667,0.27037037037037037],[0.15729166666666666,0.2722222222222222],[0.25416666666666665,0.2962962962962963],[0.35,0.32407407407407407],[0.43125,0.3574074074074074],[0.4791666666666667,0.3814814814814815],[0.496875,0.3925925925925926],[0.5,0.3962962962962963],[0.5010416666666667,0.3962962962962963],[0.5010416666666667,0.3962962962962963],[0.5010416666666667,0.3962962962962963],[0.5010416666666667,0.3962962962962963],[0.5010416666666667,0.3962962962962963],[0.5010416666666667,0.4],[0.5010416666666667,0.4],[0.5010416666666667,0.4],[0.5010416666666667,0.4],[0.5,0.4],[0.5,0.4],[0.49895833333333334,0.4],[0.49895833333333334,0.4],[0.49895833333333334,0.4],[0.49895833333333334,0.4],[0.4979166666666667,0.4],[0.4979166666666667,0.4],[0.4979166666666667,0.4],[0.4979166666666667,0.4],[0.4979166666666667,0.4],[0.4979166666666667,0.4],[0.4979166666666667,0.4],[0.4979166666666667,0.4],[0.4979166666666667,0.4],[0.4979166666666667,0.4],[0.4979166666666667,0.4],[0.4979166666666667,0.4],[0.4979166666666667,0.4],[0.4979166666666667,0.4],[0.4979166666666667,0.4],[0.4979166666666667,0.4],[0.4979166666666667,0.4],[0.496875,0.4],[0.496875,0.4],[0.49583333333333335,0.4],[0.4947916666666667,0.4],[0.4947916666666667,0.4],[0.4947916666666667,0.4],[0.4947916666666667,0.4],[0.49375,0.4],[0.49375,0.4],[0.49375,0.39814814814814814],[0.49375,0.39814814814814814],[0.49375,0.39814814814814814],[0.49270833333333336,0.39814814814814814],[0.49270833333333336,0.39814814814814814],[0.49270833333333336,0.3962962962962963],[0.49270833333333336,0.3962962962962963],[0.49270833333333336,0.3962962962962963],[0.49270833333333336,0.3962962962962963],[0.49270833333333336,0.3962962962962963],[0.49270833333333336,0.3962962962962963],[0.49270833333333336,0.3962962962962963],[0.49270833333333336,0.3962962962962963],[0.49270833333333336,0.3962962962962963],[0.49270833333333336,0.3962962962962963],[0.49270833333333336,0.3962962962962963],[0.49270833333333336,0.3962962962962963],[0.49270833333333336,0.3962962962962963],[0.49270833333333336,0.3962962962962963],[0.49270833333333336,0.3962962962962963],[0.49270833333333336,0.3962962962962963],[0.49270833333333336,0.3962962962962963],[0.49270833333333336,0.3962962962962963],[0.49270833333333336,0.3962962962962963],[0.49270833333333336,0.3962962962962963],[0.49270833333333336,0.3962962962962963],[0.49270833333333336,0.3962962962962963],[0.49270833333333336,0.3962962962962963],[0.49270833333333336,0.3962962962962963],[0.49270833333333336,0.3962962962962963],[0.49270833333333336,0.3962962962962963],[0.49270833333333336,0.3962962962962963],[0.49270833333333336,0.3962962962962963],[0.49270833333333336,0.3962962962962963],[0.49270833333333336,0.3962962962962963]]","[[0.11291666666666676,-0.056666666666666705],[0.08604166666666657,-0.042407407407407366],[0.059791666666666646,-0.0242592592592593],[0.04114583333333333,-0.05888888888888891],[0.051250000000000046,-0.06500000000000004],[0.05166666666666669,-0.05759259259259263],[0.019687499999999976,-0.040740740740740744],[-0.002812500000000047,-0.03888888888888889],[-0.02000000000000005,-0.048333333333333374],[-0.03718750000000005,-0.057777777777777754],[-0.02374999999999995,-0.04814814814814815],[-0.010312499999999976,-0.03851851851851843],[-0.007187499999999976,-0.09888888888888885],[-0.030520833333333285,-0.03944444444444436],[-0.04010416666666667,-0.0035185185185184764],[-0.04520833333333331,-0.0001851851851852273],[-0.03583333333333331,-0.011481481481481566],[-0.0359375,-0.007777777777777862],[-0.0296875,-0.003888888888888931],[-0.0234375,0],[-0.016875000000000046,-0.03592592592592588],[-0.010312499999999976,-0.07185185185185188],[-0.005208333333333333,-0.03629629629629634],[0.01875,-0.06777777777777783],[0.013229166666666714,-0.08870370370370366],[0.007708333333333309,-0.1096296296296296],[0.016770833333333356,-0.08185185185185183],[0.049583333333333354,-0.12462962962962965],[0.10770833333333343,-0.11203703703703703],[0.16541666666666663,-0.08740740740740739],[0.2021874999999999,-0.08481481481481483],[0.24177083333333324,-0.10888888888888891],[0.29447916666666674,-0.13296296296296298],[0.3334374999999999,-0.13796296296296295],[0.3967708333333334,-0.11444444444444446],[0.4601041666666667,-0.09092592592592597],[0.5042708333333332,-0.1014814814814815],[0.5246875000000001,-0.04148148148148144],[0.5081249999999999,-0.05592592592592591],[0.49197916666666663,-0.0824074074074074],[0.4868750000000001,-0.07759259259259255],[0.4890625,-0.0712962962962963],[0.4890625,-0.0712962962962963],[0.48322916666666677,-0.11129629629629634],[0.48458333333333337,-0.19092592592592597],[0.4735416666666666,-0.26777777777777784],[0.46604166666666674,-0.2946296296296297],[0.46604166666666674,-0.2946296296296297],[0.46375000000000005,-0.3394444444444445],[0.46875,-0.4431481481481482],[0.48760416666666656,-0.4992592592592593],[0.5002083333333334,-0.5474074074074075],[0.5144791666666667,-0.6220370370370369],[0.5186458333333335,-0.6714814814814816],[0.504375,-0.6651851851851852],[0.5135416666666667,-0.6431481481481481],[0.5121875,-0.5638888888888889],[0.5108333333333335,-0.5729629629629629],[0.5076041666666666,-0.5324074074074074],[0.5204166666666665,-0.4583333333333333],[0.5204166666666665,-0.4583333333333333],[0.46552083333333344,-0.3285185185185185],[0.39968750000000003,-0.3237037037037037],[0.39968750000000003,-0.3237037037037037],[0.34739583333333335,-0.29129629629629633],[0.34739583333333335,-0.29129629629629633],[0.3068749999999999,-0.2959259259259259],[0.2907291666666666,-0.35333333333333333],[0.26510416666666664,-0.34203703703703703],[0.25,-0.38796296296296295],[0.24885416666666677,-0.32518518518518524],[0.24885416666666677,-0.32518518518518524],[0.2557291666666667,-0.3696296296296297],[0.25010416666666657,-0.26740740740740737],[0.2856250000000001,-0.28888888888888886],[0.33833333333333326,-0.1933333333333333],[0.3868750000000001,-0.1014814814814815],[0.4248958333333334,-0.05537037037037033],[0.43864583333333323,-0.02092592592592584],[0.4370833333333332,-0.025925925925925925],[0.44166666666666665,-0.018148148148148063],[0.4287499999999999,-0.08074074074074078],[0.4287499999999999,-0.08074074074074078],[0.4326041666666666,-0.06018518518518518],[0.42000000000000004,-0.18574074074074076],[0.4254166666666668,-0.272037037037037],[0.4253124999999999,-0.3218518518518519],[0.4253124999999999,-0.3218518518518519],[0.41520833333333323,-0.3351851851851852],[0.41520833333333323,-0.3351851851851852],[0.4036458333333333,-0.3024074074074074],[0.4036458333333333,-0.3024074074074074],[0.3955208333333334,-0.18666666666666668],[0.3955208333333334,-0.18666666666666668],[0.38791666666666674,-0.09111111111111109],[0.38791666666666674,-0.09111111111111109],[0.3576041666666666,-0.02370370370370362],[0.3576041666666666,-0.02370370370370362],[0.3186458333333334,0.06666666666666667],[0.26020833333333326,0.10925925925925926],[0.20354166666666676,0.14037037037037028],[0.14489583333333325,0.2007407407407407],[0.0990624999999999,0.2507407407407407],[0.057395833333333354,0.2633333333333334],[0.027604166666666666,0.29611111111111105],[0.00614583333333331,0.2831481481481481],[-0.010625000000000048,0.27314814814814814],[-0.01083333333333331,0.2785185185185185]]","[[0.11291666666666676,-0.056666666666666705,0.0001000000014954594],[0.08604166666666657,-0.042407407407407366,0.018000000000000682],[0.059791666666666646,-0.0242592592592593,0.03270000000298978],[0.04114583333333333,-0.05888888888888891,0.04930000000447876],[0.051250000000000046,-0.06500000000000004,0.06720000000298398],[0.05166666666666669,-0.05759259259259263,0.08270000000298694],[0.019687499999999976,-0.040740740740740744,0.1039999999999992],[-0.002812500000000047,-0.03888888888888889,0.11980000000447433],[-0.02000000000000005,-0.048333333333333374,0.13520000000298182],[-0.03718750000000005,-0.057777777777777754,0.1504000000059733],[-0.02374999999999995,-0.04814814814814815,0.16640000000596444],[-0.010312499999999976,-0.03851851851851843,0.18270000000298126],[-0.007187499999999976,-0.09888888888888885,0.2022000000029891],[-0.030520833333333285,-0.03944444444444436,0.21980000000448285],[-0.04010416666666667,-0.0035185185185184764,0.23540000000596706],[-0.04520833333333331,-0.0001851851851852273,0.24980000000446978],[-0.03583333333333331,-0.011481481481481566,0.26600000000000534],[-0.0359375,-0.007777777777777862,0.2826000000014943],[-0.0296875,-0.003888888888888931,0.29980000000448115],[-0.0234375,0,0.31840000000596547],[-0.016875000000000046,-0.03592592592592588,0.33290000000596365],[-0.010312499999999976,-0.07185185185185188,0.3494000000059714],[-0.005208333333333333,-0.03629629629629634,0.3662000000029906],[0.01875,-0.06777777777777783,0.38680000000447023],[0.013229166666666714,-0.08870370370370366,0.4023000000044732],[0.007708333333333309,-0.1096296296296296,0.41620000000298774],[0.016770833333333356,-0.08185185185185183,0.43510000000149773],[0.049583333333333354,-0.12462962962962965,0.44950000000000045],[0.10770833333333343,-0.11203703703703703,0.4667000000029873],[0.16541666666666663,-0.08740740740740739,0.4828000000044739],[0.2021874999999999,-0.08481481481481483,0.502400000005963],[0.24177083333333324,-0.10888888888888891,0.516200000002982],[0.29447916666666674,-0.13296296296296298,0.5329000000059665],[0.3334374999999999,-0.13796296296296295,0.5493000000044788],[0.3967708333333334,-0.11444444444444446,0.5664000000059701],[0.4601041666666667,-0.09092592592592597,0.5855000000000103],[0.5042708333333332,-0.1014814814814815,0.6030000000000086],[0.5246875000000001,-0.04148148148148144,0.6197000000029931],[0.5081249999999999,-0.05592592592592591,0.6349000000059704],[0.49197916666666663,-0.0824074074074074,0.6494000000059685],[0.4868750000000001,-0.07759259259259255,0.6661000000014923],[0.4890625,-0.0712962962962963,0.6868000000044816],[0.4890625,-0.0712962962962963,0.6994000000059657],[0.48322916666666677,-0.11129629629629634,0.7163000000044804],[0.48458333333333337,-0.19092592592592597,0.7327000000029926],[0.4735416666666666,-0.26777777777777784,0.7496000000014931],[0.46604166666666674,-0.2946296296296297,0.766200000002982],[0.46604166666666674,-0.2946296296296297,0.7827000000029898],[0.46375000000000005,-0.3394444444444445,0.79940000000596],[0.46875,-0.4431481481481482,0.8160000000000025],[0.48760416666666656,-0.4992592592592593,0.8326000000014915],[0.5002083333333334,-0.5474074074074075,0.8493000000044759],[0.5144791666666667,-0.6220370370370369,0.8661000000014951],[0.5186458333333335,-0.6714814814814816,0.8827000000029841],[0.504375,-0.6651851851851852,0.8996000000014988],[0.5135416666666667,-0.6431481481481481,0.916000000000011],[0.5121875,-0.5638888888888889,0.9364000000059605],[0.5108333333333335,-0.5729629629629629,0.9512000000029843],[0.5076041666666666,-0.5324074074074074,0.9695000000000107],[0.5204166666666665,-0.4583333333333333,0.9849999999999994],[0.5204166666666665,-0.4583333333333333,0.9994000000059629],[0.46552083333333344,-0.3285185185185185,1.0160000000000053],[0.39968750000000003,-0.3237037037037037,1.0329000000059665],[0.39968750000000003,-0.3237037037037037,1.0544000000059697],[0.34739583333333335,-0.29129629629629633,1.0727000000029818],[0.34739583333333335,-0.29129629629629633,1.082700000002987],[0.3068749999999999,-0.2959259259259259,1.0997000000029828],[0.2907291666666666,-0.35333333333333333,1.1161000000014951],[0.26510416666666664,-0.34203703703703703,1.132700000002984],[0.25,-0.38796296296296295,1.149300000004473],[0.24885416666666677,-0.32518518518518524,1.166000000000011],[0.24885416666666677,-0.32518518518518524,1.1850000000000023],[0.2557291666666667,-0.3696296296296297,1.1994000000059657],[0.25010416666666657,-0.26740740740740737,1.216200000002985],[0.2856250000000001,-0.28888888888888886,1.2326000000014972],[0.33833333333333326,-0.1933333333333333,1.2493000000044816],[0.3868750000000001,-0.1014814814814815,1.2683000000044728],[0.4248958333333334,-0.05537037037037033,1.2826000000014943],[0.43864583333333323,-0.02092592592592584,1.2996000000014902],[0.4370833333333332,-0.025925925925925925,1.3160000000000025],[0.44166666666666665,-0.018148148148148063,1.332700000002987],[0.4287499999999999,-0.08074074074074078,1.349300000004476],[0.4287499999999999,-0.08074074074074078,1.3659999999999997],[0.4326041666666666,-0.06018518518518518,1.382700000002984],[0.42000000000000004,-0.18574074074074076,1.4021000000014965],[0.4254166666666668,-0.272037037037037,1.4161000000014923],[0.4253124999999999,-0.3218518518518519,1.4327000000029813],[0.4253124999999999,-0.3218518518518519,1.4493000000044702],[0.41520833333333323,-0.3351851851851852,1.4660000000000082],[0.41520833333333323,-0.3351851851851852,1.4826000000014972],[0.4036458333333333,-0.3024074074074074,1.4994000000059629],[0.4036458333333333,-0.3024074074074074,1.5160000000000053],[0.3955208333333334,-0.18666666666666668,1.5326000000014943],[0.3955208333333334,-0.18666666666666668,1.54940000000596],[0.38791666666666674,-0.09111111111111109,1.566100000001498],[0.38791666666666674,-0.09111111111111109,1.5836000000014963],[0.3576041666666666,-0.02370370370370362,1.5994000000059714],[0.3576041666666666,-0.02370370370370362,1.6159999999999997],[0.3186458333333334,0.06666666666666667,1.632700000002984],[0.26020833333333326,0.10925925925925926,1.6495000000000033],[0.20354166666666676,0.14037037037037028,1.6664000000059644],[0.14489583333333325,0.2007407407407407,1.6827000000029813],[0.0990624999999999,0.2507407407407407,1.6993000000044702],[0.057395833333333354,0.2633333333333334,1.7160000000000082],[0.027604166666666666,0.29611111111111105,1.7327000000029926],[0.00614583333333331,0.2831481481481481,1.7494000000059629],[-0.010625000000000048,0.27314814814814814,1.7660000000000053],[-0.01083333333333331,0.2785185185185185,1.7827000000029898]]","[0.0001000000014954594,0.018000000000000682,0.03270000000298978,0.04930000000447876,0.06720000000298398,0.08270000000298694,0.1039999999999992,0.11980000000447433,0.13520000000298182,0.1504000000059733,0.16640000000596444,0.18270000000298126,0.2022000000029891,0.21980000000448285,0.23540000000596706,0.24980000000446978,0.26600000000000534,0.2826000000014943,0.29980000000448115,0.31840000000596547,0.33290000000596365,0.3494000000059714,0.3662000000029906,0.38680000000447023,0.4023000000044732,0.41620000000298774,0.43510000000149773,0.44950000000000045,0.4667000000029873,0.4828000000044739,0.502400000005963,0.516200000002982,0.5329000000059665,0.5493000000044788,0.5664000000059701,0.5855000000000103,0.6030000000000086,0.6197000000029931,0.6349000000059704,0.6494000000059685,0.6661000000014923,0.6868000000044816,0.6994000000059657,0.7163000000044804,0.7327000000029926,0.7496000000014931,0.766200000002982,0.7827000000029898,0.79940000000596,0.8160000000000025,0.8326000000014915,0.8493000000044759,0.8661000000014951,0.8827000000029841,0.8996000000014988,0.916000000000011,0.9364000000059605,0.9512000000029843,0.9695000000000107,0.9849999999999994,0.9994000000059629,1.0160000000000053,1.0329000000059665,1.0544000000059697,1.0727000000029818,1.082700000002987,1.0997000000029828,1.1161000000014951,1.132700000002984,1.149300000004473,1.166000000000011,1.1850000000000023,1.1994000000059657,1.216200000002985,1.2326000000014972,1.2493000000044816,1.2683000000044728,1.2826000000014943,1.2996000000014902,1.3160000000000025,1.332700000002987,1.349300000004476,1.3659999999999997,1.382700000002984,1.4021000000014965,1.4161000000014923,1.4327000000029813,1.4493000000044702,1.4660000000000082,1.4826000000014972,1.4994000000059629,1.5160000000000053,1.5326000000014943,1.54940000000596,1.566100000001498,1.5836000000014963,1.5994000000059714,1.6159999999999997,1.632700000002984,1.6495000000000033,1.6664000000059644,1.6827000000029813,1.6993000000044702,1.7160000000000082,1.7327000000029926,1.7494000000059629,1.7660000000000053,1.7827000000029898]","[1733293767364,1733293767380,1733293767394,1733293767411,1733293767429,1733293767444,1733293767466,1733293767482,1733293767497,1733293767512,1733293767528,1733293767544,1733293767564,1733293767582,1733293767597,1733293767612,1733293767628,1733293767644,1733293767662,1733293767680,1733293767695,1733293767711,1733293767728,1733293767749,1733293767764,1733293767778,1733293767797,1733293767811,1733293767828,1733293767845,1733293767864,1733293767878,1733293767895,1733293767911,1733293767928,1733293767947,1733293767965,1733293767982,1733293767997,1733293768011,1733293768028,1733293768049,1733293768061,1733293768078,1733293768094,1733293768111,1733293768128,1733293768145,1733293768161,1733293768178,1733293768194,1733293768211,1733293768228,1733293768244,1733293768261,1733293768278,1733293768298,1733293768313,1733293768331,1733293768347,1733293768361,1733293768378,1733293768395,1733293768416,1733293768435,1733293768445,1733293768462,1733293768478,1733293768494,1733293768511,1733293768528,1733293768547,1733293768561,1733293768578,1733293768594,1733293768611,1733293768630,1733293768644,1733293768661,1733293768678,1733293768694,1733293768711,1733293768728,1733293768745,1733293768764,1733293768778,1733293768795,1733293768811,1733293768828,1733293768844,1733293768861,1733293768878,1733293768894,1733293768911,1733293768928,1733293768945,1733293768961,1733293768978,1733293768994,1733293769011,1733293769028,1733293769045,1733293769061,1733293769078,1733293769094,1733293769111,1733293769128,1733293769144]","[[1068.4,509.4],[1042.6,517.1],[1017.4,526.9],[999.5,508.2],[1009.2,504.9],[1009.6,508.9],[978.9,518],[957.3,519],[940.8,513.9],[924.3,508.8],[937.2,514],[950.1,519.2],[953.1,486.6],[930.7,518.7],[921.5,538.1],[916.6,539.9],[925.6,533.8],[925.5,535.8],[931.5,537.9],[937.5,540],[943.8,520.6],[950.1,501.2],[955,520.4],[978,503.4],[972.7,492.1],[967.4,480.8],[976.1,495.8],[1007.6,472.7],[1063.4,479.5],[1118.8,492.8],[1154.1,494.2],[1192.1,481.2],[1242.7,468.2],[1280.1,465.5],[1340.9,478.2],[1401.7,490.9],[1444.1,485.2],[1463.7,517.6],[1447.8,509.8],[1432.3,495.5],[1427.4,498.1],[1429.5,501.5],[1429.5,501.5],[1423.9,479.9],[1425.2,436.9],[1414.6,395.4],[1407.4,380.9],[1407.4,380.9],[1405.2,356.7],[1410,300.7],[1428.1,270.4],[1440.2,244.4],[1453.9,204.1],[1457.9,177.4],[1444.2,180.8],[1453,192.7],[1451.7,235.5],[1450.4,230.6],[1447.3,252.5],[1459.6,292.5],[1459.6,292.5],[1406.9,362.6],[1343.7,365.2],[1343.7,365.2],[1293.5,382.7],[1293.5,382.7],[1254.6,380.2],[1239.1,349.2],[1214.5,355.3],[1200,330.5],[1198.9,364.4],[1198.9,364.4],[1205.5,340.4],[1200.1,395.6],[1234.2,384],[1284.8,435.6],[1331.4,485.2],[1367.9,510.1],[1381.1,528.7],[1379.6,526],[1384,530.2],[1371.6,496.4],[1371.6,496.4],[1375.3,507.5],[1363.2,439.7],[1368.4,393.1],[1368.3,366.2],[1368.3,366.2],[1358.6,359],[1358.6,359],[1347.5,376.7],[1347.5,376.7],[1339.7,439.2],[1339.7,439.2],[1332.4,490.8],[1332.4,490.8],[1303.3,527.2],[1303.3,527.2],[1265.9,576],[1209.8,599],[1155.4,615.8],[1099.1,648.4],[1055.1,675.4],[1015.1,682.2],[986.5,699.9],[965.9,692.9],[949.8,687.5],[949.6,690.4]]","[0,0.37864299999999995]","[0.37864299999999995,0.37864299999999995]","[-0.37864299999999995,0]","[-0.37864299999999995,-0.37864299999999995]","[0,0]","[0.37864299999999995,0]","[0,-0.37864299999999995]","[0.37864299999999995,-0.37864299999999995]",0,1,1,1,1,3,Laptop,5,5,13,7
,,,,,,,,,,,,,,,,,,,20,001,2024-12-04_14h28.25.596,Attention_exp_legacy,2023.1.0,Win32,60.24096386,,,,,,,,,,,[0.49270833333333336],[0.3962962962962963],[1],[0],[0],[1.348700000002978],"[""Option2_label""]",Option2_label,3,2.3663,"[[0.49270833333333336,0.3962962962962963],[0.49270833333333336,0.3962962962962963],[0.49270833333333336,0.3962962962962963],[0.49270833333333336,0.3962962962962963],[0.49270833333333336,0.3962962962962963],[0.49270833333333336,0.3962962962962963],[0.49270833333333336,0.3962962962962963],[0.49270833333333336,0.3962962962962963],[0.49270833333333336,0.3962962962962963],[0.49270833333333336,0.3962962962962963],[0.49270833333333336,0.3962962962962963],[0.49270833333333336,0.3962962962962963],[0.49270833333333336,0.3962962962962963],[0.49270833333333336,0.3962962962962963],[0.49270833333333336,0.3962962962962963],[0.49270833333333336,0.3962962962962963],[0.49270833333333336,0.3962962962962963],[0.49270833333333336,0.3962962962962963],[0.49270833333333336,0.3962962962962963],[0.49270833333333336,0.3962962962962963],[0.49270833333333336,0.3962962962962963],[0.49270833333333336,0.3962962962962963],[0.49270833333333336,0.3962962962962963],[0.49270833333333336,0.3962962962962963],[0.49270833333333336,0.3962962962962963],[0.49270833333333336,0.3962962962962963],[0.49270833333333336,0.3962962962962963],[0.49270833333333336,0.3962962962962963],[0.49270833333333336,0.3962962962962963],[0.49270833333333336,0.3962962962962963],[0.49270833333333336,0.3962962962962963],[0.49270833333333336,0.3962962962962963],[0.49270833333333336,0.3962962962962963],[0.49270833333333336,0.3962962962962963],[0.49270833333333336,0.3962962962962963],[0.49270833333333336,0.3962962962962963],[0.49270833333333336,0.3962962962962963],[0.49270833333333336,0.3962962962962963],[0.49270833333333336,0.3962962962962963],[0.49270833333333336,0.3962962962962963],[0.49270833333333336,0.3962962962962963],[0.49270833333333336,0.3962962962962963],[0.49270833333333336,0.3962962962962963],[0.49270833333333336,0.3962962962962963],[0.49270833333333336,0.3962962962962963],[0.49270833333333336,0.3962962962962963],[0.49270833333333336,0.3962962962962963],[0.49270833333333336,0.3962962962962963],[0.49270833333333336,0.3962962962962963],[0.49270833333333336,0.3962962962962963],[0.49270833333333336,0.3962962962962963],[0.49270833333333336,0.3962962962962963],[0.49270833333333336,0.3962962962962963],[0.49270833333333336,0.3962962962962963],[0.49270833333333336,0.3962962962962963],[0.49270833333333336,0.3962962962962963],[0.49270833333333336,0.3962962962962963],[0.49270833333333336,0.3962962962962963],[0.49270833333333336,0.3962962962962963],[0.49270833333333336,0.3962962962962963],[0.49270833333333336,0.3962962962962963],[0.49270833333333336,0.3962962962962963],[0.49270833333333336,0.3962962962962963],[0.49270833333333336,0.3962962962962963],[0.49270833333333336,0.3962962962962963],[0.49270833333333336,0.3962962962962963],[0.49270833333333336,0.3962962962962963],[0.49270833333333336,0.3962962962962963],[0.49270833333333336,0.3962962962962963],[0.49270833333333336,0.3962962962962963],[0.49270833333333336,0.3962962962962963],[0.49270833333333336,0.3962962962962963],[0.49270833333333336,0.3962962962962963],[0.49270833333333336,0.3962962962962963],[0.49270833333333336,0.3962962962962963],[0.49270833333333336,0.3962962962962963],[0.49270833333333336,0.3962962962962963],[0.49270833333333336,0.3962962962962963],[0.49270833333333336,0.3962962962962963],[0.49270833333333336,0.3962962962962963],[0.49270833333333336,0.3962962962962963],[0.49270833333333336,0.3962962962962963],[0.49270833333333336,0.3962962962962963],[0.49270833333333336,0.3962962962962963],[0.49270833333333336,0.3962962962962963],[0.49270833333333336,0.3962962962962963],[0.49270833333333336,0.3962962962962963],[0.49270833333333336,0.3962962962962963],[0.49270833333333336,0.3962962962962963],[0.49270833333333336,0.3962962962962963],[0.49270833333333336,0.3962962962962963],[0.49270833333333336,0.3962962962962963],[0.49270833333333336,0.3962962962962963],[0.49270833333333336,0.3962962962962963],[0.49270833333333336,0.3962962962962963],[0.49270833333333336,0.3962962962962963],[0.49270833333333336,0.3962962962962963],[0.49270833333333336,0.3962962962962963],[0.49270833333333336,0.3962962962962963],[0.49270833333333336,0.3962962962962963],[0.49270833333333336,0.3962962962962963],[0.49270833333333336,0.3962962962962963],[0.49270833333333336,0.3962962962962963],[0.49270833333333336,0.3962962962962963],[0.49270833333333336,0.3962962962962963],[0.49270833333333336,0.3962962962962963],[0.49270833333333336,0.3962962962962963],[0.49270833333333336,0.3962962962962963],[0.49270833333333336,0.3962962962962963],[0.49270833333333336,0.3962962962962963],[0.49270833333333336,0.3962962962962963],[0.49270833333333336,0.3962962962962963],[0.49270833333333336,0.3962962962962963],[0.49270833333333336,0.3962962962962963],[0.49270833333333336,0.3962962962962963],[0.49270833333333336,0.3962962962962963],[0.49270833333333336,0.3962962962962963],[0.49166666666666664,0.3962962962962963],[0.49166666666666664,0.3962962962962963],[0.49166666666666664,0.3962962962962963],[0.49166666666666664,0.3962962962962963],[0.49166666666666664,0.3962962962962963],[0.49166666666666664,0.3962962962962963],[0.49166666666666664,0.3962962962962963],[0.49166666666666664,0.3962962962962963],[0.49166666666666664,0.3962962962962963],[0.490625,0.3962962962962963],[0.490625,0.39444444444444443],[0.490625,0.39444444444444443],[0.490625,0.39444444444444443],[0.490625,0.39444444444444443],[0.490625,0.39444444444444443],[0.4895833333333333,0.3925925925925926],[0.4895833333333333,0.3925925925925926],[0.4895833333333333,0.3925925925925926],[0.4895833333333333,0.3925925925925926],[0.4895833333333333,0.3925925925925926],[0.48854166666666665,0.3907407407407407],[0.48854166666666665,0.3907407407407407],[0.48854166666666665,0.3907407407407407],[0.48854166666666665,0.3907407407407407],[0.48854166666666665,0.3907407407407407],[0.48854166666666665,0.3907407407407407]]","[[0.019583333333333286,-0.10203703703703708],[0.02020833333333331,-0.06944444444444445],[0.013854166666666619,-0.08407407407407404],[0.01229166666666662,0.0012962962962963806],[0.0125,0.0007407407407406986],[0.016666666666666666,-0.08351851851851856],[0.011666666666666714,-0.11370370370370367],[0.0010416666666666667,-0.08111111111111113],[0.00010416666666669035,-0.06629629629629631],[0.002812500000000047,-0.07629629629629628],[0.005520833333333286,-0.08629629629629634],[0.010625000000000048,-0.17407407407407408],[0.019583333333333286,-0.14166666666666666],[0.015416666666666618,-0.1766666666666666],[0.00625,-0.18907407407407412],[-0.0017708333333333807,-0.1985185185185185],[0.010104166666666714,-0.2542592592592593],[0.007604166666666619,-0.31296296296296294],[0.01072916666666662,-0.28296296296296297],[0.014687500000000023,-0.2631481481481482],[0.024687500000000046,-0.21388888888888888],[0.03781249999999995,-0.12962962962962962],[0.05395833333333329,-0.16203703703703703],[0.06812500000000009,-0.18277777777777776],[0.06812500000000009,-0.18277777777777776],[0.06645833333333329,-0.13203703703703706],[0.06854166666666663,-0.07037037037037037],[0.06875,-0.0025925925925925505],[0.09583333333333334,0.055000000000000084],[0.10760416666666663,0.041666666666666664],[0.13052083333333328,0.052037037037037076],[0.14739583333333334,0.03296296296296288],[0.18583333333333343,-0.019999999999999917],[0.2224999999999999,-0.009444444444444486],[0.2547916666666666,0.03333333333333333],[0.3082291666666668,0.0492592592592593],[0.3628124999999999,0.06425925925925935],[0.4085416666666667,0.06537037037037029],[0.4339583333333332,0.07851851851851847],[0.4339583333333332,0.07851851851851847],[0.45947916666666655,0.1014814814814814],[0.45947916666666655,0.1014814814814814],[0.45989583333333334,0.1014814814814814],[0.45989583333333334,0.1014814814814814],[0.46989583333333323,0.08851851851851844],[0.46989583333333323,0.08851851851851844],[0.4573958333333332,0.09055555555555551],[0.4573958333333332,0.09055555555555551],[0.4522916666666667,0.06962962962962967],[0.4491666666666667,0.005740740740740783],[0.44989583333333344,-0.024074074074074074],[0.4457291666666668,-0.06388888888888888],[0.4430208333333333,-0.12907407407407406],[0.4501041666666666,-0.17962962962962964],[0.45114583333333325,-0.26962962962962966],[0.45729166666666665,-0.33425925925925926],[0.47291666666666665,-0.3814814814814815],[0.48947916666666674,-0.40981481481481485],[0.46687500000000004,-0.3394444444444445],[0.43875000000000003,-0.27999999999999997],[0.37302083333333325,-0.24314814814814817],[0.2972916666666668,-0.1948148148148148],[0.20052083333333334,-0.1272222222222222],[0.12260416666666671,-0.0883333333333333],[0.051041666666666666,-0.006481481481481481],[-0.0125,0.05944444444444449],[-0.10020833333333339,0.11796296296296305],[-0.18791666666666665,0.1764814814814814],[-0.23812500000000003,0.1596296296296297],[-0.30583333333333335,0.2024074074074073],[-0.33135416666666667,0.20277777777777778],[-0.346875,0.19166666666666668],[-0.34343750000000006,0.1881481481481482],[-0.3608333333333333,0.19981481481481478],[-0.3516666666666667,0.20407407407407416],[-0.3602083333333333,0.24203703703703713],[-0.29145833333333326,0.2681481481481481],[-0.22270833333333329,0.2942592592592592],[-0.1632291666666667,0.2996296296296295],[-0.07833333333333338,0.26703703703703713],[0.00458333333333331,0.2631481481481482],[0.0875,0.25925925925925924],[0.16145833333333334,0.2655555555555555],[0.23541666666666666,0.2718518518518518],[0.27760416666666665,0.2801851851851851],[0.3467708333333334,0.2611111111111111],[0.33656249999999993,0.2537037037037037],[0.3263541666666666,0.2462962962962963],[0.3304166666666667,0.24018518518518528],[0.3472916666666668,0.17166666666666675],[0.3467708333333334,0.15500000000000008],[0.3462500000000001,0.13833333333333342],[0.3507291666666667,0.0955555555555556],[0.35520833333333335,0.05277777777777778],[0.39010416666666664,0.014074074074074116],[0.4023958333333333,-0.006851851851851936],[0.41822916666666665,-0.055185185185185205],[0.4340625000000001,-0.10351851851851848],[0.4666666666666667,-0.15259259259259256],[0.4864583333333333,-0.13925925925925925],[0.5009375000000001,-0.17833333333333334],[0.5140625,-0.20759259259259263],[0.5257291666666667,-0.2074074074074074],[0.5462500000000001,-0.24981481481481477],[0.5411458333333333,-0.3042592592592593],[0.5493750000000001,-0.3827777777777778],[0.5601041666666667,-0.4118518518518518],[0.5724999999999999,-0.4396296296296296],[0.5724999999999999,-0.4396296296296296],[0.5339583333333332,-0.3983333333333334],[0.48072916666666665,-0.3653703703703704],[0.4418750000000001,-0.3122222222222223],[0.39947916666666666,-0.30481481481481487],[0.3631249999999999,-0.3124074074074074],[0.3173958333333334,-0.20574074074074078],[0.2716666666666666,-0.09907407407407408],[0.2273958333333333,-0.02092592592592584],[0.18427083333333344,0.03833333333333342],[0.1490624999999999,0.07666666666666662],[0.1400000000000001,0.05592592592592601],[0.14968750000000006,0.024629629629629547],[0.16010416666666671,-0.01444444444444436],[0.17354166666666657,0.003703703703703704],[0.19322916666666667,0.01962962962962967],[0.20510416666666675,-0.06370370370370367],[0.2169791666666666,-0.147037037037037],[0.25104166666666666,-0.202962962962963],[0.25,-0.17370370370370372],[0.2296875,-0.13703703703703704],[0.21906249999999997,-0.08814814814814818],[0.20437500000000006,-0.020370370370370372],[0.12802083333333342,0.08759259259259251],[0.07583333333333328,0.14629629629629629],[0.06864583333333343,0.14240740740740737],[0.03458333333333338,0.19981481481481478],[0.03458333333333338,0.19981481481481478],[0.0005208333333333333,0.2572222222222222],[-0.051770833333333384,0.3212962962962963],[-0.10531250000000002,0.31851851851851853],[-0.14916666666666673,0.327962962962963],[-0.16135416666666663,0.293888888888889],[-0.17416666666666672,0.2755555555555555],[-0.1310416666666666,0.22018518518518515]]","[[0.019583333333333286,-0.10203703703703708,0],[0.02020833333333331,-0.06944444444444445,0.01639999999851227],[0.013854166666666619,-0.08407407407407404,0.03300000000000125],[0.01229166666666662,0.0012962962962963806,0.04970000000298569],[0.0125,0.0007407407407406986,0.06639999999850943],[0.016666666666666666,-0.08351851851851856,0.08310000000149387],[0.011666666666666714,-0.11370370370370367,0.10089999999851784],[0.0010416666666666667,-0.08111111111111113,0.1163999999985208],[0.00010416666666669035,-0.06629629629629631,0.13310000000149103],[0.002812500000000047,-0.07629629629629628,0.14970000000298],[0.005520833333333286,-0.08629629629629634,0.16639999999851796],[0.010625000000000048,-0.17407407407407408,0.18320000000298364],[0.019583333333333286,-0.14166666666666666,0.20300000000000296],[0.015416666666666618,-0.1766666666666666,0.21650000000001057],[0.00625,-0.18907407407407412,0.23310000000149955],[-0.0017708333333333807,-0.1985185185185185,0.24970000000298853],[0.010104166666666714,-0.2542592592592593,0.26639999999851227],[0.007604166666666619,-0.31296296296296294,0.28300000000000125],[0.01072916666666662,-0.28296296296296297,0.29980000000448115],[0.014687500000000023,-0.2631481481481482,0.31639999999850943],[0.024687500000000046,-0.21388888888888888,0.33310000000149387],[0.03781249999999995,-0.12962962962962962,0.34970000000298285],[0.05395833333333329,-0.16203703703703703,0.3663999999985208],[0.06812500000000009,-0.18277777777777776,0.383100000001491],[0.06812500000000009,-0.18277777777777776,0.39980000000447546],[0.06645833333333329,-0.13203703703703706,0.416300000004469],[0.06854166666666663,-0.07037037037037037,0.43300000000000693],[0.06875,-0.0025925925925925505,0.4497000000029914],[0.09583333333333334,0.055000000000000084,0.46699999999999875],[0.10760416666666663,0.041666666666666664,0.48310000000149955],[0.13052083333333328,0.052037037037037076,0.5031000000014956],[0.14739583333333334,0.03296296296296288,0.5175000000000125],[0.18583333333333343,-0.019999999999999917,0.5331000000014967],[0.2224999999999999,-0.009444444444444486,0.5497000000029857],[0.2547916666666666,0.03333333333333333,0.5663000000044747],[0.3082291666666668,0.0492592592592593,0.5830000000000126],[0.3628124999999999,0.06425925925925935,0.6030000000000086],[0.4085416666666667,0.06537037037037029,0.6163999999985208],[0.4339583333333332,0.07851851851851847,0.633100000001491],[0.4339583333333332,0.07851851851851847,0.6498000000044755],[0.45947916666666655,0.1014814814814814,0.666399999998518],[0.45947916666666655,0.1014814814814814,0.6830000000000069],[0.45989583333333334,0.1014814814814814,0.6998000000044726],[0.45989583333333334,0.1014814814814814,0.7163999999985151],[0.46989583333333323,0.08851851851851844,0.7331000000014996],[0.46989583333333323,0.08851851851851844,0.7497000000029885],[0.4573958333333332,0.09055555555555551,0.7663999999985123],[0.4573958333333332,0.09055555555555551,0.7832000000029922],[0.4522916666666667,0.06962962962962967,0.7998999999985159],[0.4491666666666667,0.005740740740740783,0.8210000000000122],[0.44989583333333344,-0.024074074074074074,0.8365000000000009],[0.4457291666666668,-0.06388888888888888,0.8497000000029828],[0.4430208333333333,-0.12907407407407406,0.866500000000002],[0.4501041666666666,-0.17962962962962964,0.8830000000000098],[0.45114583333333325,-0.26962962962962966,0.900899999998515],[0.45729166666666665,-0.33425925925925926,0.916399999998518],[0.47291666666666665,-0.3814814814814815,0.9330000000000069],[0.48947916666666674,-0.40981481481481485,0.9497000000029914],[0.46687500000000004,-0.3394444444444445,0.9663999999985151],[0.43875000000000003,-0.27999999999999997,0.9830000000000041],[0.37302083333333325,-0.24314814814814817,1.0031000000014956],[0.2972916666666668,-0.1948148148148148,1.0167000000029844],[0.20052083333333334,-0.1272222222222222,1.0330000000000013],[0.12260416666666671,-0.0883333333333333,1.0497000000029857],[0.051041666666666666,-0.006481481481481481,1.0663999999985094],[-0.0125,0.05944444444444449,1.0831000000014939],[-0.10020833333333339,0.11796296296296305,1.0997000000029828],[-0.18791666666666665,0.1764814814814814,1.1163999999985208],[-0.23812500000000003,0.1596296296296297,1.1330000000000098],[-0.30583333333333335,0.2024074074074073,1.14970000000298],[-0.33135416666666667,0.20277777777777778,1.166399999998518],[-0.346875,0.19166666666666668,1.184100000001493],[-0.34343750000000006,0.1881481481481482,1.2008999999985122],[-0.3608333333333333,0.19981481481481478,1.2163999999985151],[-0.3516666666666667,0.20407407407407416,1.233000000000004],[-0.3602083333333333,0.24203703703703713,1.2497000000029885],[-0.29145833333333326,0.2681481481481481,1.2663999999985123],[-0.22270833333333329,0.2942592592592592,1.2830000000000013],[-0.1632291666666667,0.2996296296296295,1.2998000000044811],[-0.07833333333333338,0.26703703703703713,1.3163000000044747],[0.00458333333333331,0.2631481481481482,1.3330000000000126],[0.0875,0.25925925925925924,1.3498000000044783],[0.16145833333333334,0.2655555555555555,1.366500000000002],[0.23541666666666666,0.2718518518518518,1.3830000000000098],[0.27760416666666665,0.2801851851851851,1.4031000000015013],[0.3467708333333334,0.2611111111111111,1.4167000000029901],[0.33656249999999993,0.2537037037037037,1.4331000000015024],[0.3263541666666666,0.2462962962962963,1.4497000000029914],[0.3304166666666667,0.24018518518518528,1.467700000002992],[0.3472916666666668,0.17166666666666675,1.483000000000004],[0.3467708333333334,0.15500000000000008,1.4997000000029885],[0.3462500000000001,0.13833333333333342,1.5163000000044775],[0.3507291666666667,0.0955555555555556,1.5331000000014967],[0.35520833333333335,0.05277777777777778,1.5497000000029857],[0.39010416666666664,0.014074074074074116,1.5663999999985094],[0.4023958333333333,-0.006851851851851936,1.5831000000014939],[0.41822916666666665,-0.055185185185185205,1.5997000000029828],[0.4340625000000001,-0.10351851851851848,1.6163000000044718],[0.4666666666666667,-0.15259259259259256,1.6330000000000098],[0.4864583333333333,-0.13925925925925925,1.64970000000298],[0.5009375000000001,-0.17833333333333334,1.6698999999985205],[0.5140625,-0.20759259259259263,1.684800000004472],[0.5257291666666667,-0.2074074074074074,1.7032000000029797],[0.5462500000000001,-0.24981481481481477,1.7198000000044829],[0.5411458333333333,-0.3042592592592593,1.7335000000000065],[0.5493750000000001,-0.3827777777777778,1.749600000001493],[0.5601041666666667,-0.4118518518518518,1.7663999999985123],[0.5724999999999999,-0.4396296296296296,1.7832000000029922],[0.5724999999999999,-0.4396296296296296,1.7998000000044811],[0.5339583333333332,-0.3983333333333334,1.8163999999985094],[0.48072916666666665,-0.3653703703703704,1.8330000000000126],[0.4418750000000001,-0.3122222222222223,1.8497000000029828],[0.39947916666666666,-0.30481481481481487,1.8663999999985208],[0.3631249999999999,-0.3124074074074074,1.8830000000000098],[0.3173958333333334,-0.20574074074074078,1.9014999999999986],[0.2716666666666666,-0.09907407407407408,1.916300000004469],[0.2273958333333333,-0.02092592592592584,1.933000000000007],[0.18427083333333344,0.03833333333333342,1.9521000000014936],[0.1490624999999999,0.07666666666666662,1.9663000000044804],[0.1400000000000001,0.05592592592592601,1.983000000000004],[0.14968750000000006,0.024629629629629547,2.0008999999985093],[0.16010416666666671,-0.01444444444444436,2.0197000000029846],[0.17354166666666657,0.003703703703703704,2.0331000000014967],[0.19322916666666667,0.01962962962962967,2.0497000000029857],[0.20510416666666675,-0.06370370370370367,2.0663000000044747],[0.2169791666666666,-0.147037037037037,2.0830000000000126],[0.25104166666666666,-0.202962962962963,2.103500000000011],[0.25,-0.17370370370370372,2.1202000000029813],[0.2296875,-0.13703703703703704,2.134100000001496],[0.21906249999999997,-0.08814814814814818,2.1496000000014988],[0.20437500000000006,-0.020370370370370372,2.166399999998518],[0.12802083333333342,0.08759259259259251,2.183000000000007],[0.07583333333333328,0.14629629629629629,2.204100000001489],[0.06864583333333343,0.14240740740740737,2.2190000000000083],[0.03458333333333338,0.19981481481481478,2.236000000000004],[0.03458333333333338,0.19981481481481478,2.2550000000000097],[0.0005208333333333333,0.2572222222222222,2.271000000000001],[-0.051770833333333384,0.3212962962962963,2.287000000000006],[-0.10531250000000002,0.31851851851851853,2.302700000002986],[-0.14916666666666673,0.327962962962963,2.3163000000044747],[-0.16135416666666663,0.293888888888889,2.3330000000000126],[-0.17416666666666672,0.2755555555555555,2.349700000002983],[-0.1310416666666666,0.22018518518518515,2.366300000004472]]","[0,0.01639999999851227,0.03300000000000125,0.04970000000298569,0.06639999999850943,0.08310000000149387,0.10089999999851784,0.1163999999985208,0.13310000000149103,0.14970000000298,0.16639999999851796,0.18320000000298364,0.20300000000000296,0.21650000000001057,0.23310000000149955,0.24970000000298853,0.26639999999851227,0.28300000000000125,0.29980000000448115,0.31639999999850943,0.33310000000149387,0.34970000000298285,0.3663999999985208,0.383100000001491,0.39980000000447546,0.416300000004469,0.43300000000000693,0.4497000000029914,0.46699999999999875,0.48310000000149955,0.5031000000014956,0.5175000000000125,0.5331000000014967,0.5497000000029857,0.5663000000044747,0.5830000000000126,0.6030000000000086,0.6163999999985208,0.633100000001491,0.6498000000044755,0.666399999998518,0.6830000000000069,0.6998000000044726,0.7163999999985151,0.7331000000014996,0.7497000000029885,0.7663999999985123,0.7832000000029922,0.7998999999985159,0.8210000000000122,0.8365000000000009,0.8497000000029828,0.866500000000002,0.8830000000000098,0.900899999998515,0.916399999998518,0.9330000000000069,0.9497000000029914,0.9663999999985151,0.9830000000000041,1.0031000000014956,1.0167000000029844,1.0330000000000013,1.0497000000029857,1.0663999999985094,1.0831000000014939,1.0997000000029828,1.1163999999985208,1.1330000000000098,1.14970000000298,1.166399999998518,1.184100000001493,1.2008999999985122,1.2163999999985151,1.233000000000004,1.2497000000029885,1.2663999999985123,1.2830000000000013,1.2998000000044811,1.3163000000044747,1.3330000000000126,1.3498000000044783,1.366500000000002,1.3830000000000098,1.4031000000015013,1.4167000000029901,1.4331000000015024,1.4497000000029914,1.467700000002992,1.483000000000004,1.4997000000029885,1.5163000000044775,1.5331000000014967,1.5497000000029857,1.5663999999985094,1.5831000000014939,1.5997000000029828,1.6163000000044718,1.6330000000000098,1.64970000000298,1.6698999999985205,1.684800000004472,1.7032000000029797,1.7198000000044829,1.7335000000000065,1.749600000001493,1.7663999999985123,1.7832000000029922,1.7998000000044811,1.8163999999985094,1.8330000000000126,1.8497000000029828,1.8663999999985208,1.8830000000000098,1.9014999999999986,1.916300000004469,1.933000000000007,1.9521000000014936,1.9663000000044804,1.983000000000004,2.0008999999985093,2.0197000000029846,2.0331000000014967,2.0497000000029857,2.0663000000044747,2.0830000000000126,2.103500000000011,2.1202000000029813,2.134100000001496,2.1496000000014988,2.166399999998518,2.183000000000007,2.204100000001489,2.2190000000000083,2.236000000000004,2.2550000000000097,2.271000000000001,2.287000000000006,2.302700000002986,2.3163000000044747,2.3330000000000126,2.349700000002983,2.366300000004472]","[1733293770162,1733293770178,1733293770194,1733293770211,1733293770228,1733293770244,1733293770262,1733293770278,1733293770294,1733293770311,1733293770328,1733293770345,1733293770364,1733293770378,1733293770394,1733293770411,1733293770428,1733293770444,1733293770461,1733293770478,1733293770494,1733293770511,1733293770528,1733293770544,1733293770561,1733293770578,1733293770594,1733293770611,1733293770628,1733293770644,1733293770665,1733293770679,1733293770694,1733293770711,1733293770728,1733293770744,1733293770764,1733293770778,1733293770795,1733293770811,1733293770828,1733293770844,1733293770861,1733293770878,1733293770894,1733293770911,1733293770928,1733293770945,1733293770961,1733293770982,1733293770998,1733293771011,1733293771028,1733293771044,1733293771062,1733293771078,1733293771094,1733293771111,1733293771128,1733293771144,1733293771164,1733293771178,1733293771194,1733293771211,1733293771228,1733293771244,1733293771261,1733293771278,1733293771294,1733293771311,1733293771328,1733293771346,1733293771362,1733293771378,1733293771394,1733293771411,1733293771428,1733293771444,1733293771461,1733293771478,1733293771494,1733293771511,1733293771528,1733293771544,1733293771565,1733293771578,1733293771594,1733293771611,1733293771629,1733293771644,1733293771661,1733293771678,1733293771694,1733293771711,1733293771728,1733293771744,1733293771761,1733293771778,1733293771794,1733293771811,1733293771831,1733293771846,1733293771865,1733293771881,1733293771895,1733293771911,1733293771928,1733293771945,1733293771961,1733293771978,1733293771994,1733293772011,1733293772028,1733293772044,1733293772063,1733293772078,1733293772094,1733293772114,1733293772128,1733293772144,1733293772162,1733293772181,1733293772194,1733293772211,1733293772228,1733293772244,1733293772265,1733293772282,1733293772296,1733293772311,1733293772328,1733293772344,1733293772365,1733293772380,1733293772397,1733293772416,1733293772432,1733293772448,1733293772464,1733293772478,1733293772494,1733293772511,1733293772528]","[[978.8,484.9],[979.4,502.5],[973.3,494.6],[971.8,540.7],[972,540.4],[976,494.9],[971.2,478.6],[961,496.2],[960.1,504.2],[962.7,498.8],[965.3,493.4],[970.2,446],[978.8,463.5],[974.8,444.6],[966,437.9],[958.3,432.8],[969.7,402.7],[967.3,371],[970.3,387.2],[974.1,397.9],[983.7,424.5],[996.3,470],[1011.8,452.5],[1025.4,441.3],[1025.4,441.3],[1023.8,468.7],[1025.8,502],[1026,538.6],[1052,569.7],[1063.3,562.5],[1085.3,568.1],[1101.5,557.8],[1138.4,529.2],[1173.6,534.9],[1204.6,558],[1255.9,566.6],[1308.3,574.7],[1352.2,575.3],[1376.6,582.4],[1376.6,582.4],[1401.1,594.8],[1401.1,594.8],[1401.5,594.8],[1401.5,594.8],[1411.1,587.8],[1411.1,587.8],[1399.1,588.9],[1399.1,588.9],[1394.2,577.6],[1391.2,543.1],[1391.9,527],[1387.9,505.5],[1385.3,470.3],[1392.1,443],[1393.1,394.4],[1399,359.5],[1414,334],[1429.9,318.7],[1408.2,356.7],[1381.2,388.8],[1318.1,408.7],[1245.4,434.8],[1152.5,471.3],[1077.7,492.3],[1009,536.5],[948,572.1],[863.8,603.7],[779.6,635.3],[731.4,626.2],[666.4,649.3],[641.9,649.5],[627,643.5],[630.3,641.6],[613.6,647.9],[622.4,650.2],[614.2,670.7],[680.2,684.8],[746.2,698.9],[803.3,701.8],[884.8,684.2],[964.4,682.1],[1044,680],[1115,683.4],[1186,686.8],[1226.5,691.3],[1292.9,681],[1283.1,677],[1273.3,673],[1277.2,669.7],[1293.4,632.7],[1292.9,623.7],[1292.4,614.7],[1296.7,591.6],[1301,568.5],[1334.5,547.6],[1346.3,536.3],[1361.5,510.2],[1376.7,484.1],[1408,457.6],[1427,464.8],[1440.9,443.7],[1453.5,427.9],[1464.7,428],[1484.4,405.1],[1479.5,375.7],[1487.4,333.3],[1497.7,317.6],[1509.6,302.6],[1509.6,302.6],[1472.6,324.9],[1421.5,342.7],[1384.2,371.4],[1343.5,375.4],[1308.6,371.3],[1264.7,428.9],[1220.8,486.5],[1178.3,528.7],[1136.9,560.7],[1103.1,581.4],[1094.4,570.2],[1103.7,553.3],[1113.7,532.2],[1126.6,542],[1145.5,550.6],[1156.9,505.6],[1168.3,460.6],[1201,430.4],[1200,446.2],[1180.5,466],[1170.3,492.4],[1156.2,529],[1082.9,587.3],[1032.8,619],[1025.9,616.9],[993.2,647.9],[993.2,647.9],[960.5,678.9],[910.3,713.5],[858.9,712],[816.8,717.1],[805.1,698.7],[792.8,688.8],[834.2,658.9]]","[0,0.37864299999999995]","[0.37864299999999995,0.37864299999999995]","[-0.37864299999999995,-0.37864299999999995]","[-0.37864299999999995,0]","[0,-0.37864299999999995]","[0.37864299999999995,-0.37864299999999995]","[0,0]","[0.37864299999999995,0]",0,2,2,2,1,3,Laptop,5,5,15,9
