inst1_resp.keys,inst1_resp.rt,calibrationMouse.x,calibrationMouse.y,calibrationMouse.leftButton,calibrationMouse.midButton,calibrationMouse.rightButton,calibrationClick.x,calibrationClick.y,calibrationClick.leftButton,calibrationClick.midButton,calibrationClick.rightButton,trialsc.thisRepN,trialsc.thisTrialN,trialsc.thisN,trialsc.thisIndex,trialsc.ran,calibration_x,calibration_y,participant,session,date,expName,psychopyVersion,OS,frameRate,calibrationClick.clicked_name,ScreenRes_pixels,Camera_pixels,mouse_2.x,mouse_2.y,mouse_2.leftButton,mouse_2.midButton,mouse_2.rightButton,mouse_2.time,mouse_2.clicked_name,mouse.x,mouse.y,mouse.leftButton,mouse.midButton,mouse.rightButton,mouse.time,mouse.clicked_name,Choice,Trial,TrialDuration,MOUSE_GAZE,ET_GAZE,ET_GAZE_x_T,time,unixTime,ET_GAZE_NF,Loc_Option1_label,Loc_Option2_label,Loc_Cost_label,Loc_Qual_label,Loc_Option1_cost,Loc_Option2_cost,Loc_Option1_quality,Loc_Option2_quality,trials.thisRepN,trials.thisTrialN,trials.thisN,trials.thisIndex,trials.ran,Block,Device,cost1,qual1,cost2,qual2
space,4.7676,0.044791667,-0.177777778,1,0,0,-0.673958333,-0.65,1,0,0,0,0,0,0,1,-0.67,-0.67,40,001,2024-12-04_11h44.29.820,Attention_exp_legacy,2023.1.0,Win32,59.88023952,,,,,,,,,,,,,,,,,,,,,,,,,,,,,,,,,,,,,,,,,,,,,
,,,,,,,0.665625,-0.668518519,1,0,0,0,1,1,20,1,0.67,-0.67,40,001,2024-12-04_11h44.29.820,Attention_exp_legacy,2023.1.0,Win32,59.88023952,calibration_square,,,,,,,,,,,,,,,,,,,,,,,,,,,,,,,,,,,,,,,,,,,,
,,,,,,,-0.007291667,-0.305555556,1,0,0,0,2,2,10,1,0,-0.33,40,001,2024-12-04_11h44.29.820,Attention_exp_legacy,2023.1.0,Win32,59.88023952,,,,,,,,,,,,,,,,,,,,,,,,,,,,,,,,,,,,,,,,,,,,,
,,,,,,,-0.005208333,-0.672222222,1,0,0,0,3,3,9,1,0,-0.67,40,001,2024-12-04_11h44.29.820,Attention_exp_legacy,2023.1.0,Win32,59.88023952,calibration_square,,,,,,,,,,,,,,,,,,,,,,,,,,,,,,,,,,,,,,,,,,,,
,,,,,,,-0.325,0.675925926,1,0,0,0,4,4,8,1,-0.33,0.67,40,001,2024-12-04_11h44.29.820,Attention_exp_legacy,2023.1.0,Win32,59.88023952,calibration_square,,,,,,,,,,,,,,,,,,,,,,,,,,,,,,,,,,,,,,,,,,,,
,,,,,,,-0.658333333,-0.318518519,1,0,0,0,5,5,1,1,-0.67,-0.33,40,001,2024-12-04_11h44.29.820,Attention_exp_legacy,2023.1.0,Win32,59.88023952,,,,,,,,,,,,,,,,,,,,,,,,,,,,,,,,,,,,,,,,,,,,,
,,,,,,,-0.669791667,0.009259259,1,0,0,0,6,6,2,1,-0.67,0,40,001,2024-12-04_11h44.29.820,Attention_exp_legacy,2023.1.0,Win32,59.88023952,calibration_square,,,,,,,,,,,,,,,,,,,,,,,,,,,,,,,,,,,,,,,,,,,,
,,,,,,,-0.330208333,-0.325925926,1,0,0,0,7,7,5,1,-0.33,-0.33,40,001,2024-12-04_11h44.29.820,Attention_exp_legacy,2023.1.0,Win32,59.88023952,calibration_square,,,,,,,,,,,,,,,,,,,,,,,,,,,,,,,,,,,,,,,,,,,,
,,,,,,,-0.002083333,-0.001851852,1,0,0,0,8,8,11,1,0,0,40,001,2024-12-04_11h44.29.820,Attention_exp_legacy,2023.1.0,Win32,59.88023952,calibration_square,,,,,,,,,,,,,,,,,,,,,,,,,,,,,,,,,,,,,,,,,,,,
,,,,,,,0.675,0.67962963,1,0,0,0,9,9,19,1,0.67,0.67,40,001,2024-12-04_11h44.29.820,Attention_exp_legacy,2023.1.0,Win32,59.88023952,calibration_square,,,,,,,,,,,,,,,,,,,,,,,,,,,,,,,,,,,,,,,,,,,,
,,,,,,,0.329166667,-0.681481481,1,0,0,0,10,10,14,1,0.33,-0.67,40,001,2024-12-04_11h44.29.820,Attention_exp_legacy,2023.1.0,Win32,59.88023952,,,,,,,,,,,,,,,,,,,,,,,,,,,,,,,,,,,,,,,,,,,,,
,,,,,,,0.3375,0.003703704,1,0,0,0,11,11,16,1,0.33,0,40,001,2024-12-04_11h44.29.820,Attention_exp_legacy,2023.1.0,Win32,59.88023952,calibration_square,,,,,,,,,,,,,,,,,,,,,,,,,,,,,,,,,,,,,,,,,,,,
,,,,,,,-0.336458333,-0.001851852,1,0,0,0,12,12,6,1,-0.33,0,40,001,2024-12-04_11h44.29.820,Attention_exp_legacy,2023.1.0,Win32,59.88023952,calibration_square,,,,,,,,,,,,,,,,,,,,,,,,,,,,,,,,,,,,,,,,,,,,
,,,,,,,0.335416667,0.322222222,1,0,0,0,13,13,17,1,0.33,0.33,40,001,2024-12-04_11h44.29.820,Attention_exp_legacy,2023.1.0,Win32,59.88023952,calibration_square,,,,,,,,,,,,,,,,,,,,,,,,,,,,,,,,,,,,,,,,,,,,
,,,,,,,-0.342708333,-0.662962963,1,0,0,0,14,14,4,1,-0.33,-0.67,40,001,2024-12-04_11h44.29.820,Attention_exp_legacy,2023.1.0,Win32,59.88023952,,,,,,,,,,,,,,,,,,,,,,,,,,,,,,,,,,,,,,,,,,,,,
,,,,,,,0,0.32962963,1,0,0,0,15,15,12,1,0,0.33,40,001,2024-12-04_11h44.29.820,Attention_exp_legacy,2023.1.0,Win32,59.88023952,calibration_square,,,,,,,,,,,,,,,,,,,,,,,,,,,,,,,,,,,,,,,,,,,,
,,,,,,,-0.336458333,0.32962963,1,0,0,0,16,16,7,1,-0.33,0.33,40,001,2024-12-04_11h44.29.820,Attention_exp_legacy,2023.1.0,Win32,59.88023952,calibration_square,,,,,,,,,,,,,,,,,,,,,,,,,,,,,,,,,,,,,,,,,,,,
,,,,,,,0.004166667,0.664814815,1,0,0,0,17,17,13,1,0,0.67,40,001,2024-12-04_11h44.29.820,Attention_exp_legacy,2023.1.0,Win32,59.88023952,calibration_square,,,,,,,,,,,,,,,,,,,,,,,,,,,,,,,,,,,,,,,,,,,,
,,,,,,,0.332291667,-0.335185185,1,0,0,0,18,18,15,1,0.33,-0.33,40,001,2024-12-04_11h44.29.820,Attention_exp_legacy,2023.1.0,Win32,59.88023952,calibration_square,,,,,,,,,,,,,,,,,,,,,,,,,,,,,,,,,,,,,,,,,,,,
,,,,,,,-0.667708333,0.322222222,1,0,0,0,19,19,3,1,-0.67,0.33,40,001,2024-12-04_11h44.29.820,Attention_exp_legacy,2023.1.0,Win32,59.88023952,calibration_square,,,,,,,,,,,,,,,,,,,,,,,,,,,,,,,,,,,,,,,,,,,,
,,,,,,,0.334375,0.668518519,1,0,0,0,20,20,18,1,0.33,0.67,40,001,2024-12-04_11h44.29.820,Attention_exp_legacy,2023.1.0,Win32,59.88023952,calibration_square,,,,,,,,,,,,,,,,,,,,,,,,,,,,,,,,,,,,,,,,,,,,
,,,,,,,,,,,,,,,,,,,40,001,2024-12-04_11h44.29.820,Attention_exp_legacy,2023.1.0,Win32,59.88023952,,"[1920,1080]","[640,480]",[0.09583333333333334],[-0.5166666666666667],[1],[0],[0],[3.0631999999955255],"[""StartButton""]",[0.08541666666666667],[0.3074074074074074],[1],[0],[0],[2.278699999995524],"[""Option1_label""]",Option1_label,1,3.2928,"[[0.09583333333333334,-0.5166666666666667],[0.09583333333333334,-0.5166666666666667],[0.09583333333333334,-0.5166666666666667],[0.09583333333333334,-0.5166666666666667],[0.09583333333333334,-0.5166666666666667],[0.09583333333333334,-0.5166666666666667],[0.09583333333333334,-0.5166666666666667],[0.09583333333333334,-0.5166666666666667],[0.09583333333333334,-0.5166666666666667],[0.09583333333333334,-0.5166666666666667],[0.09583333333333334,-0.5166666666666667],[0.09583333333333334,-0.5166666666666667],[0.09583333333333334,-0.5166666666666667],[0.09583333333333334,-0.5166666666666667],[0.09583333333333334,-0.5166666666666667],[0.09583333333333334,-0.5166666666666667],[0.09583333333333334,-0.5166666666666667],[0.09583333333333334,-0.5166666666666667],[0.09583333333333334,-0.5166666666666667],[0.09583333333333334,-0.5166666666666667],[0.09583333333333334,-0.5166666666666667],[0.09583333333333334,-0.5166666666666667],[0.09583333333333334,-0.5166666666666667],[0.09583333333333334,-0.5166666666666667],[0.09583333333333334,-0.5166666666666667],[0.09583333333333334,-0.5166666666666667],[0.09583333333333334,-0.5166666666666667],[0.09583333333333334,-0.5166666666666667],[0.09583333333333334,-0.5166666666666667],[0.09583333333333334,-0.5166666666666667],[0.09583333333333334,-0.5166666666666667],[0.09583333333333334,-0.5166666666666667],[0.09583333333333334,-0.5166666666666667],[0.09583333333333334,-0.5166666666666667],[0.09583333333333334,-0.5166666666666667],[0.09583333333333334,-0.5166666666666667],[0.09583333333333334,-0.5166666666666667],[0.09583333333333334,-0.5166666666666667],[0.09583333333333334,-0.5166666666666667],[0.09583333333333334,-0.5166666666666667],[0.09583333333333334,-0.5166666666666667],[0.09583333333333334,-0.5166666666666667],[0.09583333333333334,-0.5166666666666667],[0.09583333333333334,-0.5166666666666667],[0.09583333333333334,-0.5166666666666667],[0.09583333333333334,-0.5166666666666667],[0.09583333333333334,-0.5166666666666667],[0.09583333333333334,-0.5166666666666667],[0.09583333333333334,-0.5166666666666667],[0.09583333333333334,-0.5166666666666667],[0.09583333333333334,-0.5166666666666667],[0.09583333333333334,-0.5166666666666667],[0.09583333333333334,-0.5166666666666667],[0.09583333333333334,-0.5166666666666667],[0.09583333333333334,-0.5166666666666667],[0.09583333333333334,-0.5166666666666667],[0.09583333333333334,-0.5166666666666667],[0.09583333333333334,-0.5166666666666667],[0.09583333333333334,-0.5166666666666667],[0.09583333333333334,-0.5166666666666667],[0.09583333333333334,-0.5166666666666667],[0.09583333333333334,-0.5166666666666667],[0.09583333333333334,-0.5166666666666667],[0.09583333333333334,-0.5166666666666667],[0.09583333333333334,-0.5166666666666667],[0.09583333333333334,-0.5166666666666667],[0.09583333333333334,-0.5166666666666667],[0.09583333333333334,-0.5166666666666667],[0.09583333333333334,-0.5166666666666667],[0.09583333333333334,-0.5166666666666667],[0.09583333333333334,-0.5166666666666667],[0.09583333333333334,-0.5166666666666667],[0.09583333333333334,-0.5166666666666667],[0.09583333333333334,-0.5166666666666667],[0.09583333333333334,-0.5166666666666667],[0.09583333333333334,-0.5166666666666667],[0.09583333333333334,-0.5166666666666667],[0.09583333333333334,-0.5166666666666667],[0.09583333333333334,-0.5166666666666667],[0.09583333333333334,-0.5166666666666667],[0.09583333333333334,-0.5166666666666667],[0.09583333333333334,-0.5166666666666667],[0.09583333333333334,-0.5166666666666667],[0.09583333333333334,-0.5166666666666667],[0.09583333333333334,-0.5166666666666667],[0.09583333333333334,-0.5166666666666667],[0.09583333333333334,-0.5166666666666667],[0.09583333333333334,-0.5166666666666667],[0.09583333333333334,-0.5166666666666667],[0.09583333333333334,-0.5166666666666667],[0.09583333333333334,-0.5166666666666667],[0.09583333333333334,-0.5166666666666667],[0.09583333333333334,-0.5166666666666667],[0.09583333333333334,-0.5166666666666667],[0.09583333333333334,-0.5166666666666667],[0.09479166666666666,-0.49074074074074076],[0.09479166666666666,-0.4759259259259259],[0.09479166666666666,-0.4166666666666667],[0.09479166666666666,-0.39444444444444443],[0.09479166666666666,-0.34074074074074073],[0.09479166666666666,-0.32592592592592595],[0.09479166666666666,-0.2759259259259259],[0.09479166666666666,-0.25925925925925924],[0.09479166666666666,-0.19074074074074074],[0.09479166666666666,-0.17037037037037037],[0.09479166666666666,-0.17037037037037037],[0.09479166666666666,-0.11666666666666667],[0.09479166666666666,-0.05925925925925926],[0.09479166666666666,-0.04814814814814815],[0.09375,-0.005555555555555556],[0.09375,0.005555555555555556],[0.09375,0.046296296296296294],[0.09375,0.05740740740740741],[0.09270833333333334,0.09074074074074075],[0.09270833333333334,0.10185185185185185],[0.09270833333333334,0.14444444444444443],[0.090625,0.1574074074074074],[0.08958333333333333,0.19444444444444445],[0.08854166666666667,0.2074074074074074],[0.0875,0.24074074074074073],[0.0875,0.24814814814814815],[0.08541666666666667,0.27037037037037037],[0.08541666666666667,0.2722222222222222],[0.08541666666666667,0.2833333333333333],[0.08541666666666667,0.2851851851851852],[0.08541666666666667,0.29074074074074074],[0.08541666666666667,0.29074074074074074],[0.08541666666666667,0.29444444444444445],[0.08541666666666667,0.2962962962962963],[0.08541666666666667,0.30185185185185187],[0.08541666666666667,0.3055555555555556],[0.08541666666666667,0.3074074074074074],[0.08541666666666667,0.3074074074074074],[0.08541666666666667,0.3074074074074074],[0.08541666666666667,0.3074074074074074],[0.08541666666666667,0.3074074074074074],[0.08541666666666667,0.3074074074074074],[0.08541666666666667,0.3074074074074074],[0.08541666666666667,0.3074074074074074],[0.08541666666666667,0.3074074074074074],[0.08541666666666667,0.3074074074074074],[0.08541666666666667,0.3074074074074074],[0.08541666666666667,0.3074074074074074],[0.08541666666666667,0.3074074074074074],[0.08541666666666667,0.3074074074074074],[0.08541666666666667,0.3074074074074074],[0.08541666666666667,0.3074074074074074],[0.08541666666666667,0.3074074074074074],[0.08541666666666667,0.3074074074074074],[0.08541666666666667,0.3074074074074074],[0.08541666666666667,0.3074074074074074],[0.08541666666666667,0.3074074074074074],[0.08541666666666667,0.3074074074074074],[0.08541666666666667,0.3074074074074074],[0.08541666666666667,0.3074074074074074],[0.08541666666666667,0.3074074074074074],[0.08541666666666667,0.3074074074074074],[0.08541666666666667,0.3074074074074074],[0.08541666666666667,0.3074074074074074],[0.08541666666666667,0.3074074074074074],[0.08541666666666667,0.3074074074074074],[0.08541666666666667,0.3074074074074074],[0.08541666666666667,0.3074074074074074],[0.08541666666666667,0.3074074074074074],[0.08541666666666667,0.3074074074074074],[0.08541666666666667,0.3074074074074074],[0.08541666666666667,0.3074074074074074],[0.08541666666666667,0.3074074074074074],[0.08541666666666667,0.3074074074074074],[0.08541666666666667,0.3074074074074074],[0.08541666666666667,0.3074074074074074],[0.08541666666666667,0.3074074074074074],[0.08541666666666667,0.3074074074074074],[0.08541666666666667,0.3074074074074074],[0.08541666666666667,0.3074074074074074],[0.08541666666666667,0.3074074074074074],[0.08541666666666667,0.3074074074074074],[0.08541666666666667,0.3074074074074074],[0.08541666666666667,0.3074074074074074],[0.08541666666666667,0.3074074074074074],[0.08541666666666667,0.3074074074074074],[0.08541666666666667,0.3074074074074074],[0.08541666666666667,0.3074074074074074],[0.08541666666666667,0.3074074074074074],[0.08541666666666667,0.3074074074074074],[0.08541666666666667,0.3074074074074074],[0.08541666666666667,0.3074074074074074],[0.08541666666666667,0.3074074074074074],[0.08541666666666667,0.3074074074074074],[0.08541666666666667,0.3074074074074074],[0.08541666666666667,0.3074074074074074],[0.08541666666666667,0.3074074074074074],[0.08541666666666667,0.3074074074074074],[0.08541666666666667,0.3074074074074074],[0.08541666666666667,0.3074074074074074],[0.08541666666666667,0.3074074074074074],[0.08541666666666667,0.3074074074074074]]","[[0.19322916666666667,0.009444444444444486],[0.19322916666666667,0.009444444444444486],[0.16197916666666667,-0.0020370370370370794],[0.16197916666666667,-0.0020370370370370794],[0.12385416666666677,-0.05888888888888891],[0.12385416666666677,-0.05888888888888891],[0.08572916666666662,-0.11574074074074074],[0.08572916666666662,-0.11574074074074074],[0.07125000000000009,-0.1175925925925926],[0.07125000000000009,-0.1175925925925926],[0.07125000000000009,-0.1175925925925926],[0.05385416666666672,-0.13240740740740742],[0.05385416666666672,-0.13240740740740742],[0.07427083333333329,-0.12666666666666662],[0.07427083333333329,-0.12666666666666662],[0.05447916666666662,-0.09981481481481477],[0.05447916666666662,-0.09981481481481477],[0.03427083333333331,-0.13148148148148148],[0.03427083333333331,-0.13148148148148148],[0.016354166666666715,-0.0948148148148148],[0.016354166666666715,-0.0948148148148148],[0.009375,-0.1081481481481481],[0.009375,-0.1081481481481481],[0.003125,-0.05333333333333336],[0.003125,-0.05333333333333336],[0.00916666666666662,0.014259259259259343],[0.00916666666666662,0.014259259259259343],[0.02510416666666669,0.0514814814814814],[0.02510416666666669,0.0514814814814814],[-0.020833333333333332,0.08629629629629634],[-0.020833333333333332,0.08629629629629634],[-0.044062499999999956,0.1492592592592593],[-0.044062499999999956,0.1492592592592593],[-0.08239583333333336,0.19203703703703712],[-0.08239583333333336,0.19203703703703712],[-0.08031250000000002,0.1801851851851851],[-0.08031250000000002,0.1801851851851851],[-0.10020833333333339,0.19407407407407398],[-0.10020833333333339,0.19407407407407398],[-0.10499999999999995,0.19703703703703698],[-0.10499999999999995,0.19703703703703698],[-0.11895833333333337,0.25555555555555554],[-0.11895833333333337,0.25555555555555554],[-0.15885416666666666,0.24462962962962967],[-0.15885416666666666,0.24462962962962967],[-0.18374999999999997,0.22833333333333325],[-0.18374999999999997,0.22833333333333325],[-0.21927083333333333,0.2479629629629629],[-0.21927083333333333,0.2479629629629629],[-0.23395833333333335,0.30351851851851847],[-0.23395833333333335,0.30351851851851847],[-0.1295833333333333,0.40185185185185185],[-0.1295833333333333,0.40185185185185185],[-0.02020833333333331,0.512962962962963],[-0.02020833333333331,0.512962962962963],[0.0818749999999999,0.6137037037037036],[0.0818749999999999,0.6137037037037036],[0.1388541666666666,0.7077777777777778],[0.1388541666666666,0.7077777777777778],[0.18250000000000005,0.781111111111111],[0.18250000000000005,0.781111111111111],[0.21208333333333323,0.8246296296296295],[0.21208333333333323,0.8246296296296295],[0.21208333333333323,0.8246296296296295],[0.21208333333333323,0.8246296296296295],[0.2646874999999999,0.9120370370370371],[0.2646874999999999,0.9120370370370371],[0.32489583333333344,0.9794444444444446],[0.32489583333333344,0.9794444444444446],[0.3663541666666667,1.030185185185185],[0.3663541666666667,1.030185185185185],[0.39739583333333334,1.0183333333333335],[0.39739583333333334,1.0183333333333335],[0.2916666666666667,0.9612962962962961],[0.2916666666666667,0.9612962962962961],[0.2267708333333334,0.8801851851851851],[0.2267708333333334,0.8801851851851851],[0.15166666666666656,0.8268518518518518],[0.15166666666666656,0.8268518518518518],[0.1,0.7612962962962964],[0.1,0.7612962962962964],[0.0765625,0.7422222222222221],[0.0765625,0.7422222222222221],[0.029791666666666692,0.6757407407407408],[0.029791666666666692,0.6757407407407408],[0.017604166666666643,0.593888888888889],[0.017604166666666643,0.593888888888889],[-0.005937500000000048,0.5455555555555556],[-0.005937500000000048,0.5455555555555556],[-0.001979166666666643,0.5635185185185184],[-0.001979166666666643,0.5635185185185184],[0.034375,0.5492592592592593],[0.034375,0.5492592592592593],[0.01875,0.5285185185185185],[0.01875,0.5285185185185185],[-0.034166666666666616,0.5270370370370371],[-0.034166666666666616,0.5270370370370371],[-0.052187500000000026,0.5259259259259259],[-0.052187500000000026,0.5259259259259259],[-0.06885416666666669,0.5303703703703704],[-0.06885416666666669,0.5303703703703704],[-0.07052083333333338,0.487962962962963],[-0.07052083333333338,0.487962962962963],[-0.025520833333333333,0.4762962962962964],[-0.025520833333333333,0.4762962962962964],[-0.025520833333333333,0.4762962962962964],[-0.025520833333333333,0.4762962962962964],[-0.02374999999999995,0.47462962962962957],[-0.02374999999999995,0.47462962962962957],[-0.013125000000000024,0.44833333333333336],[-0.013125000000000024,0.44833333333333336],[-0.020729166666666642,0.33055555555555555],[-0.020729166666666642,0.33055555555555555],[-0.05437500000000005,0.3135185185185184],[-0.05437500000000005,0.3135185185185184],[-0.0390625,0.27814814814814826],[-0.0390625,0.27814814814814826],[-0.020833333333333332,0.2264814814814814],[-0.020833333333333332,0.2264814814814814],[-0.013645833333333357,0.21092592592592588],[-0.013645833333333357,0.21092592592592588],[0.029375000000000047,0.1668518518518519],[0.029375000000000047,0.1668518518518519],[0.02385416666666664,0.1388888888888889],[0.02385416666666664,0.1388888888888889],[0.013750000000000047,0.11037037037037041],[0.013750000000000047,0.11037037037037041],[0.0012500000000000473,0.04129629629629621],[0.0012500000000000473,0.04129629629629621],[-0.036458333333333336,0.027407407407407325],[-0.036458333333333336,0.027407407407407325],[-0.033854166666666664,0.005000000000000084],[-0.033854166666666664,0.005000000000000084],[-0.03250000000000005,-0.06314814814814819],[-0.03250000000000005,-0.06314814814814819],[-0.049687500000000044,-0.10055555555555558],[-0.049687500000000044,-0.10055555555555558],[-0.049687500000000044,-0.10055555555555558],[-0.049687500000000044,-0.10055555555555558],[-0.049687500000000044,-0.10055555555555558],[-0.049687500000000044,-0.10055555555555558],[-0.04208333333333331,-0.14759259259259258],[-0.04208333333333331,-0.14759259259259258],[0.007395833333333357,-0.23962962962962958],[0.007395833333333357,-0.23962962962962958],[0.015625,-0.23574074074074075],[0.015625,-0.23574074074074075],[0.024374999999999977,-0.2322222222222222],[0.024374999999999977,-0.2322222222222222],[-0.015312500000000047,-0.21703703703703703],[-0.015312500000000047,-0.21703703703703703],[0.005729166666666666,-0.19388888888888886],[0.005729166666666666,-0.19388888888888886],[0.03822916666666672,-0.1905555555555555],[0.03822916666666672,-0.1905555555555555],[0.08145833333333338,-0.125],[0.08145833333333338,-0.125],[0.07249999999999991,-0.08314814814814811],[0.07249999999999991,-0.08314814814814811],[0.13177083333333334,-0.07518518518518523],[0.13177083333333334,-0.07518518518518523],[0.12270833333333328,-0.05277777777777778],[0.12270833333333328,-0.05277777777777778],[0.09208333333333343,0.026851851851851852],[0.09208333333333343,0.026851851851851852],[0.06635416666666671,0.03722222222222227],[0.06635416666666671,0.03722222222222227],[0.07156250000000004,0.046481481481481526],[0.07156250000000004,0.046481481481481526],[0.07156250000000004,0.046481481481481526],[0.08010416666666677,0.026481481481481398],[0.08010416666666677,0.026481481481481398],[0.090625,0.05129629629629638],[0.090625,0.05129629629629638],[0.09166666666666666,0.05185185185185185],[0.09166666666666666,0.05185185185185185],[0.015104166666666667,0.028888888888888933],[0.015104166666666667,0.028888888888888933],[0.040625,0.014814814814814815],[0.040625,0.014814814814814815],[0.01875,-0.008148148148148106],[0.01875,-0.008148148148148106],[0.03572916666666662,-0.0005555555555554713],[0.03572916666666662,-0.0005555555555554713],[0.06749999999999995,-0.0007407407407406986],[0.06749999999999995,-0.0007407407407406986],[0.09302083333333329,-0.016666666666666666],[0.09302083333333329,-0.016666666666666666],[0.11229166666666662,-0.03796296296296296],[0.11229166666666662,-0.03796296296296296],[0.1772916666666667,-0.028888888888888933],[0.1772916666666667,-0.028888888888888933],[0.1772916666666667,-0.028888888888888933],[0.1772916666666667,-0.028888888888888933],[0.14791666666666667,-0.057777777777777754],[0.14791666666666667,-0.057777777777777754],[0.15770833333333342,-0.05462962962962963]]","[[0.19322916666666667,0.009444444444444486,0.00019999999553022008],[0.19322916666666667,0.009444444444444486,0.0342999999970246],[0.16197916666666667,-0.0020370370370370794,0.06169999999553255],[0.16197916666666667,-0.0020370370370370794,0.06979999999702358],[0.12385416666666677,-0.05888888888888891,0.09479999999702216],[0.12385416666666677,-0.05888888888888891,0.10339999999851557],[0.08572916666666662,-0.11574074074074074,0.13119999999553045],[0.08572916666666662,-0.11574074074074074,0.13939999999850983],[0.07125000000000009,-0.1175925925925926,0.16239999999851307],[0.07125000000000009,-0.1175925925925926,0.16900000000000404],[0.07125000000000009,-0.1175925925925926,0.1741999999955297],[0.05385416666666672,-0.13240740740740742,0.21369999999553357],[0.05385416666666672,-0.13240740740740742,0.22029999999702454],[0.07427083333333329,-0.12666666666666662,0.24479999999702073],[0.07427083333333329,-0.12666666666666662,0.2513999999985117],[0.05447916666666662,-0.09981481481481477,0.2742999999970195],[0.05447916666666662,-0.09981481481481477,0.2812999999970245],[0.03427083333333331,-0.13148148148148148,0.3094999999999999],[0.03427083333333331,-0.13148148148148148,0.31659999999403965],[0.016354166666666715,-0.0948148148148148,0.34289999999851517],[0.016354166666666715,-0.0948148148148148,0.3493999999985107],[0.009375,-0.1081481481481481,0.3745000000000047],[0.009375,-0.1081481481481481,0.38189999999850954],[0.003125,-0.05333333333333336,0.40939999999851295],[0.003125,-0.05333333333333336,0.4160000000000039],[0.00916666666666662,0.014259259259259343,0.44279999999702113],[0.00916666666666662,0.014259259259259343,0.45039999999850977],[0.02510416666666669,0.0514814814814814,0.47609999999404096],[0.02510416666666669,0.0514814814814814,0.49079999999702295],[-0.020833333333333332,0.08629629629629634,0.5093999999985144],[-0.020833333333333332,0.08629629629629634,0.5170999999940449],[-0.044062499999999956,0.1492592592592593,0.5410999999940387],[-0.044062499999999956,0.1492592592592593,0.5485000000000042],[-0.08239583333333336,0.19203703703703712,0.5745000000000005],[-0.08239583333333336,0.19203703703703712,0.5815000000000055],[-0.08031250000000002,0.1801851851851851,0.6078999999985086],[-0.08031250000000002,0.1801851851851851,0.6146999999955298],[-0.10020833333333339,0.19407407407407398,0.6426999999955285],[-0.10020833333333339,0.19407407407407398,0.6502999999970243],[-0.10499999999999995,0.19703703703703698,0.6757999999970252],[-0.10499999999999995,0.19703703703703698,0.6826999999955348],[-0.11895833333333337,0.25555555555555554,0.7091999999955334],[-0.11895833333333337,0.25555555555555554,0.7158999999985127],[-0.15885416666666666,0.24462962962962967,0.7424999999999997],[-0.15885416666666666,0.24462962962962967,0.7490999999940442],[-0.18374999999999997,0.22833333333333325,0.7757999999970195],[-0.18374999999999997,0.22833333333333325,0.7824999999999989],[-0.21927083333333333,0.2479629629629629,0.8080999999940417],[-0.21927083333333333,0.2479629629629629,0.8155000000000001],[-0.23395833333333335,0.30351851851851847,0.8425000000000011],[-0.23395833333333335,0.30351851851851847,0.8490999999940385],[-0.1295833333333333,0.40185185185185185,0.8745999999940395],[-0.1295833333333333,0.40185185185185185,0.8817999999970212],[-0.02020833333333331,0.512962962962963,0.9092999999970246],[-0.02020833333333331,0.512962962962963,0.9160000000000039],[0.0818749999999999,0.6137037037037036,0.9425000000000026],[0.0818749999999999,0.6137037037037036,0.9492999999970237],[0.1388541666666666,0.7077777777777778,0.9757999999970224],[0.1388541666666666,0.7077777777777778,0.9825000000000017],[0.18250000000000005,0.781111111111111,1.0093999999985144],[0.18250000000000005,0.781111111111111,1.0165999999940425],[0.21208333333333323,0.8246296296296295,1.0438999999985086],[0.21208333333333323,0.8246296296296295,1.051000000000002],[0.21208333333333323,0.8246296296296295,1.057099999994044],[0.21208333333333323,0.8246296296296295,1.0755000000000052],[0.2646874999999999,0.9120370370370371,1.109199999995532],[0.2646874999999999,0.9120370370370371,1.1162999999970253],[0.32489583333333344,0.9794444444444446,1.1425000000000054],[0.32489583333333344,0.9794444444444446,1.1496999999955335],[0.3663541666666667,1.030185185185185,1.1758999999985136],[0.3663541666666667,1.030185185185185,1.1833999999985139],[0.39739583333333334,1.0183333333333335,1.2091999999955334],[0.39739583333333334,1.0183333333333335,1.2158999999985127],[0.2916666666666667,0.9612962962962961,1.2425999999940416],[0.2916666666666667,0.9612962962962961,1.2490999999940442],[0.2267708333333334,0.8801851851851851,1.2745000000000033],[0.2267708333333334,0.8801851851851851,1.2812999999970245],[0.15166666666666656,0.8268518518518518,1.3091999999955348],[0.15166666666666656,0.8268518518518518,1.3158999999985141],[0.1,0.7612962962962964,1.3426999999955314],[0.1,0.7612962962962964,1.3490999999940385],[0.0765625,0.7422222222222221,1.3760999999940395],[0.0765625,0.7422222222222221,1.3827999999970189],[0.029791666666666692,0.6757407407407408,1.4090999999940408],[0.029791666666666692,0.6757407407407408,1.4158999999985156],[0.017604166666666643,0.593888888888889,1.4425999999940444],[0.017604166666666643,0.593888888888889,1.449399999998512],[-0.005937500000000048,0.5455555555555556,1.475999999999999],[-0.005937500000000048,0.5455555555555556,1.4823999999985134],[-0.001979166666666643,0.5635185185185184,1.5080000000000027],[-0.001979166666666643,0.5635185185185184,1.51739999999851],[0.034375,0.5492592592592593,1.5427999999970226],[0.034375,0.5492592592592593,1.5491999999955297],[0.01875,0.5285185185185185,1.5745000000000005],[0.01875,0.5285185185185185,1.5815999999940402],[-0.034166666666666616,0.5270370370370371,1.610699999995532],[-0.034166666666666616,0.5270370370370371,1.6173999999985114],[-0.052187500000000026,0.5259259259259259,1.6428999999985123],[-0.052187500000000026,0.5259259259259259,1.6496999999955335],[-0.06885416666666669,0.5303703703703704,1.678299999997023],[-0.06885416666666669,0.5303703703703704,1.6850000000000023],[-0.07052083333333338,0.487962962962963,1.7093999999985101],[-0.07052083333333338,0.487962962962963,1.7161999999955313],[-0.025520833333333333,0.4762962962962964,1.7450999999940393],[-0.025520833333333333,0.4762962962962964,1.752699999995535],[-0.025520833333333333,0.4762962962962964,1.7570999999940398],[-0.025520833333333333,0.4762962962962964,1.7768999999985127],[-0.02374999999999995,0.47462962962962957,1.811799999997021],[-0.02374999999999995,0.47462962962962957,1.8188999999985143],[-0.013125000000000024,0.44833333333333336,1.8428999999985152],[-0.013125000000000024,0.44833333333333336,1.8493999999985107],[-0.020729166666666642,0.33055555555555555,1.877299999997021],[-0.020729166666666642,0.33055555555555555,1.885799999997019],[-0.05437500000000005,0.3135185185185184,1.9095000000000013],[-0.05437500000000005,0.3135185185185184,1.9160999999940387],[-0.0390625,0.27814814814814826,1.9450999999940422],[-0.0390625,0.27814814814814826,1.95209999999404],[-0.020833333333333332,0.2264814814814814,1.9762999999970248],[-0.020833333333333332,0.2264814814814814,1.983000000000004],[-0.013645833333333357,0.21092592592592588,2.011899999998512],[-0.013645833333333357,0.21092592592592588,2.018500000000003],[0.029375000000000047,0.1668518518518519,2.043299999997025],[0.029375000000000047,0.1668518518518519,2.0497999999970204],[0.02385416666666664,0.1388888888888889,2.081099999994045],[0.02385416666666664,0.1388888888888889,2.088199999995531],[0.013750000000000047,0.11037037037037041,2.111799999997025],[0.013750000000000047,0.11037037037037041,2.11919999999553],[0.0012500000000000473,0.04129629629629621,2.1475999999940427],[0.0012500000000000473,0.04129629629629621,2.1551999999955314],[-0.036458333333333336,0.027407407407407325,2.1783999999985113],[-0.036458333333333336,0.027407407407407325,2.186],[-0.033854166666666664,0.005000000000000084,2.2143999999985127],[-0.033854166666666664,0.005000000000000084,2.222699999995534],[-0.03250000000000005,-0.06314814814814819,2.2447999999970207],[-0.03250000000000005,-0.06314814814814819,2.2532999999970187],[-0.049687500000000044,-0.10055555555555558,2.2780999999940406],[-0.049687500000000044,-0.10055555555555558,2.285499999999999],[-0.049687500000000044,-0.10055555555555558,2.293099999994041],[-0.049687500000000044,-0.10055555555555558,2.3112999999970185],[-0.049687500000000044,-0.10055555555555558,2.3290000000000006],[-0.049687500000000044,-0.10055555555555558,2.344699999995534],[-0.04208333333333331,-0.14759259259259258,2.3792999999970235],[-0.04208333333333331,-0.14759259259259258,2.3856999999955306],[0.007395833333333357,-0.23962962962962958,2.4115999999940385],[0.007395833333333357,-0.23962962962962958,2.419599999994041],[0.015625,-0.23574074074074075,2.444899999998512],[0.015625,-0.23574074074074075,2.4515999999940448],[0.024374999999999977,-0.2322222222222222,2.4762999999970248],[0.024374999999999977,-0.2322222222222222,2.4836999999955296],[-0.015312500000000047,-0.21703703703703703,2.509699999995533],[-0.015312500000000047,-0.21703703703703703,2.5190000000000055],[0.005729166666666666,-0.19388888888888886,2.544799999997025],[0.005729166666666666,-0.19388888888888886,2.5512999999970205],[0.03822916666666672,-0.1905555555555555,2.5761999999955307],[0.03822916666666672,-0.1905555555555555,2.583500000000001],[0.08145833333333338,-0.125,2.609599999994039],[0.08145833333333338,-0.125,2.6186999999955347],[0.07249999999999991,-0.08314814814814811,2.6447999999970193],[0.07249999999999991,-0.08314814814814811,2.6515000000000057],[0.13177083333333334,-0.07518518518518523,2.6745999999940437],[0.13177083333333334,-0.07518518518518523,2.6813999999985114],[0.12270833333333328,-0.05277777777777778,2.7077999999970217],[0.12270833333333328,-0.05277777777777778,2.7147999999970196],[0.09208333333333343,0.026851851851851852,2.74119999999553],[0.09208333333333343,0.026851851851851852,2.748199999995535],[0.06635416666666671,0.03722222222222227,2.7745000000000033],[0.06635416666666671,0.03722222222222227,2.7831999999955315],[0.07156250000000004,0.046481481481481526,2.8093999999985115],[0.07156250000000004,0.046481481481481526,2.8160999999940444],[0.07156250000000004,0.046481481481481526,2.8237999999970214],[0.08010416666666677,0.026481481481481398,2.8593999999985087],[0.08010416666666677,0.026481481481481398,2.8663999999985137],[0.090625,0.05129629629629638,2.89109999999404],[0.090625,0.05129629629629638,2.898299999997022],[0.09166666666666666,0.05185185185185185,2.9255999999940414],[0.09166666666666666,0.05185185185185185,2.9336999999955324],[0.015104166666666667,0.028888888888888933,2.9577999999970217],[0.015104166666666667,0.028888888888888933,2.9662999999970197],[0.040625,0.014814814814814815,2.9925999999940416],[0.040625,0.014814814814814815,2.9993999999985093],[0.01875,-0.008148148148148106,3.0252999999970243],[0.01875,-0.008148148148148106,3.033799999997022],[0.03572916666666662,-0.0005555555555554713,3.0593999999985115],[0.03572916666666662,-0.0005555555555554713,3.0665999999940396],[0.06749999999999995,-0.0007407407407406986,3.0926999999955314],[0.06749999999999995,-0.0007407407407406986,3.0997999999970247],[0.09302083333333329,-0.016666666666666666,3.126899999998514],[0.09302083333333329,-0.016666666666666666,3.1343999999985144],[0.11229166666666662,-0.03796296296296296,3.1592999999970246],[0.11229166666666662,-0.03796296296296296,3.166000000000004],[0.1772916666666667,-0.028888888888888933,3.193799999997019],[0.1772916666666667,-0.028888888888888933,3.2011999999955307],[0.1772916666666667,-0.028888888888888933,3.2070999999940426],[0.1772916666666667,-0.028888888888888933,3.227399999998511],[0.14791666666666667,-0.057777777777777754,3.2580999999940445],[0.14791666666666667,-0.057777777777777754,3.2653999999985146],[0.15770833333333342,-0.05462962962962963,3.2927999999970226]]","[0.00019999999553022008,0.0342999999970246,0.06169999999553255,0.06979999999702358,0.09479999999702216,0.10339999999851557,0.13119999999553045,0.13939999999850983,0.16239999999851307,0.16900000000000404,0.1741999999955297,0.21369999999553357,0.22029999999702454,0.24479999999702073,0.2513999999985117,0.2742999999970195,0.2812999999970245,0.3094999999999999,0.31659999999403965,0.34289999999851517,0.3493999999985107,0.3745000000000047,0.38189999999850954,0.40939999999851295,0.4160000000000039,0.44279999999702113,0.45039999999850977,0.47609999999404096,0.49079999999702295,0.5093999999985144,0.5170999999940449,0.5410999999940387,0.5485000000000042,0.5745000000000005,0.5815000000000055,0.6078999999985086,0.6146999999955298,0.6426999999955285,0.6502999999970243,0.6757999999970252,0.6826999999955348,0.7091999999955334,0.7158999999985127,0.7424999999999997,0.7490999999940442,0.7757999999970195,0.7824999999999989,0.8080999999940417,0.8155000000000001,0.8425000000000011,0.8490999999940385,0.8745999999940395,0.8817999999970212,0.9092999999970246,0.9160000000000039,0.9425000000000026,0.9492999999970237,0.9757999999970224,0.9825000000000017,1.0093999999985144,1.0165999999940425,1.0438999999985086,1.051000000000002,1.057099999994044,1.0755000000000052,1.109199999995532,1.1162999999970253,1.1425000000000054,1.1496999999955335,1.1758999999985136,1.1833999999985139,1.2091999999955334,1.2158999999985127,1.2425999999940416,1.2490999999940442,1.2745000000000033,1.2812999999970245,1.3091999999955348,1.3158999999985141,1.3426999999955314,1.3490999999940385,1.3760999999940395,1.3827999999970189,1.4090999999940408,1.4158999999985156,1.4425999999940444,1.449399999998512,1.475999999999999,1.4823999999985134,1.5080000000000027,1.51739999999851,1.5427999999970226,1.5491999999955297,1.5745000000000005,1.5815999999940402,1.610699999995532,1.6173999999985114,1.6428999999985123,1.6496999999955335,1.678299999997023,1.6850000000000023,1.7093999999985101,1.7161999999955313,1.7450999999940393,1.752699999995535,1.7570999999940398,1.7768999999985127,1.811799999997021,1.8188999999985143,1.8428999999985152,1.8493999999985107,1.877299999997021,1.885799999997019,1.9095000000000013,1.9160999999940387,1.9450999999940422,1.95209999999404,1.9762999999970248,1.983000000000004,2.011899999998512,2.018500000000003,2.043299999997025,2.0497999999970204,2.081099999994045,2.088199999995531,2.111799999997025,2.11919999999553,2.1475999999940427,2.1551999999955314,2.1783999999985113,2.186,2.2143999999985127,2.222699999995534,2.2447999999970207,2.2532999999970187,2.2780999999940406,2.285499999999999,2.293099999994041,2.3112999999970185,2.3290000000000006,2.344699999995534,2.3792999999970235,2.3856999999955306,2.4115999999940385,2.419599999994041,2.444899999998512,2.4515999999940448,2.4762999999970248,2.4836999999955296,2.509699999995533,2.5190000000000055,2.544799999997025,2.5512999999970205,2.5761999999955307,2.583500000000001,2.609599999994039,2.6186999999955347,2.6447999999970193,2.6515000000000057,2.6745999999940437,2.6813999999985114,2.7077999999970217,2.7147999999970196,2.74119999999553,2.748199999995535,2.7745000000000033,2.7831999999955315,2.8093999999985115,2.8160999999940444,2.8237999999970214,2.8593999999985087,2.8663999999985137,2.89109999999404,2.898299999997022,2.9255999999940414,2.9336999999955324,2.9577999999970217,2.9662999999970197,2.9925999999940416,2.9993999999985093,3.0252999999970243,3.033799999997022,3.0593999999985115,3.0665999999940396,3.0926999999955314,3.0997999999970247,3.126899999998514,3.1343999999985144,3.1592999999970246,3.166000000000004,3.193799999997019,3.2011999999955307,3.2070999999940426,3.227399999998511,3.2580999999940445,3.2653999999985146,3.2927999999970226]","[1733283921236,1733283921263,1733283921291,1733283921299,1733283921324,1733283921332,1733283921360,1733283921368,1733283921391,1733283921398,1733283921403,1733283921443,1733283921449,1733283921474,1733283921480,1733283921503,1733283921510,1733283921538,1733283921545,1733283921572,1733283921578,1733283921603,1733283921611,1733283921638,1733283921645,1733283921672,1733283921679,1733283921705,1733283921720,1733283921738,1733283921746,1733283921770,1733283921777,1733283921803,1733283921810,1733283921837,1733283921844,1733283921871,1733283921879,1733283921905,1733283921911,1733283921938,1733283921945,1733283921971,1733283921978,1733283922005,1733283922011,1733283922037,1733283922044,1733283922071,1733283922078,1733283922103,1733283922111,1733283922138,1733283922145,1733283922171,1733283922178,1733283922205,1733283922211,1733283922238,1733283922245,1733283922273,1733283922280,1733283922286,1733283922304,1733283922338,1733283922345,1733283922371,1733283922379,1733283922405,1733283922412,1733283922438,1733283922445,1733283922471,1733283922478,1733283922503,1733283922510,1733283922538,1733283922545,1733283922571,1733283922578,1733283922605,1733283922612,1733283922638,1733283922645,1733283922671,1733283922678,1733283922705,1733283922711,1733283922737,1733283922746,1733283922772,1733283922778,1733283922803,1733283922810,1733283922839,1733283922846,1733283922872,1733283922878,1733283922907,1733283922914,1733283922938,1733283922945,1733283922974,1733283922981,1733283922986,1733283923006,1733283923041,1733283923048,1733283923072,1733283923078,1733283923106,1733283923115,1733283923138,1733283923145,1733283923174,1733283923181,1733283923205,1733283923212,1733283923241,1733283923247,1733283923272,1733283923279,1733283923310,1733283923317,1733283923341,1733283923348,1733283923376,1733283923384,1733283923407,1733283923415,1733283923443,1733283923451,1733283923474,1733283923482,1733283923507,1733283923514,1733283923522,1733283923540,1733283923558,1733283923573,1733283923608,1733283923614,1733283923640,1733283923648,1733283923674,1733283923680,1733283923705,1733283923713,1733283923738,1733283923748,1733283923774,1733283923780,1733283923805,1733283923812,1733283923838,1733283923847,1733283923874,1733283923880,1733283923903,1733283923910,1733283923937,1733283923944,1733283923970,1733283923977,1733283924003,1733283924012,1733283924038,1733283924045,1733283924053,1733283924088,1733283924095,1733283924120,1733283924127,1733283924154,1733283924163,1733283924187,1733283924195,1733283924221,1733283924228,1733283924254,1733283924263,1733283924288,1733283924295,1733283924322,1733283924329,1733283924356,1733283924363,1733283924388,1733283924395,1733283924423,1733283924430,1733283924436,1733283924456,1733283924487,1733283924494,1733283924522]","[[1145.5,545.1],[1145.5,545.1],[1115.5,538.9],[1115.5,538.9],[1078.9,508.2],[1078.9,508.2],[1042.3,477.5],[1042.3,477.5],[1028.4,476.5],[1028.4,476.5],[1028.4,476.5],[1011.7,468.5],[1011.7,468.5],[1031.3,471.6],[1031.3,471.6],[1012.3,486.1],[1012.3,486.1],[992.9,469],[992.9,469],[975.7,488.8],[975.7,488.8],[969,481.6],[969,481.6],[963,511.2],[963,511.2],[968.8,547.7],[968.8,547.7],[984.1,567.8],[984.1,567.8],[940,586.6],[940,586.6],[917.7,620.6],[917.7,620.6],[880.9,643.7],[880.9,643.7],[882.9,637.3],[882.9,637.3],[863.8,644.8],[863.8,644.8],[859.2,646.4],[859.2,646.4],[845.8,678],[845.8,678],[807.5,672.1],[807.5,672.1],[783.6,663.3],[783.6,663.3],[749.5,673.9],[749.5,673.9],[735.4,703.9],[735.4,703.9],[835.6,757],[835.6,757],[940.6,817],[940.6,817],[1038.6,871.4],[1038.6,871.4],[1093.3,922.2],[1093.3,922.2],[1135.2,961.8],[1135.2,961.8],[1163.6,985.3],[1163.6,985.3],[1163.6,985.3],[1163.6,985.3],[1214.1,1032.5],[1214.1,1032.5],[1271.9,1068.9],[1271.9,1068.9],[1311.7,1096.3],[1311.7,1096.3],[1341.5,1089.9],[1341.5,1089.9],[1240,1059.1],[1240,1059.1],[1177.7,1015.3],[1177.7,1015.3],[1105.6,986.5],[1105.6,986.5],[1056,951.1],[1056,951.1],[1033.5,940.8],[1033.5,940.8],[988.6,904.9],[988.6,904.9],[976.9,860.7],[976.9,860.7],[954.3,834.6],[954.3,834.6],[958.1,844.3],[958.1,844.3],[993,836.6],[993,836.6],[978,825.4],[978,825.4],[927.2,824.6],[927.2,824.6],[909.9,824],[909.9,824],[893.9,826.4],[893.9,826.4],[892.3,803.5],[892.3,803.5],[935.5,797.2],[935.5,797.2],[935.5,797.2],[935.5,797.2],[937.2,796.3],[937.2,796.3],[947.4,782.1],[947.4,782.1],[940.1,718.5],[940.1,718.5],[907.8,709.3],[907.8,709.3],[922.5,690.2],[922.5,690.2],[940,662.3],[940,662.3],[946.9,653.9],[946.9,653.9],[988.2,630.1],[988.2,630.1],[982.9,615],[982.9,615],[973.2,599.6],[973.2,599.6],[961.2,562.3],[961.2,562.3],[925,554.8],[925,554.8],[927.5,542.7],[927.5,542.7],[928.8,505.9],[928.8,505.9],[912.3,485.7],[912.3,485.7],[912.3,485.7],[912.3,485.7],[912.3,485.7],[912.3,485.7],[919.6,460.3],[919.6,460.3],[967.1,410.6],[967.1,410.6],[975,412.7],[975,412.7],[983.4,414.6],[983.4,414.6],[945.3,422.8],[945.3,422.8],[965.5,435.3],[965.5,435.3],[996.7,437.1],[996.7,437.1],[1038.2,472.5],[1038.2,472.5],[1029.6,495.1],[1029.6,495.1],[1086.5,499.4],[1086.5,499.4],[1077.8,511.5],[1077.8,511.5],[1048.4,554.5],[1048.4,554.5],[1023.7,560.1],[1023.7,560.1],[1028.7,565.1],[1028.7,565.1],[1028.7,565.1],[1036.9,554.3],[1036.9,554.3],[1047,567.7],[1047,567.7],[1048,568],[1048,568],[974.5,555.6],[974.5,555.6],[999,548],[999,548],[978,535.6],[978,535.6],[994.3,539.7],[994.3,539.7],[1024.8,539.6],[1024.8,539.6],[1049.3,531],[1049.3,531],[1067.8,519.5],[1067.8,519.5],[1130.2,524.4],[1130.2,524.4],[1130.2,524.4],[1130.2,524.4],[1102,508.8],[1102,508.8],[1111.4,510.5]]","[0,0.3527331528]","[0.3527331528,0.3527331528]","[-0.3527331528,-0.3527331528]","[-0.3527331528,0]","[0,-0.3527331528]","[0.3527331528,-0.3527331528]","[0,0]","[0.3527331528,0]",0,0,0,0,1,3,Tablet,11,9,9,1
,,,,,,,,,,,,,,,,,,,40,001,2024-12-04_11h44.29.820,Attention_exp_legacy,2023.1.0,Win32,59.88023952,,,,,,,,,,,[0.0875],[0.3074074074074074],[1],[0],[0],[2.1996999999955307],"[""Option1_label""]",Option1_label,2,3.2058,"[[0.08541666666666667,0.3074074074074074],[0.08541666666666667,0.3074074074074074],[0.08541666666666667,0.3074074074074074],[0.08541666666666667,0.3074074074074074],[0.08541666666666667,0.3074074074074074],[0.08541666666666667,0.3074074074074074],[0.08541666666666667,0.3074074074074074],[0.08541666666666667,0.3074074074074074],[0.08541666666666667,0.3074074074074074],[0.08541666666666667,0.3074074074074074],[0.08541666666666667,0.3074074074074074],[0.08541666666666667,0.3074074074074074],[0.08541666666666667,0.3074074074074074],[0.08541666666666667,0.3074074074074074],[0.08541666666666667,0.3074074074074074],[0.08541666666666667,0.3074074074074074],[0.08541666666666667,0.3074074074074074],[0.08541666666666667,0.3074074074074074],[0.08541666666666667,0.3074074074074074],[0.08541666666666667,0.3074074074074074],[0.08541666666666667,0.3074074074074074],[0.08541666666666667,0.3074074074074074],[0.08541666666666667,0.3074074074074074],[0.08541666666666667,0.3074074074074074],[0.08541666666666667,0.3074074074074074],[0.08541666666666667,0.3074074074074074],[0.08541666666666667,0.3074074074074074],[0.08541666666666667,0.3074074074074074],[0.08541666666666667,0.3074074074074074],[0.08541666666666667,0.3074074074074074],[0.08541666666666667,0.3074074074074074],[0.08541666666666667,0.3074074074074074],[0.08541666666666667,0.3074074074074074],[0.08541666666666667,0.3074074074074074],[0.08541666666666667,0.3074074074074074],[0.08541666666666667,0.3074074074074074],[0.08541666666666667,0.3074074074074074],[0.08541666666666667,0.3074074074074074],[0.08541666666666667,0.3074074074074074],[0.08541666666666667,0.3074074074074074],[0.08541666666666667,0.3074074074074074],[0.08541666666666667,0.3074074074074074],[0.08541666666666667,0.3074074074074074],[0.08541666666666667,0.3074074074074074],[0.08541666666666667,0.3074074074074074],[0.08541666666666667,0.3074074074074074],[0.08541666666666667,0.3074074074074074],[0.08541666666666667,0.3074074074074074],[0.08541666666666667,0.3074074074074074],[0.08541666666666667,0.3074074074074074],[0.08541666666666667,0.3074074074074074],[0.08541666666666667,0.3074074074074074],[0.08541666666666667,0.3074074074074074],[0.08541666666666667,0.3074074074074074],[0.08541666666666667,0.3074074074074074],[0.08541666666666667,0.3074074074074074],[0.08541666666666667,0.3074074074074074],[0.08541666666666667,0.3074074074074074],[0.08541666666666667,0.3074074074074074],[0.08541666666666667,0.3074074074074074],[0.08541666666666667,0.3074074074074074],[0.08541666666666667,0.3074074074074074],[0.08541666666666667,0.3074074074074074],[0.08541666666666667,0.3074074074074074],[0.08541666666666667,0.3074074074074074],[0.08541666666666667,0.3074074074074074],[0.08541666666666667,0.3074074074074074],[0.08541666666666667,0.3074074074074074],[0.08541666666666667,0.3074074074074074],[0.08541666666666667,0.3074074074074074],[0.08541666666666667,0.3074074074074074],[0.08541666666666667,0.3074074074074074],[0.08541666666666667,0.3074074074074074],[0.08541666666666667,0.3074074074074074],[0.08541666666666667,0.3074074074074074],[0.08541666666666667,0.3074074074074074],[0.08541666666666667,0.3074074074074074],[0.08541666666666667,0.3074074074074074],[0.08541666666666667,0.3074074074074074],[0.08541666666666667,0.3074074074074074],[0.08541666666666667,0.3074074074074074],[0.08541666666666667,0.3074074074074074],[0.08541666666666667,0.3074074074074074],[0.08541666666666667,0.3074074074074074],[0.08541666666666667,0.3074074074074074],[0.08541666666666667,0.3074074074074074],[0.08541666666666667,0.3074074074074074],[0.08541666666666667,0.3074074074074074],[0.08541666666666667,0.3074074074074074],[0.08541666666666667,0.3074074074074074],[0.08541666666666667,0.3074074074074074],[0.08541666666666667,0.3074074074074074],[0.08541666666666667,0.3074074074074074],[0.08541666666666667,0.3074074074074074],[0.08541666666666667,0.3074074074074074],[0.08541666666666667,0.3074074074074074],[0.08541666666666667,0.3074074074074074],[0.08541666666666667,0.3074074074074074],[0.08541666666666667,0.3074074074074074],[0.08541666666666667,0.3074074074074074],[0.08541666666666667,0.3074074074074074],[0.08541666666666667,0.3074074074074074],[0.08541666666666667,0.3074074074074074],[0.08541666666666667,0.3074074074074074],[0.08541666666666667,0.3074074074074074],[0.08541666666666667,0.3074074074074074],[0.08541666666666667,0.3074074074074074],[0.08541666666666667,0.3074074074074074],[0.08541666666666667,0.3074074074074074],[0.08541666666666667,0.3074074074074074],[0.08541666666666667,0.3074074074074074],[0.08645833333333333,0.3074074074074074],[0.0875,0.3074074074074074],[0.0875,0.3074074074074074],[0.0875,0.3074074074074074],[0.0875,0.3074074074074074],[0.0875,0.3074074074074074],[0.0875,0.3074074074074074],[0.0875,0.3074074074074074],[0.0875,0.3074074074074074],[0.0875,0.3074074074074074],[0.0875,0.3074074074074074],[0.0875,0.3074074074074074],[0.0875,0.3074074074074074],[0.0875,0.3074074074074074],[0.0875,0.3074074074074074],[0.0875,0.3074074074074074],[0.0875,0.3074074074074074],[0.0875,0.3074074074074074],[0.0875,0.3074074074074074],[0.0875,0.3074074074074074],[0.0875,0.3074074074074074],[0.0875,0.3074074074074074],[0.0875,0.3074074074074074],[0.0875,0.3074074074074074],[0.0875,0.3074074074074074],[0.0875,0.3074074074074074],[0.0875,0.3074074074074074],[0.0875,0.3074074074074074],[0.0875,0.3074074074074074],[0.0875,0.3074074074074074],[0.0875,0.3074074074074074],[0.0875,0.3074074074074074],[0.0875,0.3074074074074074],[0.0875,0.3074074074074074],[0.0875,0.3074074074074074],[0.0875,0.3074074074074074],[0.0875,0.3074074074074074],[0.0875,0.3074074074074074],[0.0875,0.3074074074074074],[0.0875,0.3074074074074074],[0.0875,0.3074074074074074],[0.0875,0.3074074074074074],[0.0875,0.3074074074074074],[0.0875,0.3074074074074074],[0.0875,0.3074074074074074],[0.0875,0.3074074074074074],[0.0875,0.3074074074074074],[0.0875,0.3074074074074074],[0.0875,0.3074074074074074],[0.0875,0.3074074074074074],[0.0875,0.3074074074074074],[0.0875,0.3074074074074074],[0.0875,0.3074074074074074],[0.0875,0.3074074074074074],[0.0875,0.3074074074074074],[0.0875,0.3074074074074074],[0.0875,0.3074074074074074],[0.0875,0.3074074074074074],[0.0875,0.3074074074074074],[0.0875,0.3074074074074074],[0.0875,0.3074074074074074],[0.0875,0.3074074074074074],[0.0875,0.3074074074074074],[0.0875,0.3074074074074074],[0.0875,0.3074074074074074],[0.0875,0.3074074074074074],[0.0875,0.3074074074074074],[0.0875,0.3074074074074074],[0.0875,0.3074074074074074],[0.0875,0.3074074074074074],[0.0875,0.3074074074074074],[0.0875,0.3074074074074074],[0.0875,0.3074074074074074],[0.0875,0.3074074074074074],[0.0875,0.3074074074074074],[0.0875,0.3074074074074074],[0.0875,0.3074074074074074],[0.0875,0.3074074074074074],[0.0875,0.3074074074074074],[0.0875,0.3074074074074074],[0.0875,0.3074074074074074],[0.0875,0.3074074074074074]]","[[0.1460416666666667,-0.1935185185185185],[0.15583333333333324,-0.17],[0.15583333333333324,-0.17],[0.1892708333333334,-0.16796296296296295],[0.18312499999999995,-0.1653703703703704],[0.2101041666666667,-0.18222222222222217],[0.1790625000000001,-0.1757407407407407],[0.12958333333333344,-0.19740740740740745],[0.13468749999999996,-0.18888888888888888],[0.11635416666666672,-0.15722222222222218],[0.07697916666666677,-0.14611111111111108],[0.07697916666666677,-0.14611111111111108],[0.041770833333333354,-0.13722222222222227],[0.041770833333333354,-0.13722222222222227],[0.00604166666666662,-0.15537037037037033],[0.00604166666666662,-0.15537037037037033],[-0.033854166666666664,-0.18777777777777774],[-0.033854166666666664,-0.18777777777777774],[-0.04718749999999995,-0.17185185185185187],[-0.04718749999999995,-0.17185185185185187],[-0.10385416666666672,-0.13277777777777774],[-0.10385416666666672,-0.13277777777777774],[-0.06843750000000005,-0.13222222222222219],[-0.07520833333333338,-0.0962962962962963],[-0.07583333333333328,-0.09518518518518514],[-0.07583333333333328,-0.09518518518518514],[-0.06645833333333329,-0.08333333333333333],[-0.06645833333333329,-0.08333333333333333],[-0.04385416666666669,-0.01962962962962967],[-0.059375,0.026111111111111154],[-0.09624999999999997,0.05685185185185194],[-0.11291666666666664,0.08925925925925934],[-0.13729166666666662,0.11407407407407412],[-0.15854166666666672,0.12185185185185177],[-0.19593750000000001,0.14833333333333337],[-0.19500000000000003,0.1646296296296296],[-0.23406250000000003,0.1874074074074075],[-0.28624999999999995,0.22092592592592583],[-0.330625,0.22314814814814815],[-0.32406250000000003,0.23037037037037034],[-0.3109375,0.25999999999999995],[-0.28125,0.27018518518518514],[-0.24666666666666662,0.24148148148148144],[-0.21385416666666662,0.24722222222222223],[-0.18197916666666672,0.2598148148148147],[-0.1360416666666667,0.24314814814814806],[-0.09010416666666667,0.2264814814814814],[-0.049687500000000044,0.2081481481481481],[-0.00927083333333331,0.18981481481481483],[0.014791666666666713,0.17592592592592593],[0.03885416666666662,0.16203703703703703],[0.04906250000000002,0.18703703703703703],[0.06291666666666665,0.23351851851851857],[0.07593750000000009,0.2183333333333333],[0.08614583333333338,0.19962962962962955],[0.08229166666666667,0.2101851851851852],[0.07739583333333329,0.24537037037037038],[0.08395833333333323,0.2898148148148148],[0.058645833333333286,0.31574074074074077],[0.03687499999999998,0.3501851851851852],[0.015104166666666667,0.3846296296296297],[0.009687499999999953,0.41648148148148145],[-0.0067708333333333336,0.4377777777777777],[-0.04750000000000002,0.4557407407407408],[-0.08541666666666667,0.4772222222222223],[-0.12114583333333329,0.5366666666666666],[-0.1929166666666667,0.571111111111111],[-0.24385416666666668,0.552962962962963],[-0.24708333333333338,0.562037037037037],[-0.2673958333333334,0.5477777777777777],[-0.2877083333333334,0.5335185185185186],[-0.29708333333333337,0.5185185185185185],[-0.3064583333333334,0.5035185185185185],[-0.26875,0.512962962962963],[-0.23104166666666662,0.5224074074074074],[-0.20302083333333332,0.48555555555555563],[-0.13791666666666663,0.44907407407407407],[-0.08624999999999995,0.4685185185185185],[-0.08031250000000002,0.45981481481481473],[-0.057291666666666664,0.4744444444444445],[-0.007187499999999976,0.49074074074074076],[0.012916666666666642,0.490925925925926],[0.03229166666666667,0.49148148148148146],[0.02364583333333338,0.5],[0.014999999999999977,0.5085185185185186],[0.01875,0.5237037037037037],[0.022500000000000023,0.5388888888888889],[0.02635416666666662,0.5112962962962964],[0.04468749999999998,0.4925925925925926],[0.08177083333333333,0.47611111111111115],[0.11500000000000009,0.4727777777777777],[0.11500000000000009,0.4727777777777777],[0.14020833333333324,0.467962962962963],[0.15697916666666673,0.46296296296296297],[0.18156249999999996,0.456111111111111],[0.215625,0.4396296296296296],[0.24479166666666666,0.42481481481481476],[0.24656250000000005,0.42370370370370364],[0.2462500000000001,0.40481481481481485],[0.2497916666666666,0.42111111111111105],[0.2345833333333334,0.4351851851851852],[0.21947916666666673,0.3881481481481482],[0.21239583333333342,0.3425925925925926],[0.20541666666666672,0.28703703703703703],[0.1931250000000001,0.26592592592592595],[0.17135416666666667,0.2544444444444444],[0.17135416666666667,0.2544444444444444],[0.1443749999999999,0.2300000000000001],[0.14479166666666668,0.19185185185185188],[0.13916666666666658,0.17037037037037037],[0.14510416666666662,0.1242592592592593],[0.1556250000000001,0.061666666666666585],[0.12979166666666658,0.08222222222222218],[0.09979166666666663,0.08185185185185194],[0.07885416666666671,0.09129629629629621],[0.04645833333333336,0.07555555555555547],[0.0140625,0.05981481481481473],[-0.011041666666666691,0.03462962962962971],[-0.036145833333333384,0.009444444444444486],[-0.042604166666666644,-0.009259259259259259],[-0.024895833333333308,-0.01962962962962967],[-0.04656250000000005,0.01648148148148144],[-0.03822916666666672,-0.003703703703703704],[-0.025,-0.007592592592592635],[-0.011770833333333286,-0.011481481481481566],[0.022812499999999975,-0.02240740740740745],[0.04822916666666662,-0.016851851851851896],[0.07156250000000004,0.011111111111111112],[0.09291666666666672,0.032777777777777864],[0.08802083333333334,0.057777777777777865],[0.08802083333333334,0.057777777777777865],[0.05947916666666669,0.03222222222222218],[0.06572916666666669,-0.023333333333333376],[0.06572916666666669,-0.023333333333333376],[0.06458333333333334,-0.03796296296296296],[0.06458333333333334,-0.03796296296296296],[0.034791666666666644,-0.045740740740740825],[0.034791666666666644,-0.045740740740740825],[0.0037500000000000237,-0.06444444444444447],[0.0037500000000000237,-0.06444444444444447],[-0.03572916666666662,-0.07037037037037037],[-0.03572916666666662,-0.07037037037037037],[-0.010416666666666666,-0.11703703703703702],[-0.015416666666666618,-0.1411111111111111],[-0.05249999999999998,-0.1714814814814815],[-0.06781250000000003,-0.225],[-0.08364583333333328,-0.23629629629629634],[-0.08552083333333335,-0.20685185185185184],[-0.09697916666666669,-0.19888888888888884],[-0.07072916666666665,-0.1668518518518519],[-0.04604166666666672,-0.15129629629629626],[-0.005624999999999976,-0.14981481481481476],[-0.035208333333333286,-0.14481481481481479],[-0.012083333333333357,-0.17],[0.022708333333333285,-0.1742592592592593],[0.03166666666666664,-0.13481481481481483],[0.025833333333333285,-0.12111111111111107],[0.022083333333333382,-0.08333333333333333],[0.02041666666666669,-0.06185185185185181],[0.026145833333333358,-0.06851851851851852],[0.02322916666666662,-0.034444444444444486],[0.019166666666666644,-0.02092592592592584],[0.021875,0.028518518518518478],[-0.02645833333333331,0.1259259259259259],[-0.03979166666666671,0.20981481481481473],[-0.03979166666666671,0.20981481481481473],[-0.05,0.2801851851851851],[-0.04093749999999995,0.3164814814814814],[-0.04791666666666667,0.287962962962963],[-0.06416666666666669,0.31814814814814807],[-0.11229166666666662,0.33203703703703696],[-0.13666666666666671,0.33648148148148155],[-0.16177083333333328,0.36129629629629634],[-0.18885416666666663,0.38944444444444437],[-0.1872916666666666,0.3772222222222223],[-0.20812499999999995,0.352962962962963],[-0.1935416666666666,0.325],[-0.18343750000000003,0.3568518518518519],[-0.14510416666666662,0.375],[-0.10822916666666664,0.33611111111111114],[-0.04802083333333336,0.33000000000000007],[-0.058854166666666666,0.27388888888888885],[-0.0796875,0.2170370370370371],[-0.08406250000000005,0.15092592592592594],[-0.08843749999999997,0.08481481481481473],[-0.09031250000000005,0.04425925925925922],[-0.12124999999999998,0.0020370370370370794],[-0.11916666666666664,-0.030740740740740784],[-0.1453125,-0.04981481481481477],[-0.17760416666666667,-0.06814814814814817],[-0.2185416666666666,-0.10111111111111115],[-0.16416666666666668,-0.08962962962962959],[-0.16416666666666668,-0.08962962962962959]]","[[0.1460416666666667,-0.1935185185185185,0.00009999999404897153],[0.15583333333333324,-0.17,0.019500000000007844],[0.15583333333333324,-0.17,0.03300000000000125],[0.1892708333333334,-0.16796296296296295,0.04950000000000898],[0.18312499999999995,-0.1653703703703704,0.06639999999850943],[0.2101041666666667,-0.18222222222222217,0.08289999999851716],[0.1790625000000001,-0.1757407407407407,0.0995999999940409],[0.12958333333333344,-0.19740740740740745,0.11619999999552988],[0.13468749999999996,-0.18888888888888888,0.1355000000000075],[0.11635416666666672,-0.15722222222222218,0.14959999999403806],[0.07697916666666677,-0.14611111111111108,0.1662999999970225],[0.07697916666666677,-0.14611111111111108,0.18289999999851148],[0.041770833333333354,-0.13722222222222227,0.19959999999404943],[0.041770833333333354,-0.13722222222222227,0.2163999999985151],[0.00604166666666662,-0.15537037037037033,0.23289999999850863],[0.00604166666666662,-0.15537037037037033,0.24950000000001182],[-0.033854166666666664,-0.18777777777777774,0.266299999997031],[-0.033854166666666664,-0.18777777777777774,0.28289999999852],[-0.04718749999999995,-0.17185185185185187,0.29959999999404374],[-0.04718749999999995,-0.17185185185185187,0.3162999999970282],[-0.10385416666666672,-0.13277777777777774,0.3329999999999984],[-0.10385416666666672,-0.13277777777777774,0.3495999999940409],[-0.06843750000000005,-0.13222222222222219,0.36629999999702534],[-0.07520833333333338,-0.0962962962962963,0.38279999999701886],[-0.07583333333333328,-0.09518518518518514,0.40379999999701965],[-0.07583333333333328,-0.09518518518518514,0.41639999999851796],[-0.06645833333333329,-0.08333333333333333,0.43300000000000693],[-0.06645833333333329,-0.08333333333333333,0.4495999999940494],[-0.04385416666666669,-0.01962962962962967,0.46629999999701965],[-0.059375,0.026111111111111154,0.48289999999850863],[-0.09624999999999997,0.05685185185185194,0.4995999999940466],[-0.11291666666666664,0.08925925925925934,0.516299999997031],[-0.13729166666666662,0.11407407407407412,0.5357999999970247],[-0.15854166666666672,0.12185185185185177,0.5500999999940461],[-0.19593750000000001,0.14833333333333337,0.5666999999955351],[-0.19500000000000003,0.1646296296296296,0.5828999999985172],[-0.23406250000000003,0.1874074074074075,0.5995999999940409],[-0.28624999999999995,0.22092592592592583,0.6161999999955299],[-0.330625,0.22314814814814815,0.6328999999985143],[-0.32406250000000003,0.23037037037037034,0.6495000000000033],[-0.3109375,0.25999999999999995,0.6661999999955412],[-0.28125,0.27018518518518514,0.6830000000000069],[-0.24666666666666662,0.24148148148148144,0.6995999999940494],[-0.21385416666666662,0.24722222222222223,0.7202999999970245],[-0.18197916666666672,0.2598148148148147,0.7362999999970299],[-0.1360416666666667,0.24314814814814806,0.7530000000000001],[-0.09010416666666667,0.2264814814814814,0.767399999998517],[-0.049687500000000044,0.2081481481481481,0.7827999999970245],[-0.00927083333333331,0.18981481481481483,0.7995999999940437],[0.014791666666666713,0.17592592592592593,0.8162999999970282],[0.03885416666666662,0.16203703703703703,0.8335999999940498],[0.04906250000000002,0.18703703703703703,0.8495000000000061],[0.06291666666666665,0.23351851851851857,0.8661999999955299],[0.07593750000000009,0.2183333333333333,0.8838999999985191],[0.08614583333333338,0.19962962962962955,0.9000999999940404],[0.08229166666666667,0.2101851851851852,0.9162999999970225],[0.07739583333333329,0.24537037037037038,0.9365999999940442],[0.08395833333333323,0.2898148148148148,0.9500000000000028],[0.058645833333333286,0.31574074074074077,0.9675000000000011],[0.03687499999999998,0.3501851851851852,0.9828999999985086],[0.015104166666666667,0.3846296296296297,0.9996999999955278],[0.009687499999999953,0.41648148148148145,1.016299999997031],[-0.0067708333333333336,0.4377777777777777,1.03289999999852],[-0.04750000000000002,0.4557407407407408,1.049500000000009],[-0.08541666666666667,0.4772222222222223,1.0661999999955327],[-0.12114583333333329,0.5366666666666666,1.0827999999970217],[-0.1929166666666667,0.571111111111111,1.099599999994041],[-0.24385416666666668,0.552962962962963,1.1162999999970253],[-0.24708333333333338,0.562037037037037,1.1351999999955353],[-0.2673958333333334,0.5477777777777777,1.1495000000000033],[-0.2877083333333334,0.5335185185185186,1.1661999999955412],[-0.29708333333333337,0.5185185185185185,1.1840999999940465],[-0.3064583333333334,0.5035185185185185,1.2023999999985193],[-0.26875,0.512962962962963,1.21759999999405],[-0.23104166666666662,0.5224074074074074,1.2332999999970298],[-0.20302083333333332,0.48555555555555563,1.2497999999970233],[-0.13791666666666663,0.44907407407407407,1.2661999999955356],[-0.08624999999999995,0.4685185185185185,1.2827999999970245],[-0.08031250000000002,0.45981481481481473,1.3020000000000067],[-0.057291666666666664,0.4744444444444445,1.3177999999970211],[-0.007187499999999976,0.49074074074074076,1.3350999999940427],[0.012916666666666642,0.490925925925926,1.3495000000000061],[0.03229166666666667,0.49148148148148146,1.3670999999940392],[0.02364583333333338,0.5,1.3830000000000098],[0.014999999999999977,0.5085185185185186,1.399799999997029],[0.01875,0.5237037037037037,1.4161999999955412],[0.022500000000000023,0.5388888888888889,1.4328999999985115],[0.02635416666666662,0.5112962962962964,1.4495999999940494],[0.04468749999999998,0.4925925925925926,1.4661999999955384],[0.08177083333333333,0.47611111111111115,1.4827999999970274],[0.11500000000000009,0.4727777777777777,1.5035000000000025],[0.11500000000000009,0.4727777777777777,1.5170000000000101],[0.14020833333333324,0.467962962962963,1.53289999999852],[0.15697916666666673,0.46296296296296297,1.5495999999940437],[0.18156249999999996,0.456111111111111,1.5661999999955327],[0.215625,0.4396296296296296,1.5828999999985172],[0.24479166666666666,0.42481481481481476,1.5995000000000061],[0.24656250000000005,0.42370370370370364,1.6161999999955299],[0.2462500000000001,0.40481481481481485,1.6328999999985143],[0.2497916666666666,0.42111111111111105,1.649599999994038],[0.2345833333333334,0.4351851851851852,1.6661999999955412],[0.21947916666666673,0.3881481481481482,1.6828999999985115],[0.21239583333333342,0.3425925925925926,1.6995000000000005],[0.20541666666666672,0.28703703703703703,1.7161999999955384],[0.1931250000000001,0.26592592592592595,1.7331999999955343],[0.17135416666666667,0.2544444444444444,1.752299999997021],[0.17135416666666667,0.2544444444444444,1.7661999999955356],[0.1443749999999999,0.2300000000000001,1.78289999999852],[0.14479166666666668,0.19185185185185188,1.7995999999940437],[0.13916666666666658,0.17037037037037037,1.8161999999955327],[0.14510416666666662,0.1242592592592593,1.8329999999999984],[0.1556250000000001,0.061666666666666585,1.8513999999985202],[0.12979166666666658,0.08222222222222218,1.8663999999985208],[0.09979166666666663,0.08185185185185194,1.8828999999985143],[0.07885416666666671,0.09129629629629621,1.899599999994038],[0.04645833333333336,0.07555555555555547,1.9161999999955412],[0.0140625,0.05981481481481473,1.9328999999985115],[-0.011041666666666691,0.03462962962962971,1.9495000000000005],[-0.036145833333333384,0.009444444444444486,1.9661999999955384],[-0.042604166666666644,-0.009259259259259259,1.9827999999970274],[-0.024895833333333308,-0.01962962962962967,1.9995000000000118],[-0.04656250000000005,0.01648148148148144,2.0161999999955356],[-0.03822916666666672,-0.003703703703703704,2.03289999999852],[-0.025,-0.007592592592592635,2.0495999999940437],[-0.011770833333333286,-0.011481481481481566,2.0661999999955327],[0.022812499999999975,-0.02240740740740745,2.082899999998517],[0.04822916666666662,-0.016851851851851896,2.100699999995541],[0.07156250000000004,0.011111111111111112,2.116399999998521],[0.09291666666666672,0.032777777777777864,2.1366999999955283],[0.08802083333333334,0.057777777777777865,2.152000000000001],[0.08802083333333334,0.057777777777777865,2.1661999999955412],[0.05947916666666669,0.03222222222222218,2.1827999999970302],[0.06572916666666669,-0.023333333333333376,2.2015999999940448],[0.06572916666666669,-0.023333333333333376,2.2161999999955384],[0.06458333333333334,-0.03796296296296296,2.2328999999985086],[0.06458333333333334,-0.03796296296296296,2.2495999999940466],[0.034791666666666644,-0.045740740740740825,2.266299999997031],[0.034791666666666644,-0.045740740740740825,2.28289999999852],[0.0037500000000000237,-0.06444444444444447,2.2995999999940437],[0.0037500000000000237,-0.06444444444444447,2.316299999997028],[-0.03572916666666662,-0.07037037037037037,2.335799999997022],[-0.03572916666666662,-0.07037037037037037,2.349500000000006],[-0.010416666666666666,-0.11703703703703702,2.36619999999553],[-0.015416666666666618,-0.1411111111111111,2.3830000000000098],[-0.05249999999999998,-0.1714814814814815,2.3995000000000033],[-0.06781250000000003,-0.225,2.4162999999970225],[-0.08364583333333328,-0.23629629629629634,2.4335000000000093],[-0.08552083333333335,-0.20685185185185184,2.4495000000000005],[-0.09697916666666669,-0.19888888888888884,2.4661999999955384],[-0.07072916666666665,-0.1668518518518519,2.4828999999985086],[-0.04604166666666672,-0.15129629629629626,2.499500000000012],[-0.005624999999999976,-0.14981481481481476,2.5161999999955356],[-0.035208333333333286,-0.14481481481481479,2.5330000000000013],[-0.012083333333333357,-0.17,2.549500000000009],[0.022708333333333285,-0.1742592592592593,2.566299999997028],[0.03166666666666664,-0.13481481481481483,2.5827999999970217],[0.025833333333333285,-0.12111111111111107,2.599599999994041],[0.022083333333333382,-0.08333333333333333,2.6162999999970253],[0.02041666666666669,-0.06185185185185181,2.6340999999940493],[0.026145833333333358,-0.06851851851851852,2.6495000000000033],[0.02322916666666662,-0.034444444444444486,2.6661999999955412],[0.019166666666666644,-0.02092592592592584,2.6828999999985115],[0.021875,0.028518518518518478,2.703000000000003],[-0.02645833333333331,0.1259259259259259,2.717799999997027],[-0.03979166666666671,0.20981481481481473,2.733000000000004],[-0.03979166666666671,0.20981481481481473,2.7495999999940466],[-0.05,0.2801851851851851,2.7661999999955356],[-0.04093749999999995,0.3164814814814814,2.7830000000000013],[-0.04791666666666667,0.287962962962963,2.7995999999940437],[-0.06416666666666669,0.31814814814814807,2.8161999999955327],[-0.11229166666666662,0.33203703703703696,2.8333999999985195],[-0.13666666666666671,0.33648148148148155,2.8512999999970248],[-0.16177083333333328,0.36129629629629634,2.86619999999553],[-0.18885416666666663,0.38944444444444437,2.8828999999985143],[-0.1872916666666666,0.3772222222222223,2.8995000000000033],[-0.20812499999999995,0.352962962962963,2.9161999999955412],[-0.1935416666666666,0.325,2.9347999999970256],[-0.18343750000000003,0.3568518518518519,2.9495000000000005],[-0.14510416666666662,0.375,2.966399999998515],[-0.10822916666666664,0.33611111111111114,2.9828999999985086],[-0.04802083333333336,0.33000000000000007,2.999500000000012],[-0.058854166666666666,0.27388888888888885,3.0161999999955356],[-0.0796875,0.2170370370370371,3.0327999999970245],[-0.08406250000000005,0.15092592592592594,3.049500000000009],[-0.08843749999999997,0.08481481481481473,3.0661999999955327],[-0.09031250000000005,0.04425925925925922,3.082899999998517],[-0.12124999999999998,0.0020370370370370794,3.099500000000006],[-0.11916666666666664,-0.030740740740740784,3.1162999999970253],[-0.1453125,-0.04981481481481477,3.1333999999985167],[-0.17760416666666667,-0.06814814814814817,3.1495000000000033],[-0.2185416666666666,-0.10111111111111115,3.1695999999940483],[-0.16416666666666668,-0.08962962962962959,3.1887999999970305],[-0.16416666666666668,-0.08962962962962959,3.2057999999970264]]","[0.00009999999404897153,0.019500000000007844,0.03300000000000125,0.04950000000000898,0.06639999999850943,0.08289999999851716,0.0995999999940409,0.11619999999552988,0.1355000000000075,0.14959999999403806,0.1662999999970225,0.18289999999851148,0.19959999999404943,0.2163999999985151,0.23289999999850863,0.24950000000001182,0.266299999997031,0.28289999999852,0.29959999999404374,0.3162999999970282,0.3329999999999984,0.3495999999940409,0.36629999999702534,0.38279999999701886,0.40379999999701965,0.41639999999851796,0.43300000000000693,0.4495999999940494,0.46629999999701965,0.48289999999850863,0.4995999999940466,0.516299999997031,0.5357999999970247,0.5500999999940461,0.5666999999955351,0.5828999999985172,0.5995999999940409,0.6161999999955299,0.6328999999985143,0.6495000000000033,0.6661999999955412,0.6830000000000069,0.6995999999940494,0.7202999999970245,0.7362999999970299,0.7530000000000001,0.767399999998517,0.7827999999970245,0.7995999999940437,0.8162999999970282,0.8335999999940498,0.8495000000000061,0.8661999999955299,0.8838999999985191,0.9000999999940404,0.9162999999970225,0.9365999999940442,0.9500000000000028,0.9675000000000011,0.9828999999985086,0.9996999999955278,1.016299999997031,1.03289999999852,1.049500000000009,1.0661999999955327,1.0827999999970217,1.099599999994041,1.1162999999970253,1.1351999999955353,1.1495000000000033,1.1661999999955412,1.1840999999940465,1.2023999999985193,1.21759999999405,1.2332999999970298,1.2497999999970233,1.2661999999955356,1.2827999999970245,1.3020000000000067,1.3177999999970211,1.3350999999940427,1.3495000000000061,1.3670999999940392,1.3830000000000098,1.399799999997029,1.4161999999955412,1.4328999999985115,1.4495999999940494,1.4661999999955384,1.4827999999970274,1.5035000000000025,1.5170000000000101,1.53289999999852,1.5495999999940437,1.5661999999955327,1.5828999999985172,1.5995000000000061,1.6161999999955299,1.6328999999985143,1.649599999994038,1.6661999999955412,1.6828999999985115,1.6995000000000005,1.7161999999955384,1.7331999999955343,1.752299999997021,1.7661999999955356,1.78289999999852,1.7995999999940437,1.8161999999955327,1.8329999999999984,1.8513999999985202,1.8663999999985208,1.8828999999985143,1.899599999994038,1.9161999999955412,1.9328999999985115,1.9495000000000005,1.9661999999955384,1.9827999999970274,1.9995000000000118,2.0161999999955356,2.03289999999852,2.0495999999940437,2.0661999999955327,2.082899999998517,2.100699999995541,2.116399999998521,2.1366999999955283,2.152000000000001,2.1661999999955412,2.1827999999970302,2.2015999999940448,2.2161999999955384,2.2328999999985086,2.2495999999940466,2.266299999997031,2.28289999999852,2.2995999999940437,2.316299999997028,2.335799999997022,2.349500000000006,2.36619999999553,2.3830000000000098,2.3995000000000033,2.4162999999970225,2.4335000000000093,2.4495000000000005,2.4661999999955384,2.4828999999985086,2.499500000000012,2.5161999999955356,2.5330000000000013,2.549500000000009,2.566299999997028,2.5827999999970217,2.599599999994041,2.6162999999970253,2.6340999999940493,2.6495000000000033,2.6661999999955412,2.6828999999985115,2.703000000000003,2.717799999997027,2.733000000000004,2.7495999999940466,2.7661999999955356,2.7830000000000013,2.7995999999940437,2.8161999999955327,2.8333999999985195,2.8512999999970248,2.86619999999553,2.8828999999985143,2.8995000000000033,2.9161999999955412,2.9347999999970256,2.9495000000000005,2.966399999998515,2.9828999999985086,2.999500000000012,3.0161999999955356,3.0327999999970245,3.049500000000009,3.0661999999955327,3.082899999998517,3.099500000000006,3.1162999999970253,3.1333999999985167,3.1495000000000033,3.1695999999940483,3.1887999999970305,3.2057999999970264]","[1733283925538,1733283925556,1733283925569,1733283925586,1733283925603,1733283925619,1733283925636,1733283925653,1733283925672,1733283925686,1733283925703,1733283925719,1733283925736,1733283925753,1733283925769,1733283925786,1733283925803,1733283925819,1733283925836,1733283925853,1733283925869,1733283925886,1733283925903,1733283925919,1733283925940,1733283925953,1733283925969,1733283925986,1733283926003,1733283926019,1733283926036,1733283926053,1733283926072,1733283926086,1733283926103,1733283926119,1733283926136,1733283926153,1733283926169,1733283926186,1733283926203,1733283926219,1733283926236,1733283926257,1733283926273,1733283926289,1733283926304,1733283926319,1733283926336,1733283926353,1733283926370,1733283926386,1733283926403,1733283926420,1733283926436,1733283926453,1733283926473,1733283926486,1733283926504,1733283926519,1733283926536,1733283926553,1733283926569,1733283926586,1733283926602,1733283926619,1733283926636,1733283926653,1733283926671,1733283926686,1733283926703,1733283926720,1733283926739,1733283926754,1733283926770,1733283926786,1733283926802,1733283926819,1733283926838,1733283926854,1733283926871,1733283926886,1733283926903,1733283926919,1733283926936,1733283926953,1733283926969,1733283926986,1733283927003,1733283927019,1733283927040,1733283927053,1733283927069,1733283927086,1733283927103,1733283927119,1733283927136,1733283927153,1733283927169,1733283927186,1733283927203,1733283927219,1733283927236,1733283927253,1733283927270,1733283927289,1733283927303,1733283927319,1733283927336,1733283927353,1733283927369,1733283927388,1733283927403,1733283927419,1733283927436,1733283927453,1733283927469,1733283927486,1733283927502,1733283927519,1733283927536,1733283927553,1733283927569,1733283927586,1733283927603,1733283927619,1733283927637,1733283927653,1733283927673,1733283927688,1733283927703,1733283927719,1733283927738,1733283927753,1733283927769,1733283927786,1733283927803,1733283927819,1733283927836,1733283927853,1733283927872,1733283927886,1733283927903,1733283927919,1733283927936,1733283927953,1733283927970,1733283927986,1733283928003,1733283928019,1733283928036,1733283928052,1733283928069,1733283928086,1733283928103,1733283928119,1733283928136,1733283928153,1733283928170,1733283928186,1733283928202,1733283928219,1733283928239,1733283928254,1733283928269,1733283928286,1733283928303,1733283928319,1733283928336,1733283928353,1733283928370,1733283928388,1733283928402,1733283928419,1733283928436,1733283928453,1733283928471,1733283928486,1733283928503,1733283928519,1733283928536,1733283928553,1733283928569,1733283928586,1733283928603,1733283928619,1733283928636,1733283928653,1733283928670,1733283928686,1733283928706,1733283928725,1733283928742]","[[1100.2,435.5],[1109.6,448.2],[1109.6,448.2],[1141.7,449.3],[1135.8,450.7],[1161.7,441.6],[1131.9,445.1],[1084.4,433.4],[1089.3,438],[1071.7,455.1],[1033.9,461.1],[1033.9,461.1],[1000.1,465.9],[1000.1,465.9],[965.8,456.1],[965.8,456.1],[927.5,438.6],[927.5,438.6],[914.7,447.2],[914.7,447.2],[860.3,468.3],[860.3,468.3],[894.3,468.6],[887.8,488],[887.2,488.6],[887.2,488.6],[896.2,495],[896.2,495],[917.9,529.4],[903,554.1],[867.6,570.7],[851.6,588.2],[828.2,601.6],[807.8,605.8],[771.9,620.1],[772.8,628.9],[735.3,641.2],[685.2,659.3],[642.6,660.5],[648.9,664.4],[661.5,680.4],[690,685.9],[723.2,670.4],[754.7,673.5],[785.3,680.3],[829.4,671.3],[873.5,662.3],[912.3,652.4],[951.1,642.5],[974.2,635],[997.3,627.5],[1007.1,641],[1020.4,666.1],[1032.9,657.9],[1042.7,647.8],[1039,653.5],[1034.3,672.5],[1040.6,696.5],[1016.3,710.5],[995.4,729.1],[974.5,747.7],[969.3,764.9],[953.5,776.4],[914.4,786.1],[878,797.7],[843.7,829.8],[774.8,848.4],[725.9,838.6],[722.8,843.5],[703.3,835.8],[683.8,828.1],[674.8,820],[665.8,811.9],[702,817],[738.2,822.1],[765.1,802.2],[827.6,782.5],[877.2,793],[882.9,788.3],[905,796.2],[953.1,805],[972.4,805.1],[991,805.4],[982.7,810],[974.4,814.6],[978,822.8],[981.6,831],[985.3,816.1],[1002.9,806],[1038.5,797.1],[1070.4,795.3],[1070.4,795.3],[1094.6,792.7],[1110.7,790],[1134.3,786.3],[1167,777.4],[1195,769.4],[1196.7,768.8],[1196.4,758.6],[1199.8,767.4],[1185.2,775],[1170.7,749.6],[1163.9,725],[1157.2,695],[1145.4,683.6],[1124.5,677.4],[1124.5,677.4],[1098.6,664.2],[1099,643.6],[1093.6,632],[1099.3,607.1],[1109.4,573.3],[1084.6,584.4],[1055.8,584.2],[1035.7,589.3],[1004.6,580.8],[973.5,572.3],[949.4,558.7],[925.3,545.1],[919.1,535],[936.1,529.4],[915.3,548.9],[923.3,538],[936,535.9],[948.7,533.8],[981.9,527.9],[1006.3,530.9],[1028.7,546],[1049.2,557.7],[1044.5,571.2],[1044.5,571.2],[1017.1,557.4],[1023.1,527.4],[1023.1,527.4],[1022,519.5],[1022,519.5],[993.4,515.3],[993.4,515.3],[963.6,505.2],[963.6,505.2],[925.7,502],[925.7,502],[950,476.8],[945.2,463.8],[909.6,447.4],[894.9,418.5],[879.7,412.4],[877.9,428.3],[866.9,432.6],[892.1,449.9],[915.8,458.3],[954.6,459.1],[926.2,461.8],[948.4,448.2],[981.8,445.9],[990.4,467.2],[984.8,474.6],[981.2,495],[979.6,506.6],[985.1,503],[982.3,521.4],[978.4,528.7],[981,555.4],[934.6,608],[921.8,653.3],[921.8,653.3],[912,691.3],[920.7,710.9],[914,695.5],[898.4,711.8],[852.2,719.3],[828.8,721.7],[804.7,735.1],[778.7,750.3],[780.2,743.7],[760.2,730.6],[774.2,715.5],[783.9,732.7],[820.7,742.5],[856.1,721.5],[913.9,718.2],[903.5,687.9],[883.5,657.2],[879.3,621.5],[875.1,585.8],[873.3,563.9],[843.6,541.1],[845.6,523.4],[820.5,513.1],[789.5,503.2],[750.2,485.4],[802.4,491.6],[802.4,491.6]]","[0,0.3527331528]","[0.3527331528,0.3527331528]","[-0.3527331528,0]","[-0.3527331528,-0.3527331528]","[0,0]","[0.3527331528,0]","[0,-0.3527331528]","[0.3527331528,-0.3527331528]",0,1,1,1,1,3,Tablet,5,5,13,7
