inst1_resp.keys,inst1_resp.rt,calibrationMouse.x,calibrationMouse.y,calibrationMouse.leftButton,calibrationMouse.midButton,calibrationMouse.rightButton,calibrationClick.x,calibrationClick.y,calibrationClick.leftButton,calibrationClick.midButton,calibrationClick.rightButton,trialsc.thisRepN,trialsc.thisTrialN,trialsc.thisN,trialsc.thisIndex,trialsc.ran,calibration_x,calibration_y,participant,session,date,expName,psychopyVersion,OS,frameRate,ScreenRes_pixels,Camera_pixels,mouse_2.x,mouse_2.y,mouse_2.leftButton,mouse_2.midButton,mouse_2.rightButton,mouse_2.time,mouse_2.clicked_name,mouse.x,mouse.y,mouse.leftButton,mouse.midButton,mouse.rightButton,mouse.time,mouse.clicked_name,Choice,Trial,TrialDuration,MOUSE_GAZE,ET_GAZE,ET_GAZE_x_T,time,unixTime,ET_GAZE_NF,Loc_Option1_label,Loc_Option2_label,Loc_Cost_label,Loc_Qual_label,Loc_Option1_cost,Loc_Option2_cost,Loc_Option1_quality,Loc_Option2_quality,trials.thisRepN,trials.thisTrialN,trials.thisN,trials.thisIndex,trials.ran,Block,Device,cost1,qual1,cost2,qual2
space,1.365,0.078125,-0.218518519,1,0,0,0.082291667,-0.133333333,1,0,0,0,0,0,3,1,-0.67,0.33,11,001,2024-12-06_11h59.59.538,Attention_exp_legacy,2023.1.0,Win32,60.24096386,,,,,,,,,,,,,,,,,,,,,,,,,,,,,,,,,,,,,,,,,,,,
,,,,,,,0.079166667,-0.116666667,1,0,0,0,1,1,16,1,0.33,0,11,001,2024-12-06_11h59.59.538,Attention_exp_legacy,2023.1.0,Win32,60.24096386,,,,,,,,,,,,,,,,,,,,,,,,,,,,,,,,,,,,,,,,,,,,
,,,,,,,0.079166667,-0.116666667,1,0,0,0,2,2,13,1,0,0.67,11,001,2024-12-06_11h59.59.538,Attention_exp_legacy,2023.1.0,Win32,60.24096386,,,,,,,,,,,,,,,,,,,,,,,,,,,,,,,,,,,,,,,,,,,,
,,,,,,,0.079166667,-0.116666667,1,0,0,0,3,3,8,1,-0.33,0.67,11,001,2024-12-06_11h59.59.538,Attention_exp_legacy,2023.1.0,Win32,60.24096386,,,,,,,,,,,,,,,,,,,,,,,,,,,,,,,,,,,,,,,,,,,,
,,,,,,,0.079166667,-0.116666667,1,0,0,0,4,4,18,1,0.33,0.67,11,001,2024-12-06_11h59.59.538,Attention_exp_legacy,2023.1.0,Win32,60.24096386,,,,,,,,,,,,,,,,,,,,,,,,,,,,,,,,,,,,,,,,,,,,
,,,,,,,0.079166667,-0.116666667,1,0,0,0,5,5,11,1,0,0,11,001,2024-12-06_11h59.59.538,Attention_exp_legacy,2023.1.0,Win32,60.24096386,,,,,,,,,,,,,,,,,,,,,,,,,,,,,,,,,,,,,,,,,,,,
,,,,,,,0.079166667,-0.116666667,1,0,0,0,6,6,12,1,0,0.33,11,001,2024-12-06_11h59.59.538,Attention_exp_legacy,2023.1.0,Win32,60.24096386,,,,,,,,,,,,,,,,,,,,,,,,,,,,,,,,,,,,,,,,,,,,
,,,,,,,0.079166667,-0.116666667,1,0,0,0,7,7,5,1,-0.33,-0.33,11,001,2024-12-06_11h59.59.538,Attention_exp_legacy,2023.1.0,Win32,60.24096386,,,,,,,,,,,,,,,,,,,,,,,,,,,,,,,,,,,,,,,,,,,,
,,,,,,,0.079166667,-0.116666667,1,0,0,0,8,8,19,1,0.67,0.67,11,001,2024-12-06_11h59.59.538,Attention_exp_legacy,2023.1.0,Win32,60.24096386,,,,,,,,,,,,,,,,,,,,,,,,,,,,,,,,,,,,,,,,,,,,
,,,,,,,0.079166667,-0.116666667,1,0,0,0,9,9,2,1,-0.67,0,11,001,2024-12-06_11h59.59.538,Attention_exp_legacy,2023.1.0,Win32,60.24096386,,,,,,,,,,,,,,,,,,,,,,,,,,,,,,,,,,,,,,,,,,,,
,,,,,,,0.079166667,-0.116666667,1,0,0,0,10,10,6,1,-0.33,0,11,001,2024-12-06_11h59.59.538,Attention_exp_legacy,2023.1.0,Win32,60.24096386,,,,,,,,,,,,,,,,,,,,,,,,,,,,,,,,,,,,,,,,,,,,
,,,,,,,0.079166667,-0.116666667,1,0,0,0,11,11,17,1,0.33,0.33,11,001,2024-12-06_11h59.59.538,Attention_exp_legacy,2023.1.0,Win32,60.24096386,,,,,,,,,,,,,,,,,,,,,,,,,,,,,,,,,,,,,,,,,,,,
,,,,,,,0.079166667,-0.116666667,1,0,0,0,12,12,15,1,0.33,-0.33,11,001,2024-12-06_11h59.59.538,Attention_exp_legacy,2023.1.0,Win32,60.24096386,,,,,,,,,,,,,,,,,,,,,,,,,,,,,,,,,,,,,,,,,,,,
,,,,,,,0.079166667,-0.116666667,1,0,0,0,13,13,14,1,0.33,-0.67,11,001,2024-12-06_11h59.59.538,Attention_exp_legacy,2023.1.0,Win32,60.24096386,,,,,,,,,,,,,,,,,,,,,,,,,,,,,,,,,,,,,,,,,,,,
,,,,,,,0.079166667,-0.116666667,1,0,0,0,14,14,7,1,-0.33,0.33,11,001,2024-12-06_11h59.59.538,Attention_exp_legacy,2023.1.0,Win32,60.24096386,,,,,,,,,,,,,,,,,,,,,,,,,,,,,,,,,,,,,,,,,,,,
,,,,,,,0.079166667,-0.116666667,1,0,0,0,15,15,0,1,-0.67,-0.67,11,001,2024-12-06_11h59.59.538,Attention_exp_legacy,2023.1.0,Win32,60.24096386,,,,,,,,,,,,,,,,,,,,,,,,,,,,,,,,,,,,,,,,,,,,
,,,,,,,0.079166667,-0.116666667,1,0,0,0,16,16,4,1,-0.33,-0.67,11,001,2024-12-06_11h59.59.538,Attention_exp_legacy,2023.1.0,Win32,60.24096386,,,,,,,,,,,,,,,,,,,,,,,,,,,,,,,,,,,,,,,,,,,,
,,,,,,,0.079166667,-0.116666667,1,0,0,0,17,17,9,1,0,-0.67,11,001,2024-12-06_11h59.59.538,Attention_exp_legacy,2023.1.0,Win32,60.24096386,,,,,,,,,,,,,,,,,,,,,,,,,,,,,,,,,,,,,,,,,,,,
,,,,,,,0.079166667,-0.116666667,1,0,0,0,18,18,20,1,0.67,-0.67,11,001,2024-12-06_11h59.59.538,Attention_exp_legacy,2023.1.0,Win32,60.24096386,,,,,,,,,,,,,,,,,,,,,,,,,,,,,,,,,,,,,,,,,,,,
,,,,,,,0.079166667,-0.116666667,1,0,0,0,19,19,1,1,-0.67,-0.33,11,001,2024-12-06_11h59.59.538,Attention_exp_legacy,2023.1.0,Win32,60.24096386,,,,,,,,,,,,,,,,,,,,,,,,,,,,,,,,,,,,,,,,,,,,
,,,,,,,0.079166667,-0.116666667,1,0,0,0,20,20,10,1,0,-0.33,11,001,2024-12-06_11h59.59.538,Attention_exp_legacy,2023.1.0,Win32,60.24096386,,,,,,,,,,,,,,,,,,,,,,,,,,,,,,,,,,,,,,,,,,,,
,,,,,,,,,,,,,,,,,,,11,001,2024-12-06_11h59.59.538,Attention_exp_legacy,2023.1.0,Win32,60.24096386,"[1920,1080]","[640,480]",[-0.07083333333333333],[-0.5074074074074074],[1],[0],[0],[7.9825999999940365],"[""StartButton""]",[0.3958333333333333],[0.3814814814814815],[1],[0],[0],[8.373399999991065],"[""Option2_label""]",Option2_label,1,9.3829,"[[0.035416666666666666,-0.31666666666666665],[0.035416666666666666,-0.31666666666666665],[0.035416666666666666,-0.31666666666666665],[0.035416666666666666,-0.31666666666666665],[0.035416666666666666,-0.31666666666666665],[0.035416666666666666,-0.31666666666666665],[0.035416666666666666,-0.31666666666666665],[0.035416666666666666,-0.31666666666666665],[0.035416666666666666,-0.31666666666666665],[0.035416666666666666,-0.31666666666666665],[0.035416666666666666,-0.31666666666666665],[0.035416666666666666,-0.31666666666666665],[0.035416666666666666,-0.31666666666666665],[0.035416666666666666,-0.31666666666666665],[0.035416666666666666,-0.31666666666666665],[0.035416666666666666,-0.31666666666666665],[0.035416666666666666,-0.31666666666666665],[0.035416666666666666,-0.31666666666666665],[0.035416666666666666,-0.31666666666666665],[0.035416666666666666,-0.31666666666666665],[0.035416666666666666,-0.31666666666666665],[0.035416666666666666,-0.31666666666666665],[0.035416666666666666,-0.31666666666666665],[0.035416666666666666,-0.31666666666666665],[0.035416666666666666,-0.31666666666666665],[0.035416666666666666,-0.31666666666666665],[0.035416666666666666,-0.31666666666666665],[0.035416666666666666,-0.31666666666666665],[0.035416666666666666,-0.31666666666666665],[0.035416666666666666,-0.31666666666666665],[0.035416666666666666,-0.31666666666666665],[0.034375,-0.31666666666666665],[0.034375,-0.3148148148148148],[0.034375,-0.3148148148148148],[0.035416666666666666,-0.31296296296296294],[0.036458333333333336,-0.30925925925925923],[0.036458333333333336,-0.30925925925925923],[0.036458333333333336,-0.30925925925925923],[0.036458333333333336,-0.3037037037037037],[0.0375,-0.30185185185185187],[0.0375,-0.29074074074074074],[0.0375,-0.2833333333333333],[0.0375,-0.24444444444444444],[0.0375,-0.1425925925925926],[0.034375,-0.06296296296296296],[0.029166666666666667,-0.014814814814814815],[0.029166666666666667,0.10185185185185185],[0.029166666666666667,0.18703703703703703],[0.029166666666666667,0.2537037037037037],[0.030208333333333334,0.29814814814814816],[0.035416666666666666,0.34444444444444444],[0.03958333333333333,0.362962962962963],[0.040625,0.3648148148148148],[0.041666666666666664,0.37407407407407406],[0.042708333333333334,0.37592592592592594],[0.042708333333333334,0.37592592592592594],[0.04583333333333333,0.37592592592592594],[0.04791666666666667,0.37592592592592594],[0.05,0.37592592592592594],[0.05625,0.37592592592592594],[0.06354166666666666,0.37592592592592594],[0.07291666666666667,0.37407407407407406],[0.08645833333333333,0.3685185185185185],[0.10625,0.3592592592592593],[0.13020833333333334,0.35185185185185186],[0.159375,0.34444444444444444],[0.21354166666666666,0.3296296296296296],[0.25625,0.31851851851851853],[0.296875,0.30925925925925923],[0.33541666666666664,0.29444444444444445],[0.375,0.2851851851851852],[0.4125,0.2759259259259259],[0.4322916666666667,0.27037037037037037],[0.4395833333333333,0.26666666666666666],[0.4427083333333333,0.26296296296296295],[0.44375,0.2611111111111111],[0.44375,0.2611111111111111],[0.44479166666666664,0.2611111111111111],[0.44479166666666664,0.2611111111111111],[0.44479166666666664,0.2611111111111111],[0.44479166666666664,0.2611111111111111],[0.44479166666666664,0.2611111111111111],[0.44479166666666664,0.2611111111111111],[0.44479166666666664,0.2611111111111111],[0.44479166666666664,0.2611111111111111],[0.44479166666666664,0.2611111111111111],[0.44479166666666664,0.2611111111111111],[0.44479166666666664,0.2611111111111111],[0.44479166666666664,0.2611111111111111],[0.44479166666666664,0.2611111111111111],[0.4395833333333333,0.2611111111111111],[0.4197916666666667,0.2611111111111111],[0.403125,0.2611111111111111],[0.39375,0.2611111111111111],[0.3802083333333333,0.2611111111111111],[0.37083333333333335,0.2611111111111111],[0.3625,0.2611111111111111],[0.353125,0.2611111111111111],[0.3458333333333333,0.2611111111111111],[0.3385416666666667,0.2611111111111111],[0.33125,0.2611111111111111],[0.328125,0.2611111111111111],[0.325,0.2611111111111111],[0.32395833333333335,0.2611111111111111],[0.321875,0.2611111111111111],[0.31979166666666664,0.2611111111111111],[0.3177083333333333,0.2611111111111111],[0.3145833333333333,0.2611111111111111],[0.3125,0.25925925925925924],[0.3104166666666667,0.25555555555555554],[0.3072916666666667,0.2518518518518518],[0.30520833333333336,0.25],[0.3020833333333333,0.2462962962962963],[0.3,0.24444444444444444],[0.29791666666666666,0.24074074074074073],[0.29583333333333334,0.2388888888888889],[0.2947916666666667,0.23703703703703705],[0.29270833333333335,0.23333333333333334],[0.29270833333333335,0.23333333333333334],[0.2916666666666667,0.23333333333333334],[0.28958333333333336,0.22962962962962963],[0.28958333333333336,0.22962962962962963],[0.28854166666666664,0.22962962962962963],[0.28854166666666664,0.22962962962962963],[0.28854166666666664,0.22962962962962963],[0.28854166666666664,0.22962962962962963],[0.28854166666666664,0.22962962962962963],[0.2875,0.22962962962962963],[0.2875,0.22962962962962963],[0.2864583333333333,0.22777777777777777],[0.28541666666666665,0.22777777777777777],[0.28541666666666665,0.22777777777777777],[0.28541666666666665,0.22777777777777777],[0.284375,0.22777777777777777],[0.284375,0.22777777777777777],[0.284375,0.22777777777777777],[0.284375,0.22777777777777777],[0.284375,0.22777777777777777],[0.284375,0.22777777777777777],[0.284375,0.22777777777777777],[0.284375,0.22777777777777777],[0.284375,0.22777777777777777],[0.284375,0.22777777777777777],[0.284375,0.22777777777777777],[0.284375,0.22777777777777777],[0.2833333333333333,0.22592592592592592],[0.2833333333333333,0.22592592592592592],[0.28229166666666666,0.22592592592592592],[0.28229166666666666,0.22592592592592592],[0.28229166666666666,0.22592592592592592],[0.28229166666666666,0.22592592592592592],[0.28229166666666666,0.22592592592592592],[0.28229166666666666,0.22592592592592592],[0.28229166666666666,0.22592592592592592],[0.28229166666666666,0.22592592592592592],[0.28229166666666666,0.22592592592592592],[0.28229166666666666,0.22592592592592592],[0.28229166666666666,0.22592592592592592],[0.28229166666666666,0.22592592592592592],[0.28229166666666666,0.22592592592592592],[0.28229166666666666,0.22592592592592592],[0.28229166666666666,0.22592592592592592],[0.28229166666666666,0.22592592592592592],[0.28229166666666666,0.22592592592592592],[0.28229166666666666,0.22592592592592592],[0.28229166666666666,0.22592592592592592],[0.28229166666666666,0.22592592592592592],[0.28229166666666666,0.22592592592592592],[0.28229166666666666,0.22592592592592592],[0.28229166666666666,0.22592592592592592],[0.28229166666666666,0.22592592592592592],[0.28229166666666666,0.22592592592592592],[0.28229166666666666,0.22592592592592592],[0.28229166666666666,0.22592592592592592],[0.28229166666666666,0.22592592592592592],[0.28229166666666666,0.22592592592592592],[0.28229166666666666,0.22592592592592592],[0.28229166666666666,0.22592592592592592],[0.28229166666666666,0.22592592592592592],[0.28229166666666666,0.22592592592592592],[0.28229166666666666,0.22592592592592592],[0.28229166666666666,0.22592592592592592],[0.28229166666666666,0.22592592592592592],[0.28229166666666666,0.22592592592592592],[0.28229166666666666,0.22592592592592592],[0.28229166666666666,0.22592592592592592],[0.28229166666666666,0.22592592592592592],[0.28229166666666666,0.22592592592592592],[0.28229166666666666,0.22592592592592592],[0.28229166666666666,0.22592592592592592],[0.28229166666666666,0.22592592592592592],[0.28229166666666666,0.22592592592592592],[0.28229166666666666,0.22592592592592592],[0.28229166666666666,0.22592592592592592],[0.28229166666666666,0.22592592592592592],[0.28229166666666666,0.22592592592592592],[0.28229166666666666,0.22592592592592592],[0.28229166666666666,0.22592592592592592],[0.28229166666666666,0.22592592592592592],[0.28229166666666666,0.22592592592592592],[0.28229166666666666,0.22592592592592592],[0.28229166666666666,0.22592592592592592],[0.28229166666666666,0.22592592592592592],[0.28229166666666666,0.22592592592592592],[0.28229166666666666,0.22592592592592592],[0.28229166666666666,0.22592592592592592],[0.28229166666666666,0.22592592592592592],[0.28229166666666666,0.22592592592592592],[0.28229166666666666,0.22592592592592592],[0.28229166666666666,0.22592592592592592],[0.28229166666666666,0.22592592592592592],[0.28229166666666666,0.22592592592592592],[0.28229166666666666,0.22592592592592592],[0.28229166666666666,0.22592592592592592],[0.28229166666666666,0.22592592592592592],[0.28229166666666666,0.22592592592592592],[0.28229166666666666,0.22592592592592592],[0.28229166666666666,0.22592592592592592],[0.28229166666666666,0.22592592592592592],[0.28229166666666666,0.22592592592592592],[0.28229166666666666,0.22592592592592592],[0.28125,0.2222222222222222],[0.28125,0.21851851851851853],[0.28125,0.21481481481481482],[0.28020833333333334,0.21481481481481482],[0.28020833333333334,0.21296296296296297],[0.28020833333333334,0.21296296296296297],[0.28020833333333334,0.2074074074074074],[0.28020833333333334,0.20555555555555555],[0.28020833333333334,0.20555555555555555],[0.28020833333333334,0.20555555555555555],[0.28020833333333334,0.2037037037037037],[0.2791666666666667,0.20185185185185187],[0.2791666666666667,0.20185185185185187],[0.2791666666666667,0.20185185185185187],[0.2791666666666667,0.20185185185185187],[0.2791666666666667,0.2],[0.2791666666666667,0.2],[0.278125,0.19814814814814816],[0.27708333333333335,0.19444444444444445],[0.2760416666666667,0.1925925925925926],[0.275,0.18888888888888888],[0.27395833333333336,0.18703703703703703],[0.27291666666666664,0.18333333333333332],[0.271875,0.18333333333333332],[0.26979166666666665,0.17777777777777778],[0.26979166666666665,0.17777777777777778],[0.26875,0.17592592592592593],[0.26875,0.17592592592592593],[0.26875,0.17592592592592593],[0.26875,0.17592592592592593],[0.26875,0.17592592592592593],[0.26875,0.17592592592592593],[0.26875,0.17592592592592593],[0.26875,0.17592592592592593],[0.26875,0.17592592592592593],[0.26875,0.17592592592592593],[0.26875,0.17592592592592593],[0.26875,0.17592592592592593],[0.26875,0.17592592592592593],[0.26875,0.17592592592592593],[0.26875,0.17592592592592593],[0.26875,0.17592592592592593],[0.26875,0.17777777777777778],[0.26875,0.17777777777777778],[0.26875,0.17777777777777778],[0.26875,0.17777777777777778],[0.26875,0.17962962962962964],[0.26875,0.17962962962962964],[0.26875,0.17962962962962964],[0.26875,0.17962962962962964],[0.26875,0.17962962962962964],[0.26875,0.17962962962962964],[0.2677083333333333,0.17962962962962964],[0.265625,0.17962962962962964],[0.259375,0.17592592592592593],[0.25625,0.1685185185185185],[0.25,0.15925925925925927],[0.24583333333333332,0.15185185185185185],[0.23854166666666668,0.1388888888888889],[0.234375,0.13148148148148148],[0.23229166666666667,0.12777777777777777],[0.23125,0.12222222222222222],[0.23125,0.12222222222222222],[0.23125,0.12222222222222222],[0.23125,0.12222222222222222],[0.23125,0.12222222222222222],[0.23125,0.12222222222222222],[0.23125,0.12222222222222222],[0.23125,0.12222222222222222],[0.23125,0.12222222222222222],[0.23125,0.12222222222222222],[0.23125,0.12222222222222222],[0.23125,0.12222222222222222],[0.23020833333333332,0.12037037037037036],[0.22916666666666666,0.11851851851851852],[0.225,0.11666666666666667],[0.21979166666666666,0.11296296296296296],[0.21458333333333332,0.10925925925925926],[0.209375,0.10555555555555556],[0.20729166666666668,0.10555555555555556],[0.20520833333333333,0.10555555555555556],[0.203125,0.10555555555555556],[0.20208333333333334,0.10555555555555556],[0.20208333333333334,0.10555555555555556],[0.20104166666666667,0.10555555555555556],[0.2,0.10555555555555556],[0.19895833333333332,0.10555555555555556],[0.196875,0.10555555555555556],[0.19375,0.10555555555555556],[0.190625,0.10555555555555556],[0.1875,0.1037037037037037],[0.18333333333333332,0.10185185185185185],[0.18020833333333333,0.09814814814814815],[0.17604166666666668,0.0962962962962963],[0.16875,0.08703703703703704],[0.16666666666666666,0.08703703703703704],[0.16354166666666667,0.08148148148148149],[0.159375,0.07592592592592592],[0.15729166666666666,0.07592592592592592],[0.15625,0.07407407407407407],[0.15625,0.07407407407407407],[0.15625,0.07407407407407407],[0.15625,0.07407407407407407],[0.15625,0.07407407407407407],[0.15625,0.07407407407407407],[0.15625,0.07407407407407407],[0.15625,0.07407407407407407],[0.15625,0.07407407407407407],[0.15625,0.07407407407407407],[0.15625,0.07407407407407407],[0.15520833333333334,0.07592592592592592],[0.15520833333333334,0.08148148148148149],[0.153125,0.08703703703703704],[0.15208333333333332,0.08888888888888889],[0.15208333333333332,0.09259259259259259],[0.15208333333333332,0.09259259259259259],[0.15,0.09444444444444444],[0.15,0.0962962962962963],[0.15,0.09814814814814815],[0.15,0.1],[0.15,0.1],[0.15,0.10185185185185185],[0.15,0.10555555555555556],[0.15,0.10740740740740741],[0.15,0.10925925925925926],[0.15,0.11296296296296296],[0.15,0.11666666666666667],[0.15208333333333332,0.12222222222222222],[0.15520833333333334,0.12962962962962962],[0.15833333333333333,0.13333333333333333],[0.159375,0.1388888888888889],[0.16041666666666668,0.14444444444444443],[0.1625,0.1537037037037037],[0.16354166666666667,0.1574074074074074],[0.16354166666666667,0.15925925925925927],[0.16354166666666667,0.16111111111111112],[0.16354166666666667,0.16111111111111112],[0.16354166666666667,0.16111111111111112],[0.16354166666666667,0.16111111111111112],[0.16354166666666667,0.16111111111111112],[0.16354166666666667,0.16111111111111112],[0.16354166666666667,0.16111111111111112],[0.16354166666666667,0.16111111111111112],[0.16354166666666667,0.16111111111111112],[0.16145833333333334,0.16111111111111112],[0.15729166666666666,0.16111111111111112],[0.15,0.1537037037037037],[0.14166666666666666,0.1425925925925926],[0.13333333333333333,0.13148148148148148],[0.11875,0.11296296296296296],[0.10416666666666667,0.0962962962962963],[0.08645833333333333,0.07962962962962963],[0.06354166666666666,0.06111111111111111],[0.04479166666666667,0.05],[0.030208333333333334,0.04259259259259259],[0.016666666666666666,0.037037037037037035],[0.00625,0.037037037037037035],[-0.0020833333333333333,0.037037037037037035],[-0.015625,0.037037037037037035],[-0.03229166666666667,0.037037037037037035],[-0.053125,0.037037037037037035],[-0.07604166666666666,0.03518518518518519],[-0.09895833333333333,0.027777777777777776],[-0.11770833333333333,0.024074074074074074],[-0.12291666666666666,0.022222222222222223],[-0.125,0.020370370370370372],[-0.12604166666666666,0.018518518518518517],[-0.128125,0.016666666666666666],[-0.128125,0.016666666666666666],[-0.128125,0.016666666666666666],[-0.128125,0.016666666666666666],[-0.128125,0.016666666666666666],[-0.12604166666666666,0.012962962962962963],[-0.08333333333333333,-0.007407407407407408],[-0.0625,-0.020370370370370372],[0.0020833333333333333,-0.05],[0.027083333333333334,-0.06111111111111111],[0.05416666666666667,-0.07037037037037037],[0.07395833333333333,-0.08333333333333333],[0.08958333333333333,-0.09259259259259259],[0.090625,-0.09259259259259259],[0.09375,-0.0962962962962963],[0.09375,-0.1037037037037037],[0.09375,-0.11851851851851852],[0.09375,-0.13518518518518519],[0.09166666666666666,-0.16666666666666666],[0.084375,-0.20925925925925926],[0.07291666666666667,-0.25555555555555554],[0.05416666666666667,-0.31666666666666665],[0.040625,-0.3537037037037037],[0.029166666666666667,-0.3814814814814815],[0.021875,-0.39444444444444443],[0.00625,-0.4185185185185185],[-0.0010416666666666667,-0.42592592592592593],[-0.005208333333333333,-0.43148148148148147],[-0.007291666666666667,-0.43333333333333335],[-0.011458333333333333,-0.4351851851851852],[-0.015625,-0.43703703703703706],[-0.017708333333333333,-0.44074074074074077],[-0.021875,-0.4444444444444444],[-0.026041666666666668,-0.44814814814814813],[-0.030208333333333334,-0.4537037037037037],[-0.03229166666666667,-0.4537037037037037],[-0.034375,-0.4537037037037037],[-0.035416666666666666,-0.45740740740740743],[-0.035416666666666666,-0.45740740740740743],[-0.035416666666666666,-0.45740740740740743],[-0.035416666666666666,-0.45740740740740743],[-0.035416666666666666,-0.45740740740740743],[-0.035416666666666666,-0.45740740740740743],[-0.035416666666666666,-0.45740740740740743],[-0.035416666666666666,-0.45740740740740743],[-0.035416666666666666,-0.45740740740740743],[-0.035416666666666666,-0.45740740740740743],[-0.035416666666666666,-0.45740740740740743],[-0.035416666666666666,-0.45740740740740743],[-0.035416666666666666,-0.45740740740740743],[-0.035416666666666666,-0.45740740740740743],[-0.035416666666666666,-0.45740740740740743],[-0.034375,-0.45740740740740743],[-0.03333333333333333,-0.45740740740740743],[-0.026041666666666668,-0.44814814814814813],[-0.0125,-0.4388888888888889],[0.01875,-0.4203703703703704],[0.03333333333333333,-0.4111111111111111],[0.0875,-0.38333333333333336],[0.21145833333333333,-0.3296296296296296],[0.24791666666666667,-0.30925925925925923],[0.353125,-0.2518518518518518],[0.403125,-0.21666666666666667],[0.4510416666666667,-0.16111111111111112],[0.47291666666666665,-0.11481481481481481],[0.48333333333333334,-0.07592592592592592],[0.48854166666666665,-0.04259259259259259],[0.4895833333333333,-0.011111111111111112],[0.4895833333333333,0.014814814814814815],[0.4895833333333333,0.037037037037037035],[0.4895833333333333,0.053703703703703705],[0.4875,0.06481481481481481],[0.48541666666666666,0.07592592592592592],[0.4822916666666667,0.10185185185185185],[0.47604166666666664,0.12407407407407407],[0.46979166666666666,0.14629629629629629],[0.46458333333333335,0.16666666666666666],[0.45729166666666665,0.19814814814814816],[0.4479166666666667,0.2351851851851852],[0.43854166666666666,0.27037037037037037],[0.43020833333333336,0.30925925925925923],[0.425,0.3351851851851852],[0.41770833333333335,0.3648148148148148],[0.41458333333333336,0.37962962962962965],[0.41458333333333336,0.3851851851851852],[0.4114583333333333,0.3925925925925926],[0.4114583333333333,0.39444444444444443],[0.4114583333333333,0.39444444444444443],[0.409375,0.39444444444444443],[0.40729166666666666,0.39444444444444443],[0.403125,0.39444444444444443],[0.40208333333333335,0.3907407407407407],[0.4,0.3907407407407407],[0.39895833333333336,0.3907407407407407],[0.39791666666666664,0.3888888888888889],[0.39791666666666664,0.3888888888888889],[0.39791666666666664,0.3888888888888889],[0.39791666666666664,0.3888888888888889],[0.39791666666666664,0.3888888888888889],[0.39791666666666664,0.3888888888888889],[0.396875,0.387037037037037],[0.396875,0.3851851851851852],[0.3958333333333333,0.3851851851851852],[0.3958333333333333,0.3851851851851852],[0.3958333333333333,0.38333333333333336],[0.3958333333333333,0.38333333333333336],[0.3958333333333333,0.38333333333333336],[0.3958333333333333,0.38333333333333336],[0.3958333333333333,0.38333333333333336],[0.3958333333333333,0.3814814814814815],[0.3958333333333333,0.3814814814814815],[0.3958333333333333,0.3814814814814815],[0.3958333333333333,0.3814814814814815],[0.3958333333333333,0.3814814814814815],[0.3958333333333333,0.3814814814814815],[0.3958333333333333,0.3814814814814815],[0.3958333333333333,0.3814814814814815],[0.3958333333333333,0.3814814814814815],[0.3958333333333333,0.3814814814814815],[0.3958333333333333,0.3814814814814815],[0.3958333333333333,0.3814814814814815],[0.3958333333333333,0.3814814814814815],[0.3958333333333333,0.3814814814814815],[0.3958333333333333,0.3814814814814815],[0.3958333333333333,0.3814814814814815],[0.3958333333333333,0.3814814814814815],[0.3958333333333333,0.3814814814814815],[0.3958333333333333,0.3814814814814815],[0.3958333333333333,0.3814814814814815],[0.39479166666666665,0.3814814814814815],[0.39375,0.37962962962962965],[0.3927083333333333,0.37962962962962965],[0.3885416666666667,0.37592592592592594],[0.3885416666666667,0.37407407407407406],[0.3854166666666667,0.37222222222222223],[0.38333333333333336,0.37037037037037035],[0.38125,0.3685185185185185],[0.38125,0.3685185185185185],[0.38125,0.3685185185185185],[0.38125,0.3685185185185185],[0.38125,0.3685185185185185],[0.38125,0.3685185185185185],[0.38125,0.3685185185185185],[0.3802083333333333,0.3685185185185185],[0.37916666666666665,0.3685185185185185],[0.37916666666666665,0.3685185185185185],[0.378125,0.3685185185185185],[0.378125,0.3685185185185185],[0.3770833333333333,0.3685185185185185],[0.37604166666666666,0.3685185185185185],[0.37604166666666666,0.3685185185185185],[0.37604166666666666,0.3685185185185185],[0.37604166666666666,0.3685185185185185],[0.37604166666666666,0.3685185185185185],[0.37604166666666666,0.3685185185185185],[0.37604166666666666,0.3685185185185185],[0.375,0.3685185185185185],[0.375,0.3685185185185185],[0.375,0.3685185185185185],[0.37395833333333334,0.3685185185185185],[0.37395833333333334,0.3685185185185185],[0.37395833333333334,0.3685185185185185],[0.37395833333333334,0.3685185185185185],[0.37395833333333334,0.3685185185185185],[0.37395833333333334,0.3685185185185185],[0.37395833333333334,0.3685185185185185],[0.37395833333333334,0.3685185185185185],[0.37395833333333334,0.3685185185185185],[0.3729166666666667,0.3685185185185185],[0.3697916666666667,0.36666666666666664],[0.36666666666666664,0.3388888888888889],[0.3645833333333333,0.3074074074074074],[0.3645833333333333,0.26666666666666666]]","[[0.042604166666666644,0.2462962962962963],[0.042604166666666644,0.2462962962962963],[0.03739583333333331,0.23703703703703705],[0.035312499999999976,0.23277777777777786],[0.035312499999999976,0.23277777777777786],[0.036562500000000026,0.22888888888888892],[0.03333333333333333,0.21777777777777782],[0.030104166666666644,0.20666666666666672],[0.03187500000000002,0.21129629629629634],[0.02666666666666669,0.21296296296296297],[0.01895833333333338,0.2124074074074075],[0.011249999999999953,0.21185185185185182],[0.008124999999999953,0.22351851851851862],[0.01260416666666669,0.23074074074074077],[0.01583333333333338,0.2242592592592593],[0.010000000000000024,0.21796296296296305],[0.007187499999999976,0.22111111111111106],[0.008229166666666643,0.23074074074074077],[0.008229166666666643,0.23074074074074077],[0.009791666666666643,0.23185185185185195],[0.01229166666666662,0.2361111111111111],[0.01229166666666662,0.2361111111111111],[0.014583333333333334,0.24277777777777781],[0.014583333333333334,0.24277777777777781],[0.014583333333333334,0.24277777777777781],[0.014583333333333334,0.24277777777777781],[0.022291666666666644,0.25333333333333324],[0.022291666666666644,0.25333333333333324],[0.0328125,0.22740740740740734],[0.0328125,0.22740740740740734],[0.03343750000000002,0.21148148148148158],[0.03343750000000002,0.21148148148148158],[0.03187500000000002,0.22148148148148153],[0.03187500000000002,0.22148148148148153],[0.03781249999999995,0.21962962962962967],[0.03781249999999995,0.21962962962962967],[0.043020833333333286,0.22481481481481477],[0.043020833333333286,0.22481481481481477],[0.04208333333333331,0.2300000000000001],[0.04208333333333331,0.2300000000000001],[0.04656250000000005,0.22407407407407406],[0.04656250000000005,0.22407407407407406],[0.04802083333333336,0.2198148148148149],[0.04802083333333336,0.2198148148148149],[0.049479166666666664,0.22111111111111106],[0.049479166666666664,0.22111111111111106],[0.050312499999999954,0.21666666666666667],[0.04583333333333333,0.222037037037037],[0.04781249999999997,0.21944444444444444],[0.04500000000000005,0.2044444444444444],[0.042812500000000024,0.16944444444444445],[0.04750000000000002,0.1624074074074075],[0.04750000000000002,0.1624074074074075],[0.05447916666666662,0.14888888888888885],[0.04739583333333333,0.12925925925925918],[0.044479166666666715,0.08851851851851844],[0.04500000000000005,0.052037037037037076],[0.04500000000000005,0.052037037037037076],[0.042604166666666644,0.019259259259259216],[0.05010416666666669,0.041111111111111195],[0.05552083333333328,0.062407407407407495],[0.057604166666666616,0.034074074074074034],[0.05281250000000005,0.04685185185185177],[0.041875000000000044,0.0257407407407407],[0.03677083333333329,-0.0455555555555556],[0.04104166666666664,-0.09833333333333337],[0.050520833333333334,-0.1096296296296296],[0.05927083333333331,-0.13388888888888892],[0.05927083333333331,-0.13388888888888892],[0.06614583333333333,-0.15999999999999995],[0.059791666666666646,-0.23499999999999996],[0.0626041666666667,-0.2512962962962963],[0.0626041666666667,-0.2512962962962963],[0.07364583333333338,-0.23166666666666672],[0.09739583333333333,-0.27092592592592596],[0.11937499999999991,-0.3074074074074074],[0.13531250000000009,-0.3111111111111111],[0.15260416666666668,-0.29740740740740745],[0.18479166666666677,-0.2994444444444444],[0.1875,-0.2777777777777778],[0.19020833333333323,-0.2561111111111111],[0.19020833333333323,-0.2561111111111111],[0.20812499999999995,-0.22833333333333336],[0.20885416666666667,-0.2711111111111111],[0.20958333333333337,-0.3138888888888889],[0.20958333333333337,-0.3138888888888889],[0.2243750000000001,-0.29907407407407405],[0.24927083333333327,-0.29074074074074074],[0.24927083333333327,-0.29074074074074074],[0.2400000000000001,-0.24166666666666667],[0.21666666666666667,-0.1757407407407407],[0.21614583333333334,-0.17555555555555558],[0.21614583333333334,-0.17555555555555558],[0.2015625,-0.16944444444444445],[0.2015625,-0.16944444444444445],[0.225,-0.1764814814814815],[0.2384375000000001,-0.167037037037037],[0.2601041666666667,-0.15851851851851856],[0.2601041666666667,-0.15851851851851856],[0.27062499999999995,-0.11462962962962958],[0.25833333333333336,-0.08555555555555554],[0.25833333333333336,-0.08555555555555554],[0.25729166666666664,-0.0948148148148148],[0.26239583333333344,-0.1007407407407407],[0.2846874999999999,-0.13481481481481483],[0.25927083333333345,-0.1259259259259259],[0.27791666666666665,-0.13555555555555554],[0.2585416666666667,-0.13203703703703706],[0.23624999999999996,-0.13333333333333333],[0.20541666666666672,-0.10314814814814813],[0.1857291666666666,-0.10833333333333334],[0.17635416666666662,-0.11888888888888886],[0.1443749999999999,-0.07555555555555557],[0.18260416666666662,-0.11888888888888886],[0.215625,-0.16962962962962966],[0.22697916666666676,-0.1766666666666666],[0.2326041666666666,-0.17185185185185187],[0.2326041666666666,-0.17185185185185187],[0.2578125,-0.18666666666666668],[0.2640625,-0.17462962962962966],[0.23635416666666675,-0.14648148148148152],[0.23635416666666675,-0.14648148148148152],[0.19197916666666662,-0.10407407407407405],[0.1915625000000001,-0.10055555555555558],[0.2009375000000001,-0.12222222222222222],[0.14958333333333323,-0.06518518518518517],[0.10166666666666657,-0.01592592592592597],[0.07895833333333328,0.006851851851851936],[0.07895833333333328,0.006851851851851936],[0.06083333333333331,0.027777777777777776],[0.04791666666666667,0.05592592592592601],[0.04791666666666667,0.05592592592592601],[0.041979166666666616,0.06277777777777774],[0.07395833333333333,0.06148148148148157],[0.13677083333333329,-0.00592592592592601],[0.15947916666666656,-0.03611111111111111],[0.16124999999999995,-0.039074074074074115],[0.16124999999999995,-0.039074074074074115],[0.19000000000000009,-0.08481481481481483],[0.20447916666666663,-0.11740740740740736],[0.2289583333333333,-0.15388888888888894],[0.25458333333333344,-0.20037037037037034],[0.25458333333333344,-0.20037037037037034],[0.27218749999999997,-0.2646296296296296],[0.25281250000000005,-0.2757407407407407],[0.23781249999999995,-0.31351851851851853],[0.23781249999999995,-0.31351851851851853],[0.24677083333333344,-0.3151851851851852],[0.2439583333333334,-0.31351851851851853],[0.2553124999999999,-0.32685185185185184],[0.2445833333333333,-0.30759259259259264],[0.24468750000000009,-0.29370370370370374],[0.21479166666666671,-0.24870370370370373],[0.21479166666666671,-0.24870370370370373],[0.20520833333333333,-0.23185185185185184],[0.18677083333333327,-0.19018518518518515],[0.22197916666666656,-0.20981481481481484],[0.253125,-0.22962962962962963],[0.24614583333333329,-0.2337037037037037],[0.2287499999999999,-0.21203703703703702],[0.19927083333333329,-0.17777777777777778],[0.17229166666666676,-0.14777777777777779],[0.17229166666666676,-0.14777777777777779],[0.1453125,-0.11777777777777781],[0.14812500000000003,-0.12685185185185185],[0.12156250000000005,-0.09685185185185187],[0.12156250000000005,-0.09685185185185187],[0.11760416666666676,-0.08814814814814818],[0.09135416666666671,-0.05388888888888893],[0.07249999999999991,-0.019999999999999917],[0.04104166666666664,0.031111111111111027],[0.04104166666666664,0.031111111111111027],[0.018333333333333358,0.06648148148148143],[0.0234375,0.06185185185185181],[0.043958333333333384,0.05611111111111103],[0.06697916666666662,0.04722222222222222],[0.0818749999999999,0.04222222222222214],[0.0818749999999999,0.04222222222222214],[0.10583333333333324,0.02629629629629638],[0.0896874999999999,0.044444444444444446],[0.0978125000000001,0.031111111111111027],[0.10458333333333343,0.01592592592592597],[0.12395833333333334,-0.01648148148148144],[0.14583333333333334,-0.044999999999999915],[0.15197916666666675,-0.04611111111111107],[0.15395833333333328,-0.04666666666666675],[0.15343749999999995,-0.04407407407407399],[0.15041666666666675,-0.03740740740740749],[0.14364583333333342,-0.036481481481481566],[0.14645833333333325,-0.04296296296296305],[0.1508333333333333,-0.05129629629629638],[0.15416666666666667,-0.06629629629629631],[0.15416666666666667,-0.06629629629629631],[0.15416666666666667,-0.0742592592592593],[0.15583333333333324,-0.09037037037037039],[0.15750000000000006,-0.10648148148148148],[0.16083333333333344,-0.12092592592592595],[0.16083333333333344,-0.12092592592592595],[0.16416666666666657,-0.13537037037037042],[0.16114583333333338,-0.1522222222222222],[0.16635416666666672,-0.1661111111111111],[0.16635416666666672,-0.1661111111111111],[0.1681250000000001,-0.17962962962962964],[0.16635416666666672,-0.1853703703703704],[0.16708333333333342,-0.1772222222222222],[0.16833333333333325,-0.18351851851851855],[0.15270833333333325,-0.1794444444444444],[0.1390625,-0.16740740740740737],[0.12385416666666677,-0.16074074074074077],[0.10895833333333324,-0.15611111111111114],[0.10166666666666657,-0.1492592592592593],[0.08989583333333329,-0.13962962962962958],[0.08510416666666672,-0.1368518518518518],[0.07718749999999991,-0.1359259259259259],[0.06458333333333334,-0.13129629629629624],[0.05479166666666669,-0.11925925925925922],[0.06270833333333338,-0.11685185185185189],[0.0625,-0.12407407407407407],[0.0625,-0.12407407407407407],[0.06375000000000004,-0.1366666666666667],[0.06989583333333324,-0.14351851851851852],[0.07479166666666662,-0.15018518518518523],[0.0865624999999999,-0.15314814814814812],[0.0865624999999999,-0.15314814814814812],[0.09395833333333338,-0.13518518518518519],[0.10885416666666667,-0.12981481481481486],[0.10885416666666667,-0.12981481481481486],[0.0990624999999999,-0.10907407407407403],[0.08833333333333329,-0.08370370370370368],[0.08833333333333329,-0.08370370370370368],[0.09052083333333343,-0.08277777777777776],[0.09885416666666676,-0.05537037037037033],[0.10572916666666667,-0.022592592592592678],[0.10572916666666667,-0.022592592592592678],[0.1087500000000001,-0.005185185185185101],[0.10927083333333343,0.011296296296296339],[0.1099999999999999,0.016851851851851896],[0.12083333333333333,-0.004259259259259175],[0.12104166666666671,-0.01907407407407399],[0.1460416666666667,-0.06129629629629634],[0.1460416666666667,-0.06129629629629634],[0.1658333333333334,-0.08444444444444449],[0.1658333333333334,-0.08444444444444449],[0.1650000000000001,-0.07666666666666662],[0.1650000000000001,-0.07666666666666662],[0.1728125000000001,-0.08129629629629626],[0.17864583333333334,-0.08629629629629634],[0.18312499999999995,-0.07685185185185185],[0.18312499999999995,-0.07685185185185185],[0.19958333333333325,-0.09092592592592597],[0.19958333333333325,-0.09092592592592597],[0.21416666666666656,-0.11277777777777774],[0.20510416666666675,-0.09944444444444442],[0.20958333333333337,-0.07037037037037037],[0.21479166666666671,-0.05092592592592592],[0.21916666666666676,-0.04000000000000004],[0.22604166666666667,-0.032037037037036954],[0.2271874999999999,-0.03592592592592588],[0.2303124999999999,-0.03944444444444436],[0.23364583333333327,-0.04944444444444453],[0.21916666666666676,-0.05018518518518523],[0.19947916666666668,-0.03592592592592588],[0.19947916666666668,-0.03592592592592588],[0.19135416666666671,-0.04351851851851852],[0.17708333333333334,-0.04518518518518514],[0.15416666666666667,-0.030555555555555555],[0.1609375,-0.03222222222222218],[0.16770833333333332,-0.0338888888888888],[0.15093750000000009,-0.032407407407407406],[0.13468749999999996,-0.027037037037037078],[0.1287499999999999,-0.03759259259259251],[0.13114583333333343,-0.03296296296296288],[0.11749999999999995,-0.004444444444444402],[0.1109375,0.023333333333333376],[0.11489583333333328,0.02629629629629638],[0.12729166666666672,0.03222222222222218],[0.11697916666666662,0.03925925925925934],[0.10072916666666672,0.04222222222222214],[0.10510416666666676,0.04148148148148144],[0.10760416666666663,0.03611111111111111],[0.10843749999999991,0.03611111111111111],[0.11614583333333334,0.03092592592592601],[0.14968750000000006,-0.01055555555555564],[0.17895833333333327,-0.05240740740740743],[0.1794791666666666,-0.05703703703703706],[0.1834374999999999,-0.0727777777777778],[0.1742708333333333,-0.06944444444444445],[0.1710416666666667,-0.062037037037037036],[0.17833333333333337,-0.07185185185185188],[0.18697916666666667,-0.0809259259259259],[0.17552083333333332,-0.06666666666666667],[0.15489583333333337,-0.04592592592592584],[0.15489583333333337,-0.04592592592592584],[0.1490624999999999,-0.02962962962962963],[0.1368750000000001,0],[0.13114583333333343,0.01444444444444436],[0.12281250000000009,0.029814814814814856],[0.12281250000000009,0.029814814814814856],[0.13416666666666663,0.02370370370370362],[0.13812499999999991,0.010740740740740657],[0.13427083333333342,0.012962962962962963],[0.13166666666666677,0.018703703703703747],[0.13166666666666677,0.018703703703703747],[0.1466666666666666,0.004629629629629629],[0.16531250000000006,-0.005000000000000084],[0.15125000000000005,0.007592592592592635],[0.15010416666666657,-0.004259259259259175],[0.15958333333333338,-0.026851851851851852],[0.16802083333333329,-0.04759259259259268],[0.16802083333333329,-0.04759259259259268],[0.1703125,-0.06388888888888888],[0.17802083333333343,-0.08259259259259263],[0.17572916666666671,-0.0868518518518518],[0.18010416666666676,-0.09722222222222222],[0.18093750000000006,-0.10851851851851856],[0.18041666666666673,-0.1255555555555556],[0.18041666666666673,-0.1255555555555556],[0.1865624999999999,-0.1440740740740741],[0.18583333333333343,-0.15629629629629627],[0.1851041666666667,-0.1685185185185185],[0.1837500000000001,-0.16222222222222227],[0.1837500000000001,-0.16222222222222227],[0.18197916666666672,-0.16314814814814818],[0.1790625000000001,-0.14444444444444443],[0.17718749999999991,-0.13537037037037042],[0.16218750000000004,-0.1081481481481481],[0.14635416666666667,-0.06518518518518517],[0.13072916666666667,-0.03537037037037041],[0.12489583333333343,-0.027777777777777776],[0.11239583333333343,0.0012962962962963806],[0.09989583333333343,0.03037037037037033],[0.08885416666666662,0.04314814814814806],[0.08885416666666662,0.04314814814814806],[0.08677083333333328,0.04592592592592584],[0.09239583333333339,0.028518518518518478],[0.09916666666666671,0.01796296296296305],[0.11729166666666657,-0.009814814814814731],[0.11729166666666657,-0.009814814814814731],[0.12708333333333333,-0.04055555555555551],[0.1304166666666667,-0.034444444444444486],[0.12197916666666657,-0.006481481481481481],[0.12197916666666657,-0.006481481481481481],[0.13166666666666677,-0.02370370370370362],[0.14593749999999991,-0.04518518518518514],[0.15635416666666657,-0.05703703703703706],[0.140625,-0.03296296296296288],[0.1203125,0.013518518518518435],[0.10552083333333329,0.015555555555555513],[0.0990624999999999,0.014629629629629588],[0.09500000000000004,0],[0.09645833333333324,-0.027407407407407325],[0.09645833333333324,-0.027407407407407325],[0.10083333333333329,-0.04203703703703712],[0.09541666666666657,-0.007592592592592635],[0.08541666666666667,0.031111111111111027],[0.08447916666666658,0.02092592592592584],[0.09604166666666672,0.014259259259259343],[0.09604166666666672,0.014259259259259343],[0.10739583333333323,-0.005370370370370328],[0.11260416666666657,0.020370370370370372],[0.10010416666666658,0.069074074074074],[0.09489583333333323,0.12777777777777777],[0.08239583333333324,0.18129629629629626],[0.07395833333333333,0.22074074074074082],[0.06385416666666661,0.2153703703703703],[0.06385416666666661,0.2153703703703703],[0.06687500000000005,0.1838888888888888],[0.06687500000000005,0.1838888888888888],[0.0640625,0.20500000000000007],[0.0640625,0.20500000000000007],[0.0609375,0.2024074074074073],[0.05802083333333338,0.20018518518518522],[0.06302083333333333,0.19203703703703712],[0.06583333333333338,0.16574074074074074],[0.06583333333333338,0.16574074074074074],[0.06531250000000005,0.14203703703703713],[0.07770833333333324,0.10314814814814824],[0.09677083333333343,0.03166666666666671],[0.11041666666666666,-0.009259259259259259],[0.1109375,-0.024074074074074074],[0.1046875,-0.02370370370370362],[0.1046875,-0.02370370370370362],[0.11479166666666671,-0.0544444444444444],[0.10677083333333333,-0.050370370370370454],[0.10427083333333324,-0.07018518518518514],[0.10718750000000009,-0.09018518518518516],[0.10718750000000009,-0.09018518518518516],[0.11135416666666677,-0.11166666666666669],[0.09968750000000005,-0.10777777777777775],[0.08291666666666657,-0.07333333333333338],[0.07197916666666657,-0.046296296296296294],[0.07197916666666657,-0.046296296296296294],[0.06104166666666669,-0.019259259259259216],[0.044166666666666646,0.002962962962963005],[0.034166666666666616,0.0257407407407407],[0.036562500000000026,0.03740740740740749],[0.03125,0.06833333333333329],[0.03125,0.06833333333333329],[0.035104166666666714,0.08629629629629634],[0.03270833333333331,0.1081481481481481],[0.04041666666666662,0.12814814814814823],[0.04041666666666662,0.12814814814814823],[0.043437500000000046,0.1411111111111112],[0.042812500000000024,0.15018518518518523],[0.036249999999999956,0.1411111111111112],[0.05520833333333333,0.12481481481481477],[0.051041666666666666,0.15259259259259256],[0.051041666666666666,0.15259259259259256],[0.05260416666666667,0.1566666666666667],[0.06322916666666671,0.152962962962963],[0.06416666666666669,0.15500000000000008],[0.07010416666666662,0.15462962962962962],[0.07010416666666662,0.15462962962962962],[0.06791666666666671,0.14833333333333337],[0.05916666666666662,0.15759259259259265],[0.05687500000000002,0.17888888888888893],[0.05687500000000002,0.17888888888888893],[0.05010416666666669,0.20277777777777778],[0.035520833333333356,0.22074074074074082],[0.025833333333333285,0.22462962962962954],[0.01552083333333331,0.22888888888888892],[-0.002708333333333357,0.22629629629629638],[-0.017083333333333308,0.23759259259259252],[-0.017083333333333308,0.23759259259259252],[-0.04072916666666669,0.26666666666666666],[-0.03999999999999997,0.27925925925925915],[-0.03999999999999997,0.27925925925925915],[-0.04135416666666671,0.2972222222222222],[-0.0359375,0.2890740740740741],[-0.021458333333333357,0.30055555555555546],[-0.028750000000000022,0.2946296296296297],[-0.034687499999999954,0.2946296296296297],[-0.03677083333333329,0.28851851851851845],[-0.03999999999999997,0.297037037037037],[-0.04697916666666669,0.2972222222222222],[-0.04468749999999998,0.2796296296296296],[-0.05406249999999998,0.280925925925926],[-0.052291666666666715,0.26592592592592595],[-0.06104166666666669,0.2566666666666667],[-0.0751041666666667,0.24592592592592585],[-0.05947916666666669,0.24370370370370376],[-0.05947916666666669,0.24370370370370376],[-0.04822916666666662,0.24740740740740744],[-0.044062499999999956,0.26296296296296295],[-0.03885416666666662,0.2733333333333334],[-0.03885416666666662,0.2733333333333334],[-0.0359375,0.2935185185185185],[-0.03125,0.3177777777777778],[-0.030312500000000023,0.3314814814814815],[-0.01552083333333331,0.33722222222222226],[-0.004791666666666691,0.36148148148148157],[0.012395833333333309,0.3822222222222222],[0.0068750000000000235,0.4103703703703704],[0.05406249999999998,0.38851851851851843],[0.09854166666666657,0.35611111111111104],[0.14197916666666663,0.32888888888888895],[0.14197916666666663,0.32888888888888895],[0.18979166666666672,0.29555555555555557],[0.1993750000000001,0.28462962962962973],[0.22468750000000004,0.2594444444444445],[0.22468750000000004,0.2594444444444445],[0.19989583333333344,0.27388888888888885],[0.19927083333333329,0.2625925925925925],[0.19885416666666675,0.2522222222222223],[0.24208333333333343,0.2014814814814814],[0.20677083333333332,0.20759259259259263],[0.1962500000000001,0.21351851851851844],[0.2,0.19185185185185188],[0.1837500000000001,0.1824074074074074],[0.2169791666666666,0.13537037037037042],[0.23447916666666657,0.10259259259259255],[0.2860416666666666,0.04314814814814806],[0.2860416666666666,0.04314814814814806],[0.28760416666666655,0.039629629629629584],[0.32802083333333343,-0.0011111111111111532],[0.32802083333333343,-0.0011111111111111532],[0.3229166666666667,0.009999999999999959],[0.3229166666666667,0.009999999999999959],[0.3646874999999999,-0.018333333333333292],[0.34187500000000004,-0.03555555555555564],[0.3325000000000001,-0.036666666666666584],[0.34375,-0.04740740740740745],[0.34562499999999996,-0.06444444444444447],[0.3478125000000001,-0.08259259259259263],[0.34656250000000005,-0.10259259259259255],[0.37604166666666666,-0.15796296296296297],[0.37604166666666666,-0.15796296296296297],[0.3609375,-0.15037037037037035],[0.36447916666666674,-0.18611111111111112],[0.35052083333333334,-0.2140740740740741],[0.38562500000000005,-0.23870370370370367],[0.37770833333333326,-0.2207407407407407],[0.36749999999999994,-0.2074074074074074],[0.35750000000000004,-0.21296296296296297],[0.3484375,-0.21796296296296294],[0.35281250000000003,-0.21740740740740735],[0.3571875000000001,-0.2168518518518519],[0.3494791666666667,-0.24981481481481477],[0.3497916666666666,-0.26222222222222225],[0.34958333333333325,-0.2616666666666667],[0.3352083333333333,-0.2603703703703704],[0.3368750000000001,-0.28777777777777774],[0.3368750000000001,-0.28777777777777774],[0.35739583333333325,-0.32018518518518513],[0.3538541666666667,-0.28648148148148145],[0.3490624999999999,-0.2522222222222222],[0.33541666666666664,-0.25629629629629624],[0.3319791666666667,-0.2662962962962963],[0.35666666666666674,-0.24444444444444444],[0.36697916666666663,-0.22037037037037038],[0.35354166666666675,-0.17962962962962964],[0.3544791666666666,-0.15259259259259256],[0.3544791666666666,-0.15259259259259256],[0.3559375000000001,-0.14888888888888885],[0.33572916666666663,-0.11777777777777781],[0.33135416666666656,-0.12222222222222222],[0.32625000000000004,-0.12129629629629629],[0.32625000000000004,-0.12129629629629629],[0.3328125,-0.11703703703703702],[0.33791666666666675,-0.12037037037037036],[0.33270833333333344,-0.14777777777777779],[0.33270833333333344,-0.14777777777777779],[0.32010416666666663,-0.1551851851851852],[0.33125,-0.17925925925925928],[0.3394791666666668,-0.18981481481481483],[0.3472916666666668,-0.2051851851851852],[0.3489583333333333,-0.21962962962962967],[0.3489583333333333,-0.21962962962962967],[0.3508333333333333,-0.2270370370370371],[0.35208333333333336,-0.24074074074074073],[0.34697916666666656,-0.23018518518518521],[0.3336458333333333,-0.2088888888888889],[0.3263541666666666,-0.1940740740740741],[0.3264583333333334,-0.1992592592592593],[0.31614583333333335,-0.18203703703703705],[0.2976041666666667,-0.17222222222222222],[0.2782291666666666,-0.1366666666666667],[0.2678124999999999,-0.12444444444444443],[0.25625,-0.10574074074074079],[0.24572916666666675,-0.08592592592592588],[0.24791666666666667,-0.0824074074074074],[0.23718750000000005,-0.050370370370370454],[0.22041666666666657,-0.01185185185185181],[0.22072916666666675,-0.004259259259259175],[0.23166666666666677,-0.01703703703703712],[0.25458333333333344,-0.04981481481481477],[0.28177083333333336,-0.09018518518518516],[0.3089583333333332,-0.13055555555555556],[0.34187500000000004,-0.18203703703703705],[0.3757291666666667,-0.2331481481481481],[0.3868750000000001,-0.23592592592592587],[0.4118750000000001,-0.2651851851851852],[0.43072916666666666,-0.3103703703703704],[0.43083333333333323,-0.32166666666666666],[0.4176041666666668,-0.30888888888888894],[0.4006249999999999,-0.27907407407407403],[0.3946875000000001,-0.2551851851851852],[0.3870833333333332,-0.24814814814814815],[0.3851041666666667,-0.24370370370370376],[0.38645833333333335,-0.24648148148148152],[0.3793750000000001,-0.257962962962963]]","[[0.042604166666666644,0.2462962962962963,0.00029999999701857405],[0.042604166666666644,0.2462962962962963,0.03459999999403607],[0.03739583333333331,0.23703703703703705,0.04520000000297841],[0.035312499999999976,0.23277777777777786,0.061899999991055665],[0.035312499999999976,0.23277777777777786,0.07870000000297495],[0.036562500000000026,0.22888888888888892,0.09520000000297557],[0.03333333333333333,0.21777777777777782,0.11189999999105993],[0.030104166666666644,0.20666666666666672,0.13100000000000023],[0.03187500000000002,0.21129629629629634,0.14649999999999608],[0.02666666666666669,0.21296296296296297,0.16449999999999676],[0.01895833333333338,0.2124074074074075,0.1802999999970183],[0.011249999999999953,0.21185185185185182,0.195200000002977],[0.008124999999999953,0.22351851851851862,0.21379999999701482],[0.01260416666666669,0.23074074074074077,0.22859999999403868],[0.01583333333333338,0.2242592592592593,0.24889999999106038],[0.010000000000000024,0.21796296296296305,0.26439999999105623],[0.007187499999999976,0.22111111111111106,0.2833999999910546],[0.008229166666666643,0.23074074074074077,0.29859999999403897],[0.008229166666666643,0.23074074074074077,0.31189999999105567],[0.009791666666666643,0.23185185185185195,0.3285999999940401],[0.01229166666666662,0.2361111111111111,0.3653999999910553],[0.01229166666666662,0.2361111111111111,0.37259999999403703],[0.014583333333333334,0.24277777777777781,0.395799999997017],[0.014583333333333334,0.24277777777777781,0.4042000000029802],[0.014583333333333334,0.24277777777777781,0.4118999999910571],[0.014583333333333334,0.24277777777777781,0.42949999999999733],[0.022291666666666644,0.25333333333333324,0.46399999999999864],[0.022291666666666644,0.25333333333333324,0.4712999999970151],[0.0328125,0.22740740740740734,0.497700000002979],[0.0328125,0.22740740740740734,0.5050999999940373],[0.03343750000000002,0.21148148148148158,0.5317000000029779],[0.03343750000000002,0.21148148148148158,0.5473999999910575],[0.03187500000000002,0.22148148148148153,0.5642999999970186],[0.03187500000000002,0.22148148148148153,0.5715000000000003],[0.03781249999999995,0.21962962962962967,0.6007999999970153],[0.03781249999999995,0.21962962962962967,0.607899999991055],[0.043020833333333286,0.22481481481481477,0.6308999999910583],[0.043020833333333286,0.22481481481481477,0.6385000000000005],[0.04208333333333331,0.2300000000000001,0.6665999999940411],[0.04208333333333331,0.2300000000000001,0.6767999999970158],[0.04656250000000005,0.22407407407407406,0.6987999999970214],[0.04656250000000005,0.22407407407407406,0.7077999999970146],[0.04802083333333336,0.2198148148148149,0.7332000000029808],[0.04802083333333336,0.2198148148148149,0.7542999999970164],[0.049479166666666664,0.22111111111111106,0.7688999999910564],[0.049479166666666664,0.22111111111111106,0.780799999997015],[0.050312499999999954,0.21666666666666667,0.7972999999970156],[0.04583333333333333,0.222037037037037,0.8120999999940395],[0.04781249999999997,0.21944444444444444,0.8307000000029774],[0.04500000000000005,0.2044444444444444,0.8475999999940385],[0.042812500000000024,0.16944444444444445,0.8663999999910601],[0.04750000000000002,0.1624074074074075,0.8822000000029817],[0.04750000000000002,0.1624074074074075,0.8953999999910565],[0.05447916666666662,0.14888888888888885,0.91429999999702],[0.04739583333333333,0.12925925925925918,0.9294999999999973],[0.044479166666666715,0.08851851851851844,0.945200000002977],[0.04500000000000005,0.052037037037037076,0.9650999999940382],[0.04500000000000005,0.052037037037037076,0.9788999999910573],[0.042604166666666644,0.019259259259259216,0.9953999999910579],[0.05010416666666669,0.041111111111111195,1.0120999999940352],[0.05552083333333328,0.062407407407407495,1.0328999999910593],[0.057604166666666616,0.034074074074074034,1.0483999999910552],[0.05281250000000005,0.04685185185185177,1.0622000000029814],[0.041875000000000044,0.0257407407407407,1.082499999999996],[0.03677083333333329,-0.0455555555555556,1.0967000000029756],[0.04104166666666664,-0.09833333333333337,1.1120999999940366],[0.050520833333333334,-0.1096296296296296,1.131200000002977],[0.05927083333333331,-0.13388888888888892,1.146599999994038],[0.05927083333333331,-0.13388888888888892,1.162099999994041],[0.06614583333333333,-0.15999999999999995,1.1794999999999973],[0.059791666666666646,-0.23499999999999996,1.1992999999970166],[0.0626041666666667,-0.2512962962962963,1.2147999999970196],[0.0626041666666667,-0.2512962962962963,1.2287000000029806],[0.07364583333333338,-0.23166666666666672,1.247700000002979],[0.09739583333333333,-0.27092592592592596,1.2620999999940352],[0.11937499999999991,-0.3074074074074074,1.2788999999910544],[0.13531250000000009,-0.3111111111111111,1.297099999994039],[0.15260416666666668,-0.29740740740740745,1.3159999999999954],[0.18479166666666677,-0.2994444444444444,1.3307999999970193],[0.1875,-0.2777777777777778,1.3475999999940385],[0.19020833333333323,-0.2561111111111111,1.3672000000029811],[0.19020833333333323,-0.2561111111111111,1.3788999999910558],[0.20812499999999995,-0.22833333333333336,1.3953999999910565],[0.20885416666666667,-0.2711111111111111,1.411899999991057],[0.20958333333333337,-0.3138888888888889,1.4284999999999997],[0.20958333333333337,-0.3138888888888889,1.4452999999970189],[0.2243750000000001,-0.29907407407407405,1.4618999999910542],[0.24927083333333327,-0.29074074074074074,1.4787000000029806],[0.24927083333333327,-0.29074074074074074,1.4952000000029813],[0.2400000000000001,-0.24166666666666667,1.5120000000000005],[0.21666666666666667,-0.1757407407407407,1.534599999994036],[0.21614583333333334,-0.17555555555555558,1.5620999999940395],[0.21614583333333334,-0.17555555555555558,1.5790000000000006],[0.2015625,-0.16944444444444445,1.5977000000029804],[0.2015625,-0.16944444444444445,1.6122000000029786],[0.225,-0.1764814814814815,1.628799999997021],[0.2384375000000001,-0.167037037037037,1.6485999999940404],[0.2601041666666667,-0.15851851851851856,1.6642000000029782],[0.2601041666666667,-0.15851851851851856,1.6787999999970182],[0.27062499999999995,-0.11462962962962958,1.6954999999999956],[0.25833333333333336,-0.08555555555555554,1.7152999999970149],[0.25833333333333336,-0.08555555555555554,1.7287000000029806],[0.25729166666666664,-0.0948148148148148,1.7454999999999998],[0.26239583333333344,-0.1007407407407407,1.7622000000029772],[0.2846874999999999,-0.13481481481481483,1.7830000000000013],[0.25927083333333345,-0.1259259259259259,1.7973999999910575],[0.27791666666666665,-0.13555555555555554,1.8122000000029814],[0.2585416666666667,-0.13203703703703706,1.830999999999996],[0.23624999999999996,-0.13333333333333333,1.8474999999999966],[0.20541666666666672,-0.10314814814814813,1.8662999999970182],[0.1857291666666666,-0.10833333333333334,1.8844999999999956],[0.17635416666666662,-0.11888888888888886,1.8977000000029776],[0.1443749999999999,-0.07555555555555557,1.913599999994041],[0.18260416666666662,-0.11888888888888886,1.9287000000029764],[0.215625,-0.16962962962962966,1.9499999999999957],[0.22697916666666676,-0.1766666666666666,1.9639999999999986],[0.2326041666666666,-0.17185185185185187,1.9803999999910573],[0.2326041666666666,-0.17185185185185187,1.9953999999910579],[0.2578125,-0.18666666666666668,2.0118999999910585],[0.2640625,-0.17462962962962966,2.033099999994036],[0.23635416666666675,-0.14648148148148152,2.0489999999999995],[0.23635416666666675,-0.14648148148148152,2.0618999999910557],[0.19197916666666662,-0.10407407407407405,2.081799999997017],[0.1915625000000001,-0.10055555555555558,2.0968999999910594],[0.2009375000000001,-0.12222222222222222,2.1150999999940368],[0.14958333333333323,-0.06518518518518517,2.130499999999998],[0.10166666666666657,-0.01592592592592597,2.14520000000298],[0.07895833333333328,0.006851851851851936,2.167499999999997],[0.07895833333333328,0.006851851851851936,2.1787000000029764],[0.06083333333333331,0.027777777777777776,2.195299999997019],[0.04791666666666667,0.05592592592592601,2.2149999999999963],[0.04791666666666667,0.05592592592592601,2.228499999999997],[0.041979166666666616,0.06277777777777774,2.245299999997016],[0.07395833333333333,0.06148148148148157,2.264499999999998],[0.13677083333333329,-0.00592592592592601,2.283799999997015],[0.15947916666666656,-0.03611111111111111,2.2979999999999947],[0.16124999999999995,-0.039074074074074115,2.3128999999910604],[0.16124999999999995,-0.039074074074074115,2.32859999999404],[0.19000000000000009,-0.08481481481481483,2.3452000000029756],[0.20447916666666663,-0.11740740740740736,2.36189999999106],[0.2289583333333333,-0.15388888888888894,2.381200000002977],[0.25458333333333344,-0.20037037037037034,2.3962000000029775],[0.25458333333333344,-0.20037037037037034,2.411899999991057],[0.27218749999999997,-0.2646296296296296,2.4284999999999997],[0.25281250000000005,-0.2757407407407407,2.445299999997019],[0.23781249999999995,-0.31351851851851853,2.465899999991059],[0.23781249999999995,-0.31351851851851853,2.4787000000029806],[0.24677083333333344,-0.3151851851851852,2.495399999991058],[0.2439583333333334,-0.31351851851851853,2.5118999999910585],[0.2553124999999999,-0.32685185185185184,2.528500000000001],[0.2445833333333333,-0.30759259259259264,2.5473999999910575],[0.24468750000000009,-0.29370370370370374,2.5619999999999976],[0.21479166666666671,-0.24870370370370373,2.583399999991059],[0.21479166666666671,-0.24870370370370373,2.5952999999970174],[0.20520833333333333,-0.23185185185185184,2.61189999999106],[0.18677083333333327,-0.19018518518518515,2.631899999991056],[0.22197916666666656,-0.20981481481481484,2.647299999997017],[0.253125,-0.22962962962962963,2.6625000000000014],[0.24614583333333329,-0.2337037037037037,2.6792999999970206],[0.2287499999999999,-0.21203703703703702,2.695200000002977],[0.19927083333333329,-0.17777777777777778,2.714399999991059],[0.17229166666666676,-0.14777777777777779,2.7295999999940364],[0.17229166666666676,-0.14777777777777779,2.7452000000029813],[0.1453125,-0.11777777777777781,2.7618999999910585],[0.14812500000000003,-0.12685185185185185,2.779299999997015],[0.12156250000000005,-0.09685185185185187,2.798399999991055],[0.12156250000000005,-0.09685185185185187,2.8118999999910557],[0.11760416666666676,-0.08814814814814818,2.8284999999999982],[0.09135416666666671,-0.05388888888888893,2.8452000000029756],[0.07249999999999991,-0.019999999999999917,2.86189999999106],[0.04104166666666664,0.031111111111111027,2.881999999999998],[0.04104166666666664,0.031111111111111027,2.89520000000298],[0.018333333333333358,0.06648148148148143,2.911899999991057],[0.0234375,0.06185185185185181,2.9284999999999997],[0.043958333333333384,0.05611111111111103,2.945299999997019],[0.06697916666666662,0.04722222222222222,2.9633999999910543],[0.0818749999999999,0.04222222222222214,2.979899999991055],[0.0818749999999999,0.04222222222222214,2.9952000000029813],[0.10583333333333324,0.02629629629629638,3.0118999999910585],[0.0896874999999999,0.044444444444444446,3.028599999994036],[0.0978125000000001,0.031111111111111027,3.047799999997018],[0.10458333333333343,0.01592592592592597,3.0622000000029814],[0.12395833333333334,-0.01648148148148144,3.082499999999996],[0.14583333333333334,-0.044999999999999915,3.097999999999999],[0.15197916666666675,-0.04611111111111107,3.116599999994037],[0.15395833333333328,-0.04666666666666675,3.131799999997021],[0.15343749999999995,-0.04407407407407399,3.1453999999910565],[0.15041666666666675,-0.03740740740740749,3.161799999997015],[0.14364583333333342,-0.036481481481481566,3.1785999999940344],[0.14645833333333325,-0.04296296296296305,3.195099999994035],[0.1508333333333333,-0.05129629629629638,3.214299999997017],[0.15416666666666667,-0.06629629629629631,3.2285999999940387],[0.15416666666666667,-0.06629629629629631,3.245299999997016],[0.15416666666666667,-0.0742592592592593,3.2620000000000005],[0.15583333333333324,-0.09037037037037039,3.2818999999910545],[0.15750000000000006,-0.10648148148148148,3.2980999999940366],[0.16083333333333344,-0.12092592592592595,3.3135999999940395],[0.16083333333333344,-0.12092592592592595,3.3284999999999982],[0.16416666666666657,-0.13537037037037042,3.3452999999970174],[0.16114583333333338,-0.1522222222222222,3.3619999999999948],[0.16635416666666672,-0.1661111111111111,3.381299999997019],[0.16635416666666672,-0.1661111111111111,3.39520000000298],[0.1681250000000001,-0.17962962962962964,3.411899999991057],[0.16635416666666672,-0.1853703703703704,3.4284999999999997],[0.16708333333333342,-0.1772222222222222,3.445200000002977],[0.16833333333333325,-0.18351851851851855,3.465299999997015],[0.15270833333333325,-0.1794444444444444,3.482099999994041],[0.1390625,-0.16740740740740737,3.4978999999910556],[0.12385416666666677,-0.16074074074074077,3.512299999997019],[0.10895833333333324,-0.15611111111111114,3.528500000000001],[0.10166666666666657,-0.1492592592592593,3.5472999999970156],[0.08989583333333329,-0.13962962962962958,3.5619999999999976],[0.08510416666666672,-0.1368518518518518,3.582399999991054],[0.07718749999999991,-0.1359259259259259,3.596499999999999],[0.06458333333333334,-0.13129629629629624,3.611799999997018],[0.05479166666666669,-0.11925925925925922,3.6307000000029817],[0.06270833333333338,-0.11685185185185189,3.645099999994038],[0.0625,-0.12407407407407407,3.6653999999910596],[0.0625,-0.12407407407407407,3.6785999999940344],[0.06375000000000004,-0.1366666666666667,3.695200000002977],[0.06989583333333324,-0.14351851851851852,3.714299999997017],[0.07479166666666662,-0.15018518518518523,3.7317999999970155],[0.0865624999999999,-0.15314814814814812,3.749200000002979],[0.0865624999999999,-0.15314814814814812,3.7620000000000005],[0.09395833333333338,-0.13518518518518519,3.7790999999940382],[0.10885416666666667,-0.12981481481481486,3.799899999991055],[0.10885416666666667,-0.12981481481481486,3.8119999999999976],[0.0990624999999999,-0.10907407407407403,3.8290999999940354],[0.08833333333333329,-0.08370370370370368,3.8537999999970154],[0.08833333333333329,-0.08370370370370368,3.86189999999106],[0.09052083333333343,-0.08277777777777776,3.878700000002979],[0.09885416666666676,-0.05537037037037033,3.8953999999910565],[0.10572916666666667,-0.022592592592592678,3.91729999999702],[0.10572916666666667,-0.022592592592592678,3.9285999999940344],[0.1087500000000001,-0.005185185185185101,3.945299999997019],[0.10927083333333343,0.011296296296296339,3.9639999999999986],[0.1099999999999999,0.016851851851851896,3.984599999994039],[0.12083333333333333,-0.004259259259259175,3.9989999999999952],[0.12104166666666671,-0.01907407407407399,4.01459999999404],[0.1460416666666667,-0.06129629629629634,4.035599999994041],[0.1460416666666667,-0.06129629629629634,4.045399999991055],[0.1658333333333334,-0.08444444444444449,4.061999999999998],[0.1658333333333334,-0.08444444444444449,4.078799999997017],[0.1650000000000001,-0.07666666666666662,4.101700000002978],[0.1650000000000001,-0.07666666666666662,4.112099999994037],[0.1728125000000001,-0.08129629629629626,4.128799999997021],[0.17864583333333334,-0.08629629629629634,4.14520000000298],[0.18312499999999995,-0.07685185185185185,4.167099999994036],[0.18312499999999995,-0.07685185185185185,4.179099999994037],[0.19958333333333325,-0.09092592592592597,4.198],[0.19958333333333325,-0.09092592592592597,4.211899999991054],[0.21416666666666656,-0.11277777777777774,4.228499999999997],[0.20510416666666675,-0.09944444444444442,4.248299999997016],[0.20958333333333337,-0.07037037037037037,4.2618999999910585],[0.21479166666666671,-0.05092592592592592,4.278599999994036],[0.21916666666666676,-0.04000000000000004,4.29639999999106],[0.22604166666666667,-0.032037037037036954,4.311899999991056],[0.2271874999999999,-0.03592592592592588,4.331099999994038],[0.2303124999999999,-0.03944444444444436,4.345399999991059],[0.23364583333333327,-0.04944444444444453,4.36189999999106],[0.21916666666666676,-0.05018518518518523,4.381299999997019],[0.19947916666666668,-0.03592592592592588,4.39520000000298],[0.19947916666666668,-0.03592592592592588,4.411899999991057],[0.19135416666666671,-0.04351851851851852,4.430499999999995],[0.17708333333333334,-0.04518518518518514,4.445499999999996],[0.15416666666666667,-0.030555555555555555,4.463499999999996],[0.1609375,-0.03222222222222218,4.480099999994039],[0.16770833333333332,-0.0338888888888888,4.497700000002979],[0.15093750000000009,-0.032407407407407406,4.5118999999910585],[0.13468749999999996,-0.027037037037037078,4.528500000000001],[0.1287499999999999,-0.03759259259259251,4.546899999991055],[0.13114583333333343,-0.03296296296296288,4.561899999991056],[0.11749999999999995,-0.004444444444444402,4.57859999999404],[0.1109375,0.023333333333333376,4.597000000000001],[0.11489583333333328,0.02629629629629638,4.612200000002979],[0.12729166666666672,0.03222222222222218,4.630499999999998],[0.11697916666666662,0.03925925925925934,4.64859999999404],[0.10072916666666672,0.04222222222222214,4.663399999991057],[0.10510416666666676,0.04148148148148144,4.680299999997018],[0.10760416666666663,0.03611111111111111,4.700899999991059],[0.10843749999999991,0.03611111111111111,4.715499999999999],[0.11614583333333334,0.03092592592592601,4.72979999999702],[0.14968750000000006,-0.01055555555555564,4.748599999994035],[0.17895833333333327,-0.05240740740740743,4.7618999999910585],[0.1794791666666666,-0.05703703703703706,4.778599999994036],[0.1834374999999999,-0.0727777777777778,4.796499999999995],[0.1742708333333333,-0.06944444444444445,4.811799999997021],[0.1710416666666667,-0.062037037037037036,4.828499999999998],[0.17833333333333337,-0.07185185185185188,4.845200000002976],[0.18697916666666667,-0.0809259259259259,4.861799999997018],[0.17552083333333332,-0.06666666666666667,4.880299999997021],[0.15489583333333337,-0.04592592592592584,4.89520000000298],[0.15489583333333337,-0.04592592592592584,4.911799999997015],[0.1490624999999999,-0.02962962962962963,4.9285],[0.1368750000000001,0,4.9493999999910585],[0.13114583333333343,0.01444444444444436,4.963499999999996],[0.12281250000000009,0.029814814814814856,4.979299999997018],[0.12281250000000009,0.029814814814814856,4.995299999997016],[0.13416666666666663,0.02370370370370362,5.014299999997014],[0.13812499999999991,0.010740740740740657,5.0319999999999965],[0.13427083333333342,0.012962962962962963,5.047200000002981],[0.13166666666666677,0.018703703703703747,5.061999999999998],[0.13166666666666677,0.018703703703703747,5.080799999997019],[0.1466666666666666,0.004629629629629629,5.095399999991059],[0.16531250000000006,-0.005000000000000084,5.11189999999106],[0.15125000000000005,0.007592592592592635,5.131200000002977],[0.15010416666666657,-0.004259259259259175,5.14559999999404],[0.15958333333333338,-0.026851851851851852,5.16429999999702],[0.16802083333333329,-0.04759259259259268,5.185700000002981],[0.16802083333333329,-0.04759259259259268,5.195499999999996],[0.1703125,-0.06388888888888888,5.211999999999996],[0.17802083333333343,-0.08259259259259263,5.228700000002981],[0.17572916666666671,-0.0868518518518518,5.2472999999970185],[0.18010416666666676,-0.09722222222222222,5.2620000000000005],[0.18093750000000006,-0.10851851851851856,5.278999999999996],[0.18041666666666673,-0.1255555555555556,5.299099999994034],[0.18041666666666673,-0.1255555555555556,5.311999999999998],[0.1865624999999999,-0.1440740740740741,5.328799999997017],[0.18583333333333343,-0.15629629629629627,5.345399999991059],[0.1851041666666667,-0.1685185185185185,5.366200000002976],[0.1837500000000001,-0.16222222222222227,5.381999999999998],[0.1837500000000001,-0.16222222222222227,5.39520000000298],[0.18197916666666672,-0.16314814814814818,5.411899999991057],[0.1790625000000001,-0.14444444444444443,5.4285],[0.17718749999999991,-0.13537037037037042,5.445200000002977],[0.16218750000000004,-0.1081481481481481,5.464200000002975],[0.14635416666666667,-0.06518518518518517,5.47979999999702],[0.13072916666666667,-0.03537037037037041,5.4964999999999975],[0.12489583333333343,-0.027777777777777776,5.5118999999910585],[0.11239583333333343,0.0012962962962963806,5.528500000000001],[0.09989583333333343,0.03037037037037033,5.547799999997018],[0.08885416666666662,0.04314814814814806,5.563799999997016],[0.08885416666666662,0.04314814814814806,5.578899999991059],[0.08677083333333328,0.04592592592592584,5.595399999991059],[0.09239583333333339,0.028518518518518478,5.616499999999995],[0.09916666666666671,0.01796296296296305,5.6314999999999955],[0.11729166666666657,-0.009814814814814731,5.646799999997015],[0.11729166666666657,-0.009814814814814731,5.664200000002978],[0.12708333333333333,-0.04055555555555551,5.678799999997018],[0.1304166666666667,-0.034444444444444486,5.695299999997019],[0.12197916666666657,-0.006481481481481481,5.715700000002975],[0.12197916666666657,-0.006481481481481481,5.728499999999997],[0.13166666666666677,-0.02370370370370362,5.7455],[0.14593749999999991,-0.04518518518518514,5.7620000000000005],[0.15635416666666657,-0.05703703703703706,5.783599999994038],[0.140625,-0.03296296296296288,5.797999999999995],[0.1203125,0.013518518518518435,5.813200000002979],[0.10552083333333329,0.015555555555555513,5.832399999991054],[0.0990624999999999,0.014629629629629588,5.848399999991059],[0.09500000000000004,0,5.866499999999995],[0.09645833333333324,-0.027407407407407325,5.8853999999910585],[0.09645833333333324,-0.027407407407407325,5.895299999997015],[0.10083333333333329,-0.04203703703703712,5.911999999999999],[0.09541666666666657,-0.007592592592592635,5.928799999997018],[0.08541666666666667,0.031111111111111027,5.949999999999996],[0.08447916666666658,0.02092592592592584,5.964599999994036],[0.09604166666666672,0.014259259259259343,5.981200000002978],[0.09604166666666672,0.014259259259259343,5.995200000002981],[0.10739583333333323,-0.005370370370370328,6.0118999999910585],[0.11260416666666657,0.020370370370370372,6.028500000000001],[0.10010416666666658,0.069074074074074,6.047499999999999],[0.09489583333333323,0.12777777777777777,6.061799999997021],[0.08239583333333324,0.18129629629629626,6.082599999994038],[0.07395833333333333,0.22074074074074082,6.097999999999999],[0.06385416666666661,0.2153703703703703,6.116799999997021],[0.06385416666666661,0.2153703703703703,6.131099999994035],[0.06687500000000005,0.1838888888888888,6.145299999997015],[0.06687500000000005,0.1838888888888888,6.161999999999999],[0.0640625,0.20500000000000007,6.184200000002981],[0.0640625,0.20500000000000007,6.195299999997019],[0.0609375,0.2024074074074073,6.211999999999996],[0.05802083333333338,0.20018518518518522,6.228700000002981],[0.06302083333333333,0.19203703703703712,6.248200000002981],[0.06583333333333338,0.16574074074074074,6.2635000000000005],[0.06583333333333338,0.16574074074074074,6.278700000002978],[0.06531250000000005,0.14203703703703713,6.29529999999702],[0.07770833333333324,0.10314814814814824,6.3152000000029815],[0.09677083333333343,0.03166666666666671,6.330200000002975],[0.11041666666666666,-0.009259259259259259,6.346700000002976],[0.1109375,-0.024074074074074074,6.366299999997018],[0.1046875,-0.02370370370370362,6.382799999997019],[0.1046875,-0.02370370370370362,6.395299999997015],[0.11479166666666671,-0.0544444444444444,6.411999999999999],[0.10677083333333333,-0.050370370370370454,6.431099999994039],[0.10427083333333324,-0.07018518518518514,6.450299999997021],[0.10718750000000009,-0.09018518518518516,6.465099999994038],[0.10718750000000009,-0.09018518518518516,6.483599999994034],[0.11135416666666677,-0.11166666666666669,6.495299999997016],[0.09968750000000005,-0.10777777777777775,6.512200000002977],[0.08291666666666657,-0.07333333333333338,6.5318999999910545],[0.07197916666666657,-0.046296296296296294,6.548399999991055],[0.07197916666666657,-0.046296296296296294,6.561899999991056],[0.06104166666666669,-0.019259259259259216,6.578799999997017],[0.044166666666666646,0.002962962962963005,6.598099999994041],[0.034166666666666616,0.0257407407407407,6.6175],[0.036562500000000026,0.03740740740740749,6.63209999999404],[0.03125,0.06833333333333329,6.651499999999999],[0.03125,0.06833333333333329,6.661999999999999],[0.035104166666666714,0.08629629629629634,6.678999999999995],[0.03270833333333331,0.1081481481481481,6.695200000002977],[0.04041666666666662,0.12814814814814823,6.71820000000298],[0.04041666666666662,0.12814814814814823,6.728599999994039],[0.043437500000000046,0.1411111111111112,6.745399999991058],[0.042812500000000024,0.15018518518518523,6.7620000000000005],[0.036249999999999956,0.1411111111111112,6.78329999999702],[0.05520833333333333,0.12481481481481477,6.797799999997018],[0.051041666666666666,0.15259259259259256,6.814099999994035],[0.051041666666666666,0.15259259259259256,6.828700000002975],[0.05260416666666667,0.1566666666666667,6.848500000000001],[0.06322916666666671,0.152962962962963,6.866700000002979],[0.06416666666666669,0.15500000000000008,6.883399999991056],[0.07010416666666662,0.15462962962962962,6.901099999994038],[0.07010416666666662,0.15462962962962962,6.911999999999999],[0.06791666666666671,0.14833333333333337,6.928700000002976],[0.05916666666666662,0.15759259259259265,6.945399999991061],[0.05687500000000002,0.17888888888888893,6.966200000002978],[0.05687500000000002,0.17888888888888893,6.978999999999999],[0.05010416666666669,0.20277777777777778,6.995399999991058],[0.035520833333333356,0.22074074074074082,7.0120000000000005],[0.025833333333333285,0.22462962962962954,7.033200000002978],[0.01552083333333331,0.22888888888888892,7.049299999997018],[-0.002708333333333357,0.22629629629629638,7.065299999997016],[-0.017083333333333308,0.23759259259259252,7.08420000000298],[-0.017083333333333308,0.23759259259259252,7.095299999997017],[-0.04072916666666669,0.26666666666666666,7.112099999994037],[-0.03999999999999997,0.27925925925925915,7.134700000002979],[-0.03999999999999997,0.27925925925925915,7.14520000000298],[-0.04135416666666671,0.2972222222222222,7.161799999997015],[-0.0359375,0.2890740740740741,7.184200000002981],[-0.021458333333333357,0.30055555555555546,7.199899999991061],[-0.028750000000000022,0.2946296296296297,7.214200000002975],[-0.034687499999999954,0.2946296296296297,7.228599999994039],[-0.03677083333333329,0.28851851851851845,7.249099999994037],[-0.03999999999999997,0.297037037037037,7.26420000000298],[-0.04697916666666669,0.2972222222222222,7.2834999999999965],[-0.04468749999999998,0.2796296296296296,7.298399999991055],[-0.05406249999999998,0.280925925925926,7.315299999997016],[-0.052291666666666715,0.26592592592592595,7.329399999991054],[-0.06104166666666669,0.2566666666666667,7.345200000002976],[-0.0751041666666667,0.24592592592592585,7.361799999997018],[-0.05947916666666669,0.24370370370370376,7.3837999999970165],[-0.05947916666666669,0.24370370370370376,7.3953999999910565],[-0.04822916666666662,0.24740740740740744,7.412200000002976],[-0.044062499999999956,0.26296296296296295,7.429099999994037],[-0.03885416666666662,0.2733333333333334,7.451799999997014],[-0.03885416666666662,0.2733333333333334,7.461999999999996],[-0.0359375,0.2935185185185185,7.478899999991057],[-0.03125,0.3177777777777778,7.4979999999999976],[-0.030312500000000023,0.3314814814814815,7.513999999999996],[-0.01552083333333331,0.33722222222222226,7.5318999999910545],[-0.004791666666666691,0.36148148148148157,7.5473999999910575],[0.012395833333333309,0.3822222222222222,7.561999999999998],[0.0068750000000000235,0.4103703703703704,7.582299999997019],[0.05406249999999998,0.38851851851851843,7.596499999999999],[0.09854166666666657,0.35611111111111104,7.61189999999106],[0.14197916666666663,0.32888888888888895,7.630399999991056],[0.14197916666666663,0.32888888888888895,7.6469999999999985],[0.18979166666666672,0.29555555555555557,7.662099999994041],[0.1993750000000001,0.28462962962962973,7.6817000000029765],[0.22468750000000004,0.2594444444444445,7.701899999991056],[0.22468750000000004,0.2594444444444445,7.711899999991054],[0.19989583333333344,0.27388888888888885,7.728700000002981],[0.19927083333333329,0.2625925925925925,7.747499999999995],[0.19885416666666675,0.2522222222222223,7.764299999997014],[0.24208333333333343,0.2014814814814814,7.7834999999999965],[0.20677083333333332,0.20759259259259263,7.7982000000029785],[0.1962500000000001,0.21351851851851844,7.8158999999910606],[0.2,0.19185185185185188,7.829999999999998],[0.1837500000000001,0.1824074074074074,7.845299999997017],[0.2169791666666666,0.13537037037037042,7.861999999999995],[0.23447916666666657,0.10259259259259255,7.883700000002982],[0.2860416666666666,0.04314814814814806,7.898899999991059],[0.2860416666666666,0.04314814814814806,7.912099999994041],[0.28760416666666655,0.039629629629629584,7.928799999997018],[0.32802083333333343,-0.0011111111111111532,7.95059999999404],[0.32802083333333343,-0.0011111111111111532,7.961899999991054],[0.3229166666666667,0.009999999999999959,7.979299999997018],[0.3229166666666667,0.009999999999999959,7.995299999997016],[0.3646874999999999,-0.018333333333333292,8.013799999997019],[0.34187500000000004,-0.03555555555555564,8.028599999994036],[0.3325000000000001,-0.036666666666666584,8.046499999999995],[0.34375,-0.04740740740740745,8.061999999999998],[0.34562499999999996,-0.06444444444444447,8.083299999997017],[0.3478125000000001,-0.08259259259259263,8.097599999994038],[0.34656250000000005,-0.10259259259259255,8.116299999997018],[0.37604166666666666,-0.15796296296296297,8.13139999999106],[0.37604166666666666,-0.15796296296296297,8.14520000000298],[0.3609375,-0.15037037037037035,8.161799999997015],[0.36447916666666674,-0.18611111111111112,8.180700000002979],[0.35052083333333334,-0.2140740740740741,8.195299999997019],[0.38562500000000005,-0.23870370370370367,8.213799999997015],[0.37770833333333326,-0.2207407407407407,8.228499999999997],[0.36749999999999994,-0.2074074074074074,8.24889999999106],[0.35750000000000004,-0.21296296296296297,8.262799999997021],[0.3484375,-0.21796296296296294,8.278500000000001],[0.35281250000000003,-0.21740740740740735,8.296899999991055],[0.3571875000000001,-0.2168518518518519,8.311799999997021],[0.3494791666666667,-0.24981481481481477,8.330299999997017],[0.3497916666666666,-0.26222222222222225,8.34509999999404],[0.34958333333333325,-0.2616666666666667,8.361799999997018],[0.3352083333333333,-0.2603703703703704,8.381299999997019],[0.3368750000000001,-0.28777777777777774,8.39520000000298],[0.3368750000000001,-0.28777777777777774,8.411799999997015],[0.35739583333333325,-0.32018518518518513,8.4285],[0.3538541666666667,-0.28648148148148145,8.445499999999996],[0.3490624999999999,-0.2522222222222222,8.463399999991054],[0.33541666666666664,-0.25629629629629624,8.478599999994039],[0.3319791666666667,-0.2662962962962963,8.49509999999404],[0.35666666666666674,-0.24444444444444444,8.511799999997017],[0.36697916666666663,-0.22037037037037038,8.528500000000001],[0.35354166666666675,-0.17962962962962964,8.547599999994034],[0.3544791666666666,-0.15259259259259256,8.561899999991056],[0.3544791666666666,-0.15259259259259256,8.57859999999404],[0.3559375000000001,-0.14888888888888885,8.59509999999404],[0.33572916666666663,-0.11777777777777781,8.61189999999106],[0.33135416666666656,-0.12222222222222222,8.630799999997016],[0.32625000000000004,-0.12129629629629629,8.645499999999998],[0.32625000000000004,-0.12129629629629629,8.664099999994036],[0.3328125,-0.11703703703703702,8.678999999999995],[0.33791666666666675,-0.12037037037037036,8.695299999997019],[0.33270833333333344,-0.14777777777777779,8.71559999999404],[0.33270833333333344,-0.14777777777777779,8.728599999994039],[0.32010416666666663,-0.1551851851851852,8.7455],[0.33125,-0.17925925925925928,8.761899999991059],[0.3394791666666668,-0.18981481481481483,8.783099999994036],[0.3472916666666668,-0.2051851851851852,8.797599999994034],[0.3489583333333333,-0.21962962962962967,8.81209999999404],[0.3489583333333333,-0.21962962962962967,8.828499999999998],[0.3508333333333333,-0.2270370370370371,8.845200000002976],[0.35208333333333336,-0.24074074074074073,8.861799999997018],[0.34697916666666656,-0.23018518518518521,8.88059999999404],[0.3336458333333333,-0.2088888888888889,8.89709999999404],[0.3263541666666666,-0.1940740740740741,8.915099999994041],[0.3264583333333334,-0.1992592592592593,8.929200000002979],[0.31614583333333335,-0.18203703703703705,8.951499999999996],[0.2976041666666667,-0.17222222222222222,8.965099999994038],[0.2782291666666666,-0.1366666666666667,8.98129999999702],[0.2678124999999999,-0.12444444444444443,8.997499999999995],[0.25625,-0.10574074074074079,9.011799999997017],[0.24572916666666675,-0.08592592592592588,9.02839999999106],[0.24791666666666667,-0.0824074074074074,9.047599999994034],[0.23718750000000005,-0.050370370370370454,9.06209999999404],[0.22041666666666657,-0.01185185185185181,9.082200000002977],[0.22072916666666675,-0.004259259259259175,9.09729999999702],[0.23166666666666677,-0.01703703703703712,9.117999999999995],[0.25458333333333344,-0.04981481481481477,9.131599999994037],[0.28177083333333336,-0.09018518518518516,9.147599999994036],[0.3089583333333332,-0.13055555555555556,9.162700000002978],[0.34187500000000004,-0.18203703703703705,9.17889999999106],[0.3757291666666667,-0.2331481481481481,9.195099999994035],[0.3868750000000001,-0.23592592592592587,9.213999999999999],[0.4118750000000001,-0.2651851851851852,9.228499999999997],[0.43072916666666666,-0.3103703703703704,9.24889999999106],[0.43083333333333323,-0.32166666666666666,9.263799999997019],[0.4176041666666668,-0.30888888888888894,9.281899999991055],[0.4006249999999999,-0.27907407407407403,9.2975],[0.3946875000000001,-0.2551851851851852,9.314200000002977],[0.3870833333333332,-0.24814814814814815,9.32859999999404],[0.3851041666666667,-0.24370370370370376,9.345200000002976],[0.38645833333333335,-0.24648148148148152,9.366299999997018],[0.3793750000000001,-0.257962962962963,9.38289999999106]]","[0.00029999999701857405,0.03459999999403607,0.04520000000297841,0.061899999991055665,0.07870000000297495,0.09520000000297557,0.11189999999105993,0.13100000000000023,0.14649999999999608,0.16449999999999676,0.1802999999970183,0.195200000002977,0.21379999999701482,0.22859999999403868,0.24889999999106038,0.26439999999105623,0.2833999999910546,0.29859999999403897,0.31189999999105567,0.3285999999940401,0.3653999999910553,0.37259999999403703,0.395799999997017,0.4042000000029802,0.4118999999910571,0.42949999999999733,0.46399999999999864,0.4712999999970151,0.497700000002979,0.5050999999940373,0.5317000000029779,0.5473999999910575,0.5642999999970186,0.5715000000000003,0.6007999999970153,0.607899999991055,0.6308999999910583,0.6385000000000005,0.6665999999940411,0.6767999999970158,0.6987999999970214,0.7077999999970146,0.7332000000029808,0.7542999999970164,0.7688999999910564,0.780799999997015,0.7972999999970156,0.8120999999940395,0.8307000000029774,0.8475999999940385,0.8663999999910601,0.8822000000029817,0.8953999999910565,0.91429999999702,0.9294999999999973,0.945200000002977,0.9650999999940382,0.9788999999910573,0.9953999999910579,1.0120999999940352,1.0328999999910593,1.0483999999910552,1.0622000000029814,1.082499999999996,1.0967000000029756,1.1120999999940366,1.131200000002977,1.146599999994038,1.162099999994041,1.1794999999999973,1.1992999999970166,1.2147999999970196,1.2287000000029806,1.247700000002979,1.2620999999940352,1.2788999999910544,1.297099999994039,1.3159999999999954,1.3307999999970193,1.3475999999940385,1.3672000000029811,1.3788999999910558,1.3953999999910565,1.411899999991057,1.4284999999999997,1.4452999999970189,1.4618999999910542,1.4787000000029806,1.4952000000029813,1.5120000000000005,1.534599999994036,1.5620999999940395,1.5790000000000006,1.5977000000029804,1.6122000000029786,1.628799999997021,1.6485999999940404,1.6642000000029782,1.6787999999970182,1.6954999999999956,1.7152999999970149,1.7287000000029806,1.7454999999999998,1.7622000000029772,1.7830000000000013,1.7973999999910575,1.8122000000029814,1.830999999999996,1.8474999999999966,1.8662999999970182,1.8844999999999956,1.8977000000029776,1.913599999994041,1.9287000000029764,1.9499999999999957,1.9639999999999986,1.9803999999910573,1.9953999999910579,2.0118999999910585,2.033099999994036,2.0489999999999995,2.0618999999910557,2.081799999997017,2.0968999999910594,2.1150999999940368,2.130499999999998,2.14520000000298,2.167499999999997,2.1787000000029764,2.195299999997019,2.2149999999999963,2.228499999999997,2.245299999997016,2.264499999999998,2.283799999997015,2.2979999999999947,2.3128999999910604,2.32859999999404,2.3452000000029756,2.36189999999106,2.381200000002977,2.3962000000029775,2.411899999991057,2.4284999999999997,2.445299999997019,2.465899999991059,2.4787000000029806,2.495399999991058,2.5118999999910585,2.528500000000001,2.5473999999910575,2.5619999999999976,2.583399999991059,2.5952999999970174,2.61189999999106,2.631899999991056,2.647299999997017,2.6625000000000014,2.6792999999970206,2.695200000002977,2.714399999991059,2.7295999999940364,2.7452000000029813,2.7618999999910585,2.779299999997015,2.798399999991055,2.8118999999910557,2.8284999999999982,2.8452000000029756,2.86189999999106,2.881999999999998,2.89520000000298,2.911899999991057,2.9284999999999997,2.945299999997019,2.9633999999910543,2.979899999991055,2.9952000000029813,3.0118999999910585,3.028599999994036,3.047799999997018,3.0622000000029814,3.082499999999996,3.097999999999999,3.116599999994037,3.131799999997021,3.1453999999910565,3.161799999997015,3.1785999999940344,3.195099999994035,3.214299999997017,3.2285999999940387,3.245299999997016,3.2620000000000005,3.2818999999910545,3.2980999999940366,3.3135999999940395,3.3284999999999982,3.3452999999970174,3.3619999999999948,3.381299999997019,3.39520000000298,3.411899999991057,3.4284999999999997,3.445200000002977,3.465299999997015,3.482099999994041,3.4978999999910556,3.512299999997019,3.528500000000001,3.5472999999970156,3.5619999999999976,3.582399999991054,3.596499999999999,3.611799999997018,3.6307000000029817,3.645099999994038,3.6653999999910596,3.6785999999940344,3.695200000002977,3.714299999997017,3.7317999999970155,3.749200000002979,3.7620000000000005,3.7790999999940382,3.799899999991055,3.8119999999999976,3.8290999999940354,3.8537999999970154,3.86189999999106,3.878700000002979,3.8953999999910565,3.91729999999702,3.9285999999940344,3.945299999997019,3.9639999999999986,3.984599999994039,3.9989999999999952,4.01459999999404,4.035599999994041,4.045399999991055,4.061999999999998,4.078799999997017,4.101700000002978,4.112099999994037,4.128799999997021,4.14520000000298,4.167099999994036,4.179099999994037,4.198,4.211899999991054,4.228499999999997,4.248299999997016,4.2618999999910585,4.278599999994036,4.29639999999106,4.311899999991056,4.331099999994038,4.345399999991059,4.36189999999106,4.381299999997019,4.39520000000298,4.411899999991057,4.430499999999995,4.445499999999996,4.463499999999996,4.480099999994039,4.497700000002979,4.5118999999910585,4.528500000000001,4.546899999991055,4.561899999991056,4.57859999999404,4.597000000000001,4.612200000002979,4.630499999999998,4.64859999999404,4.663399999991057,4.680299999997018,4.700899999991059,4.715499999999999,4.72979999999702,4.748599999994035,4.7618999999910585,4.778599999994036,4.796499999999995,4.811799999997021,4.828499999999998,4.845200000002976,4.861799999997018,4.880299999997021,4.89520000000298,4.911799999997015,4.9285,4.9493999999910585,4.963499999999996,4.979299999997018,4.995299999997016,5.014299999997014,5.0319999999999965,5.047200000002981,5.061999999999998,5.080799999997019,5.095399999991059,5.11189999999106,5.131200000002977,5.14559999999404,5.16429999999702,5.185700000002981,5.195499999999996,5.211999999999996,5.228700000002981,5.2472999999970185,5.2620000000000005,5.278999999999996,5.299099999994034,5.311999999999998,5.328799999997017,5.345399999991059,5.366200000002976,5.381999999999998,5.39520000000298,5.411899999991057,5.4285,5.445200000002977,5.464200000002975,5.47979999999702,5.4964999999999975,5.5118999999910585,5.528500000000001,5.547799999997018,5.563799999997016,5.578899999991059,5.595399999991059,5.616499999999995,5.6314999999999955,5.646799999997015,5.664200000002978,5.678799999997018,5.695299999997019,5.715700000002975,5.728499999999997,5.7455,5.7620000000000005,5.783599999994038,5.797999999999995,5.813200000002979,5.832399999991054,5.848399999991059,5.866499999999995,5.8853999999910585,5.895299999997015,5.911999999999999,5.928799999997018,5.949999999999996,5.964599999994036,5.981200000002978,5.995200000002981,6.0118999999910585,6.028500000000001,6.047499999999999,6.061799999997021,6.082599999994038,6.097999999999999,6.116799999997021,6.131099999994035,6.145299999997015,6.161999999999999,6.184200000002981,6.195299999997019,6.211999999999996,6.228700000002981,6.248200000002981,6.2635000000000005,6.278700000002978,6.29529999999702,6.3152000000029815,6.330200000002975,6.346700000002976,6.366299999997018,6.382799999997019,6.395299999997015,6.411999999999999,6.431099999994039,6.450299999997021,6.465099999994038,6.483599999994034,6.495299999997016,6.512200000002977,6.5318999999910545,6.548399999991055,6.561899999991056,6.578799999997017,6.598099999994041,6.6175,6.63209999999404,6.651499999999999,6.661999999999999,6.678999999999995,6.695200000002977,6.71820000000298,6.728599999994039,6.745399999991058,6.7620000000000005,6.78329999999702,6.797799999997018,6.814099999994035,6.828700000002975,6.848500000000001,6.866700000002979,6.883399999991056,6.901099999994038,6.911999999999999,6.928700000002976,6.945399999991061,6.966200000002978,6.978999999999999,6.995399999991058,7.0120000000000005,7.033200000002978,7.049299999997018,7.065299999997016,7.08420000000298,7.095299999997017,7.112099999994037,7.134700000002979,7.14520000000298,7.161799999997015,7.184200000002981,7.199899999991061,7.214200000002975,7.228599999994039,7.249099999994037,7.26420000000298,7.2834999999999965,7.298399999991055,7.315299999997016,7.329399999991054,7.345200000002976,7.361799999997018,7.3837999999970165,7.3953999999910565,7.412200000002976,7.429099999994037,7.451799999997014,7.461999999999996,7.478899999991057,7.4979999999999976,7.513999999999996,7.5318999999910545,7.5473999999910575,7.561999999999998,7.582299999997019,7.596499999999999,7.61189999999106,7.630399999991056,7.6469999999999985,7.662099999994041,7.6817000000029765,7.701899999991056,7.711899999991054,7.728700000002981,7.747499999999995,7.764299999997014,7.7834999999999965,7.7982000000029785,7.8158999999910606,7.829999999999998,7.845299999997017,7.861999999999995,7.883700000002982,7.898899999991059,7.912099999994041,7.928799999997018,7.95059999999404,7.961899999991054,7.979299999997018,7.995299999997016,8.013799999997019,8.028599999994036,8.046499999999995,8.061999999999998,8.083299999997017,8.097599999994038,8.116299999997018,8.13139999999106,8.14520000000298,8.161799999997015,8.180700000002979,8.195299999997019,8.213799999997015,8.228499999999997,8.24889999999106,8.262799999997021,8.278500000000001,8.296899999991055,8.311799999997021,8.330299999997017,8.34509999999404,8.361799999997018,8.381299999997019,8.39520000000298,8.411799999997015,8.4285,8.445499999999996,8.463399999991054,8.478599999994039,8.49509999999404,8.511799999997017,8.528500000000001,8.547599999994034,8.561899999991056,8.57859999999404,8.59509999999404,8.61189999999106,8.630799999997016,8.645499999999998,8.664099999994036,8.678999999999995,8.695299999997019,8.71559999999404,8.728599999994039,8.7455,8.761899999991059,8.783099999994036,8.797599999994034,8.81209999999404,8.828499999999998,8.845200000002976,8.861799999997018,8.88059999999404,8.89709999999404,8.915099999994041,8.929200000002979,8.951499999999996,8.965099999994038,8.98129999999702,8.997499999999995,9.011799999997017,9.02839999999106,9.047599999994034,9.06209999999404,9.082200000002977,9.09729999999702,9.117999999999995,9.131599999994037,9.147599999994036,9.162700000002978,9.17889999999106,9.195099999994035,9.213999999999999,9.228499999999997,9.24889999999106,9.263799999997019,9.281899999991055,9.2975,9.314200000002977,9.32859999999404,9.345200000002976,9.366299999997018,9.38289999999106]","[1733457632750,1733457632776,1733457632787,1733457632804,1733457632820,1733457632837,1733457632853,1733457632873,1733457632888,1733457632906,1733457632922,1733457632937,1733457632955,1733457632970,1733457632990,1733457633006,1733457633025,1733457633040,1733457633053,1733457633070,1733457633107,1733457633114,1733457633137,1733457633146,1733457633153,1733457633171,1733457633206,1733457633213,1733457633239,1733457633247,1733457633273,1733457633289,1733457633306,1733457633313,1733457633342,1733457633349,1733457633372,1733457633380,1733457633408,1733457633418,1733457633440,1733457633449,1733457633475,1733457633496,1733457633510,1733457633522,1733457633539,1733457633554,1733457633572,1733457633589,1733457633608,1733457633624,1733457633637,1733457633656,1733457633671,1733457633687,1733457633707,1733457633720,1733457633737,1733457633754,1733457633774,1733457633790,1733457633804,1733457633824,1733457633838,1733457633854,1733457633873,1733457633888,1733457633904,1733457633921,1733457633941,1733457633956,1733457633970,1733457633989,1733457634004,1733457634021,1733457634039,1733457634058,1733457634072,1733457634089,1733457634109,1733457634120,1733457634137,1733457634153,1733457634170,1733457634187,1733457634203,1733457634220,1733457634237,1733457634254,1733457634276,1733457634304,1733457634321,1733457634339,1733457634354,1733457634370,1733457634390,1733457634406,1733457634420,1733457634437,1733457634457,1733457634470,1733457634487,1733457634504,1733457634525,1733457634539,1733457634554,1733457634573,1733457634589,1733457634608,1733457634626,1733457634639,1733457634655,1733457634670,1733457634692,1733457634706,1733457634722,1733457634737,1733457634754,1733457634775,1733457634791,1733457634803,1733457634823,1733457634838,1733457634857,1733457634872,1733457634887,1733457634909,1733457634920,1733457634937,1733457634957,1733457634970,1733457634987,1733457635006,1733457635025,1733457635039,1733457635054,1733457635070,1733457635087,1733457635103,1733457635123,1733457635138,1733457635153,1733457635170,1733457635187,1733457635207,1733457635220,1733457635237,1733457635253,1733457635270,1733457635289,1733457635304,1733457635325,1733457635337,1733457635353,1733457635373,1733457635389,1733457635404,1733457635421,1733457635437,1733457635456,1733457635471,1733457635487,1733457635503,1733457635521,1733457635540,1733457635553,1733457635570,1733457635587,1733457635603,1733457635624,1733457635637,1733457635653,1733457635670,1733457635687,1733457635705,1733457635721,1733457635737,1733457635753,1733457635770,1733457635789,1733457635804,1733457635824,1733457635840,1733457635858,1733457635873,1733457635887,1733457635903,1733457635920,1733457635937,1733457635956,1733457635970,1733457635987,1733457636004,1733457636024,1733457636040,1733457636055,1733457636070,1733457636087,1733457636104,1733457636123,1733457636137,1733457636154,1733457636170,1733457636187,1733457636207,1733457636224,1733457636239,1733457636254,1733457636270,1733457636289,1733457636304,1733457636324,1733457636338,1733457636353,1733457636372,1733457636387,1733457636407,1733457636420,1733457636437,1733457636456,1733457636473,1733457636491,1733457636504,1733457636521,1733457636542,1733457636554,1733457636571,1733457636595,1733457636604,1733457636620,1733457636637,1733457636659,1733457636670,1733457636687,1733457636706,1733457636726,1733457636740,1733457636756,1733457636777,1733457636787,1733457636804,1733457636820,1733457636843,1733457636854,1733457636870,1733457636887,1733457636909,1733457636921,1733457636940,1733457636953,1733457636970,1733457636990,1733457637004,1733457637020,1733457637038,1733457637053,1733457637073,1733457637087,1733457637103,1733457637123,1733457637137,1733457637153,1733457637172,1733457637187,1733457637205,1733457637222,1733457637239,1733457637253,1733457637270,1733457637288,1733457637303,1733457637320,1733457637339,1733457637354,1733457637372,1733457637390,1733457637405,1733457637422,1733457637442,1733457637457,1733457637471,1733457637490,1733457637503,1733457637520,1733457637538,1733457637553,1733457637570,1733457637587,1733457637603,1733457637622,1733457637637,1733457637653,1733457637670,1733457637691,1733457637705,1733457637721,1733457637737,1733457637756,1733457637774,1733457637789,1733457637804,1733457637822,1733457637837,1733457637853,1733457637873,1733457637887,1733457637906,1733457637927,1733457637937,1733457637954,1733457637970,1733457637989,1733457638004,1733457638021,1733457638041,1733457638054,1733457638070,1733457638087,1733457638108,1733457638124,1733457638137,1733457638153,1733457638170,1733457638187,1733457638206,1733457638221,1733457638238,1733457638253,1733457638270,1733457638289,1733457638305,1733457638320,1733457638337,1733457638358,1733457638373,1733457638388,1733457638406,1733457638420,1733457638437,1733457638457,1733457638470,1733457638487,1733457638504,1733457638525,1733457638540,1733457638555,1733457638574,1733457638590,1733457638608,1733457638627,1733457638637,1733457638654,1733457638670,1733457638692,1733457638706,1733457638723,1733457638737,1733457638753,1733457638770,1733457638789,1733457638803,1733457638824,1733457638840,1733457638858,1733457638873,1733457638887,1733457638904,1733457638926,1733457638937,1733457638954,1733457638970,1733457638990,1733457639005,1733457639020,1733457639037,1733457639057,1733457639072,1733457639088,1733457639108,1733457639124,1733457639137,1733457639154,1733457639173,1733457639192,1733457639207,1733457639225,1733457639237,1733457639254,1733457639274,1733457639290,1733457639303,1733457639320,1733457639340,1733457639360,1733457639374,1733457639394,1733457639404,1733457639421,1733457639438,1733457639460,1733457639471,1733457639488,1733457639504,1733457639526,1733457639540,1733457639556,1733457639571,1733457639591,1733457639609,1733457639626,1733457639643,1733457639654,1733457639671,1733457639688,1733457639709,1733457639721,1733457639738,1733457639754,1733457639775,1733457639792,1733457639808,1733457639826,1733457639838,1733457639854,1733457639877,1733457639887,1733457639904,1733457639926,1733457639942,1733457639956,1733457639971,1733457639991,1733457640006,1733457640026,1733457640041,1733457640058,1733457640072,1733457640087,1733457640104,1733457640126,1733457640138,1733457640154,1733457640171,1733457640194,1733457640204,1733457640221,1733457640240,1733457640256,1733457640274,1733457640290,1733457640304