inst1_resp.keys,inst1_resp.rt,calibrationMouse.x,calibrationMouse.y,calibrationMouse.leftButton,calibrationMouse.midButton,calibrationMouse.rightButton,calibrationClick.x,calibrationClick.y,calibrationClick.leftButton,calibrationClick.midButton,calibrationClick.rightButton,trialsc.thisRepN,trialsc.thisTrialN,trialsc.thisN,trialsc.thisIndex,trialsc.ran,calibration_x,calibration_y,participant,session,date,expName,psychopyVersion,OS,frameRate,ScreenRes_pixels,Camera_pixels,mouse_2.x,mouse_2.y,mouse_2.leftButton,mouse_2.midButton,mouse_2.rightButton,mouse_2.time,mouse_2.clicked_name,mouse.x,mouse.y,mouse.leftButton,mouse.midButton,mouse.rightButton,mouse.time,mouse.clicked_name,Choice,Trial,TrialDuration,MOUSE_GAZE,ET_GAZE,ET_GAZE_x_T,time,unixTime,ET_GAZE_NF,Loc_Option1_label,Loc_Option2_label,Loc_Cost_label,Loc_Qual_label,Loc_Option1_cost,Loc_Option2_cost,Loc_Option1_quality,Loc_Option2_quality,trials.thisRepN,trials.thisTrialN,trials.thisN,trials.thisIndex,trials.ran,Block,Device,cost1,qual1,cost2,qual2
space,2.5976,0.06875,-0.333333333,1,0,0,0.008333333,-0.681481481,1,0,0,0,0,0,9,1,0,-0.67,08,001,2024-12-06_11h50.36.571,Attention_exp_legacy,2023.1.0,Win32,59.88023952,,,,,,,,,,,,,,,,,,,,,,,,,,,,,,,,,,,,,,,,,,,,
,,,,,,,-0.072916667,-0.437037037,1,0,0,0,1,1,4,1,-0.33,-0.67,08,001,2024-12-06_11h50.36.571,Attention_exp_legacy,2023.1.0,Win32,59.88023952,,,,,,,,,,,,,,,,,,,,,,,,,,,,,,,,,,,,,,,,,,,,
,,,,,,,-0.075,-0.437037037,1,0,0,0,2,2,3,1,-0.67,0.33,08,001,2024-12-06_11h50.36.571,Attention_exp_legacy,2023.1.0,Win32,59.88023952,,,,,,,,,,,,,,,,,,,,,,,,,,,,,,,,,,,,,,,,,,,,
,,,,,,,-0.075,-0.437037037,1,0,0,0,3,3,6,1,-0.33,0,08,001,2024-12-06_11h50.36.571,Attention_exp_legacy,2023.1.0,Win32,59.88023952,,,,,,,,,,,,,,,,,,,,,,,,,,,,,,,,,,,,,,,,,,,,
,,,,,,,-0.075,-0.437037037,1,0,0,0,4,4,19,1,0.67,0.67,08,001,2024-12-06_11h50.36.571,Attention_exp_legacy,2023.1.0,Win32,59.88023952,,,,,,,,,,,,,,,,,,,,,,,,,,,,,,,,,,,,,,,,,,,,
,,,,,,,-0.075,-0.437037037,1,0,0,0,5,5,12,1,0,0.33,08,001,2024-12-06_11h50.36.571,Attention_exp_legacy,2023.1.0,Win32,59.88023952,,,,,,,,,,,,,,,,,,,,,,,,,,,,,,,,,,,,,,,,,,,,
,,,,,,,-0.075,-0.437037037,1,0,0,0,6,6,5,1,-0.33,-0.33,08,001,2024-12-06_11h50.36.571,Attention_exp_legacy,2023.1.0,Win32,59.88023952,,,,,,,,,,,,,,,,,,,,,,,,,,,,,,,,,,,,,,,,,,,,
,,,,,,,-0.075,-0.437037037,1,0,0,0,7,7,0,1,-0.67,-0.67,08,001,2024-12-06_11h50.36.571,Attention_exp_legacy,2023.1.0,Win32,59.88023952,,,,,,,,,,,,,,,,,,,,,,,,,,,,,,,,,,,,,,,,,,,,
,,,,,,,-0.075,-0.437037037,1,0,0,0,8,8,14,1,0.33,-0.67,08,001,2024-12-06_11h50.36.571,Attention_exp_legacy,2023.1.0,Win32,59.88023952,,,,,,,,,,,,,,,,,,,,,,,,,,,,,,,,,,,,,,,,,,,,
,,,,,,,-0.075,-0.437037037,1,0,0,0,9,9,1,1,-0.67,-0.33,08,001,2024-12-06_11h50.36.571,Attention_exp_legacy,2023.1.0,Win32,59.88023952,,,,,,,,,,,,,,,,,,,,,,,,,,,,,,,,,,,,,,,,,,,,
,,,,,,,-0.075,-0.437037037,1,0,0,0,10,10,8,1,-0.33,0.67,08,001,2024-12-06_11h50.36.571,Attention_exp_legacy,2023.1.0,Win32,59.88023952,,,,,,,,,,,,,,,,,,,,,,,,,,,,,,,,,,,,,,,,,,,,
,,,,,,,-0.075,-0.437037037,1,0,0,0,11,11,10,1,0,-0.33,08,001,2024-12-06_11h50.36.571,Attention_exp_legacy,2023.1.0,Win32,59.88023952,,,,,,,,,,,,,,,,,,,,,,,,,,,,,,,,,,,,,,,,,,,,
,,,,,,,-0.075,-0.437037037,1,0,0,0,12,12,16,1,0.33,0,08,001,2024-12-06_11h50.36.571,Attention_exp_legacy,2023.1.0,Win32,59.88023952,,,,,,,,,,,,,,,,,,,,,,,,,,,,,,,,,,,,,,,,,,,,
,,,,,,,-0.075,-0.437037037,1,0,0,0,13,13,15,1,0.33,-0.33,08,001,2024-12-06_11h50.36.571,Attention_exp_legacy,2023.1.0,Win32,59.88023952,,,,,,,,,,,,,,,,,,,,,,,,,,,,,,,,,,,,,,,,,,,,
,,,,,,,-0.075,-0.437037037,1,0,0,0,14,14,2,1,-0.67,0,08,001,2024-12-06_11h50.36.571,Attention_exp_legacy,2023.1.0,Win32,59.88023952,,,,,,,,,,,,,,,,,,,,,,,,,,,,,,,,,,,,,,,,,,,,
,,,,,,,-0.075,-0.437037037,1,0,0,0,15,15,20,1,0.67,-0.67,08,001,2024-12-06_11h50.36.571,Attention_exp_legacy,2023.1.0,Win32,59.88023952,,,,,,,,,,,,,,,,,,,,,,,,,,,,,,,,,,,,,,,,,,,,
,,,,,,,-0.075,-0.437037037,1,0,0,0,16,16,7,1,-0.33,0.33,08,001,2024-12-06_11h50.36.571,Attention_exp_legacy,2023.1.0,Win32,59.88023952,,,,,,,,,,,,,,,,,,,,,,,,,,,,,,,,,,,,,,,,,,,,
,,,,,,,-0.075,-0.437037037,1,0,0,0,17,17,11,1,0,0,08,001,2024-12-06_11h50.36.571,Attention_exp_legacy,2023.1.0,Win32,59.88023952,,,,,,,,,,,,,,,,,,,,,,,,,,,,,,,,,,,,,,,,,,,,
,,,,,,,-0.075,-0.437037037,1,0,0,0,18,18,13,1,0,0.67,08,001,2024-12-06_11h50.36.571,Attention_exp_legacy,2023.1.0,Win32,59.88023952,,,,,,,,,,,,,,,,,,,,,,,,,,,,,,,,,,,,,,,,,,,,
,,,,,,,-0.075,-0.437037037,1,0,0,0,19,19,17,1,0.33,0.33,08,001,2024-12-06_11h50.36.571,Attention_exp_legacy,2023.1.0,Win32,59.88023952,,,,,,,,,,,,,,,,,,,,,,,,,,,,,,,,,,,,,,,,,,,,
,,,,,,,-0.075,-0.437037037,1,0,0,0,20,20,18,1,0.33,0.67,08,001,2024-12-06_11h50.36.571,Attention_exp_legacy,2023.1.0,Win32,59.88023952,,,,,,,,,,,,,,,,,,,,,,,,,,,,,,,,,,,,,,,,,,,,
,,,,,,,,,,,,,,,,,,,08,001,2024-12-06_11h50.36.571,Attention_exp_legacy,2023.1.0,Win32,59.88023952,"[1920,1080]","[640,480]",[-0.040625],[-0.4981481481481482],[1],[0],[0],[2.1640999999940362],"[""StartButton""]",[0.022916666666666665],[0.1574074074074074],[1],[0],[0],[6.102799999997025],"[""Option1_label""]",Option1_label,1,7.1109,"[[-0.19791666666666666,-0.4203703703703704],[-0.19791666666666666,-0.4203703703703704],[-0.19791666666666666,-0.4203703703703704],[-0.19791666666666666,-0.4203703703703704],[-0.19791666666666666,-0.4203703703703704],[-0.19791666666666666,-0.4203703703703704],[-0.19791666666666666,-0.4203703703703704],[-0.19791666666666666,-0.4203703703703704],[-0.19791666666666666,-0.4203703703703704],[-0.19791666666666666,-0.4203703703703704],[-0.19791666666666666,-0.4203703703703704],[-0.19791666666666666,-0.4203703703703704],[-0.19791666666666666,-0.4203703703703704],[-0.19791666666666666,-0.4203703703703704],[-0.19791666666666666,-0.4203703703703704],[-0.19791666666666666,-0.4203703703703704],[-0.19791666666666666,-0.4203703703703704],[-0.19791666666666666,-0.4203703703703704],[-0.19791666666666666,-0.4203703703703704],[-0.19791666666666666,-0.4203703703703704],[-0.19791666666666666,-0.4203703703703704],[-0.19791666666666666,-0.4203703703703704],[-0.19791666666666666,-0.4203703703703704],[-0.19791666666666666,-0.4203703703703704],[-0.19791666666666666,-0.4203703703703704],[-0.19791666666666666,-0.4203703703703704],[-0.19791666666666666,-0.4203703703703704],[-0.19791666666666666,-0.4203703703703704],[-0.19791666666666666,-0.4203703703703704],[-0.19791666666666666,-0.4203703703703704],[-0.19791666666666666,-0.4203703703703704],[-0.19791666666666666,-0.4203703703703704],[-0.19791666666666666,-0.4203703703703704],[-0.19791666666666666,-0.4203703703703704],[-0.19791666666666666,-0.4203703703703704],[-0.19791666666666666,-0.4203703703703704],[-0.19791666666666666,-0.4203703703703704],[-0.19791666666666666,-0.4203703703703704],[-0.19791666666666666,-0.4203703703703704],[-0.19791666666666666,-0.4203703703703704],[-0.19791666666666666,-0.4203703703703704],[-0.19791666666666666,-0.4203703703703704],[-0.19791666666666666,-0.4203703703703704],[-0.19791666666666666,-0.4203703703703704],[-0.19791666666666666,-0.4203703703703704],[-0.19791666666666666,-0.4203703703703704],[-0.19791666666666666,-0.4203703703703704],[-0.19791666666666666,-0.4203703703703704],[-0.19791666666666666,-0.4203703703703704],[-0.19791666666666666,-0.4203703703703704],[-0.19791666666666666,-0.4203703703703704],[-0.19791666666666666,-0.4203703703703704],[-0.19791666666666666,-0.4203703703703704],[-0.19791666666666666,-0.4203703703703704],[-0.19791666666666666,-0.4203703703703704],[-0.19791666666666666,-0.4203703703703704],[-0.19791666666666666,-0.4203703703703704],[-0.19791666666666666,-0.4203703703703704],[-0.19791666666666666,-0.4203703703703704],[-0.19791666666666666,-0.4203703703703704],[-0.19791666666666666,-0.4203703703703704],[-0.19791666666666666,-0.4203703703703704],[-0.19791666666666666,-0.4203703703703704],[-0.19791666666666666,-0.4203703703703704],[-0.19791666666666666,-0.4203703703703704],[-0.19791666666666666,-0.4203703703703704],[-0.19791666666666666,-0.4203703703703704],[-0.19791666666666666,-0.4203703703703704],[-0.19791666666666666,-0.4203703703703704],[-0.19791666666666666,-0.4203703703703704],[-0.19791666666666666,-0.4203703703703704],[-0.19791666666666666,-0.4203703703703704],[-0.19791666666666666,-0.4203703703703704],[-0.19791666666666666,-0.4203703703703704],[-0.19791666666666666,-0.4203703703703704],[-0.19791666666666666,-0.4203703703703704],[-0.19791666666666666,-0.4203703703703704],[-0.19791666666666666,-0.4203703703703704],[-0.19791666666666666,-0.4203703703703704],[-0.19791666666666666,-0.4203703703703704],[-0.19791666666666666,-0.4203703703703704],[-0.19791666666666666,-0.4203703703703704],[-0.19791666666666666,-0.4203703703703704],[-0.19791666666666666,-0.4203703703703704],[-0.19791666666666666,-0.4203703703703704],[-0.19791666666666666,-0.4203703703703704],[-0.19791666666666666,-0.4203703703703704],[-0.19791666666666666,-0.4203703703703704],[-0.19791666666666666,-0.4203703703703704],[-0.19791666666666666,-0.4203703703703704],[-0.19791666666666666,-0.4203703703703704],[-0.19791666666666666,-0.4203703703703704],[-0.19791666666666666,-0.4203703703703704],[-0.19791666666666666,-0.4203703703703704],[-0.19791666666666666,-0.4203703703703704],[-0.19791666666666666,-0.4203703703703704],[-0.19791666666666666,-0.4203703703703704],[-0.19791666666666666,-0.4203703703703704],[-0.19791666666666666,-0.4203703703703704],[-0.19791666666666666,-0.4203703703703704],[-0.19791666666666666,-0.4203703703703704],[-0.19791666666666666,-0.4203703703703704],[-0.19791666666666666,-0.4203703703703704],[-0.19791666666666666,-0.4203703703703704],[-0.19791666666666666,-0.4203703703703704],[-0.19791666666666666,-0.4203703703703704],[-0.19791666666666666,-0.4203703703703704],[-0.19791666666666666,-0.4203703703703704],[-0.19791666666666666,-0.4203703703703704],[-0.19791666666666666,-0.4203703703703704],[-0.19791666666666666,-0.4203703703703704],[-0.19791666666666666,-0.4203703703703704],[-0.19791666666666666,-0.4203703703703704],[-0.19791666666666666,-0.4203703703703704],[-0.19791666666666666,-0.4203703703703704],[-0.19791666666666666,-0.4203703703703704],[-0.19791666666666666,-0.4203703703703704],[-0.19791666666666666,-0.4203703703703704],[-0.19791666666666666,-0.4203703703703704],[-0.19791666666666666,-0.4203703703703704],[-0.19791666666666666,-0.4203703703703704],[-0.19791666666666666,-0.4203703703703704],[-0.19791666666666666,-0.4203703703703704],[-0.19791666666666666,-0.4203703703703704],[-0.19791666666666666,-0.4203703703703704],[-0.19791666666666666,-0.4203703703703704],[-0.19791666666666666,-0.4203703703703704],[-0.19791666666666666,-0.4203703703703704],[-0.19791666666666666,-0.4203703703703704],[-0.19791666666666666,-0.4203703703703704],[-0.19791666666666666,-0.4203703703703704],[-0.19791666666666666,-0.4203703703703704],[-0.19791666666666666,-0.4203703703703704],[-0.19791666666666666,-0.4203703703703704],[-0.19791666666666666,-0.4203703703703704],[-0.19791666666666666,-0.4203703703703704],[-0.19895833333333332,-0.4148148148148148],[-0.19583333333333333,-0.40370370370370373],[-0.18645833333333334,-0.38333333333333336],[-0.175,-0.3574074074074074],[-0.1625,-0.3296296296296296],[-0.15208333333333332,-0.3055555555555556],[-0.14583333333333334,-0.2851851851851852],[-0.140625,-0.26666666666666666],[-0.13645833333333332,-0.2537037037037037],[-0.13333333333333333,-0.24444444444444444],[-0.13020833333333334,-0.23703703703703705],[-0.12916666666666668,-0.23148148148148148],[-0.128125,-0.22777777777777777],[-0.12708333333333333,-0.22407407407407406],[-0.12708333333333333,-0.2222222222222222],[-0.12604166666666666,-0.21851851851851853],[-0.125,-0.21666666666666667],[-0.12291666666666666,-0.21296296296296297],[-0.12291666666666666,-0.20925925925925926],[-0.12083333333333333,-0.20185185185185187],[-0.11979166666666667,-0.19814814814814816],[-0.11875,-0.1962962962962963],[-0.11770833333333333,-0.19074074074074074],[-0.115625,-0.18518518518518517],[-0.115625,-0.1814814814814815],[-0.11354166666666667,-0.17592592592592593],[-0.11354166666666667,-0.17407407407407408],[-0.11354166666666667,-0.17222222222222222],[-0.11354166666666667,-0.16666666666666666],[-0.1125,-0.16111111111111112],[-0.11041666666666666,-0.15],[-0.109375,-0.13703703703703704],[-0.10833333333333334,-0.12777777777777777],[-0.10625,-0.11851851851851852],[-0.10416666666666667,-0.0962962962962963],[-0.1,-0.06481481481481481],[-0.09583333333333334,-0.03148148148148148],[-0.09375,-0.011111111111111112],[-0.08958333333333333,0.003703703703703704],[-0.08645833333333333,0.020370370370370372],[-0.08541666666666667,0.02962962962962963],[-0.084375,0.03518518518518519],[-0.084375,0.040740740740740744],[-0.084375,0.044444444444444446],[-0.084375,0.046296296296296294],[-0.084375,0.046296296296296294],[-0.084375,0.04814814814814815],[-0.084375,0.04814814814814815],[-0.084375,0.05],[-0.084375,0.05],[-0.084375,0.05],[-0.084375,0.05185185185185185],[-0.084375,0.05185185185185185],[-0.084375,0.05185185185185185],[-0.084375,0.05185185185185185],[-0.08541666666666667,0.05185185185185185],[-0.08541666666666667,0.05185185185185185],[-0.08645833333333333,0.05185185185185185],[-0.0875,0.05185185185185185],[-0.08854166666666667,0.05185185185185185],[-0.08958333333333333,0.05185185185185185],[-0.09166666666666666,0.05185185185185185],[-0.09166666666666666,0.05185185185185185],[-0.09270833333333334,0.05],[-0.09375,0.05],[-0.09479166666666666,0.04814814814814815],[-0.09583333333333334,0.046296296296296294],[-0.09583333333333334,0.046296296296296294],[-0.09791666666666667,0.046296296296296294],[-0.09895833333333333,0.04259259259259259],[-0.09895833333333333,0.04259259259259259],[-0.10104166666666667,0.040740740740740744],[-0.10104166666666667,0.03888888888888889],[-0.10104166666666667,0.03888888888888889],[-0.10208333333333333,0.037037037037037035],[-0.10208333333333333,0.037037037037037035],[-0.10208333333333333,0.03518518518518519],[-0.10208333333333333,0.03333333333333333],[-0.10208333333333333,0.03333333333333333],[-0.10208333333333333,0.03333333333333333],[-0.10208333333333333,0.03333333333333333],[-0.10208333333333333,0.03333333333333333],[-0.10208333333333333,0.03333333333333333],[-0.10208333333333333,0.03148148148148148],[-0.10208333333333333,0.03148148148148148],[-0.10208333333333333,0.03148148148148148],[-0.10208333333333333,0.02962962962962963],[-0.10208333333333333,0.027777777777777776],[-0.103125,0.025925925925925925],[-0.103125,0.024074074074074074],[-0.10416666666666667,0.022222222222222223],[-0.10520833333333333,0.020370370370370372],[-0.10520833333333333,0.020370370370370372],[-0.10520833333333333,0.018518518518518517],[-0.10625,0.014814814814814815],[-0.10625,0.014814814814814815],[-0.10625,0.014814814814814815],[-0.10625,0.014814814814814815],[-0.10625,0.014814814814814815],[-0.10625,0.014814814814814815],[-0.10625,0.012962962962962963],[-0.10625,0.012962962962962963],[-0.103125,0.012962962962962963],[-0.09270833333333334,0.012962962962962963],[-0.090625,0.012962962962962963],[-0.08854166666666667,0.012962962962962963],[-0.084375,0.012962962962962963],[-0.08229166666666667,0.014814814814814815],[-0.08229166666666667,0.014814814814814815],[-0.08229166666666667,0.014814814814814815],[-0.08229166666666667,0.014814814814814815],[-0.08229166666666667,0.014814814814814815],[-0.08229166666666667,0.014814814814814815],[-0.08229166666666667,0.014814814814814815],[-0.08229166666666667,0.014814814814814815],[-0.08229166666666667,0.014814814814814815],[-0.08229166666666667,0.014814814814814815],[-0.08229166666666667,0.014814814814814815],[-0.08229166666666667,0.014814814814814815],[-0.08229166666666667,0.014814814814814815],[-0.08229166666666667,0.014814814814814815],[-0.08229166666666667,0.014814814814814815],[-0.08229166666666667,0.014814814814814815],[-0.08229166666666667,0.014814814814814815],[-0.08229166666666667,0.014814814814814815],[-0.08229166666666667,0.014814814814814815],[-0.08229166666666667,0.014814814814814815],[-0.08229166666666667,0.014814814814814815],[-0.078125,0.014814814814814815],[-0.059375,0.018518518518518517],[-0.051041666666666666,0.022222222222222223],[-0.023958333333333335,0.024074074074074074],[-0.009375,0.024074074074074074],[-0.0020833333333333333,0.024074074074074074],[0.005208333333333333,0.024074074074074074],[0.009375,0.024074074074074074],[0.013541666666666667,0.024074074074074074],[0.016666666666666666,0.024074074074074074],[0.017708333333333333,0.024074074074074074],[0.019791666666666666,0.024074074074074074],[0.020833333333333332,0.024074074074074074],[0.020833333333333332,0.024074074074074074],[0.020833333333333332,0.024074074074074074],[0.020833333333333332,0.024074074074074074],[0.020833333333333332,0.024074074074074074],[0.020833333333333332,0.024074074074074074],[0.020833333333333332,0.024074074074074074],[0.020833333333333332,0.024074074074074074],[0.020833333333333332,0.024074074074074074],[0.020833333333333332,0.024074074074074074],[0.020833333333333332,0.024074074074074074],[0.021875,0.024074074074074074],[0.027083333333333334,0.024074074074074074],[0.030208333333333334,0.024074074074074074],[0.03958333333333333,0.022222222222222223],[0.053125,0.016666666666666666],[0.06354166666666666,0.012962962962962963],[0.06979166666666667,0.012962962962962963],[0.075,0.007407407407407408],[0.078125,0.007407407407407408],[0.07916666666666666,0.007407407407407408],[0.08020833333333334,0.007407407407407408],[0.08020833333333334,0.007407407407407408],[0.08020833333333334,0.007407407407407408],[0.08020833333333334,0.007407407407407408],[0.08020833333333334,0.007407407407407408],[0.08020833333333334,0.007407407407407408],[0.08020833333333334,0.007407407407407408],[0.08020833333333334,0.007407407407407408],[0.08020833333333334,0.005555555555555556],[0.08020833333333334,0],[0.071875,-0.009259259259259259],[0.065625,-0.020370370370370372],[0.058333333333333334,-0.03518518518518519],[0.053125,-0.044444444444444446],[0.05,-0.05],[0.05,-0.05],[0.04895833333333333,-0.05],[0.04895833333333333,-0.02962962962962963],[0.04895833333333333,0.04814814814814815],[0.04895833333333333,0.09444444444444444],[0.04375,0.1388888888888889],[0.04375,0.16666666666666666],[0.04375,0.17962962962962964],[0.04375,0.18703703703703703],[0.04375,0.18703703703703703],[0.042708333333333334,0.18703703703703703],[0.042708333333333334,0.18703703703703703],[0.041666666666666664,0.18703703703703703],[0.036458333333333336,0.18703703703703703],[0.034375,0.18333333333333332],[0.03229166666666667,0.17962962962962964],[0.029166666666666667,0.17222222222222222],[0.026041666666666668,0.16666666666666666],[0.023958333333333335,0.16111111111111112],[0.022916666666666665,0.15925925925925927],[0.022916666666666665,0.1574074074074074],[0.022916666666666665,0.1574074074074074],[0.022916666666666665,0.1574074074074074],[0.022916666666666665,0.1574074074074074],[0.022916666666666665,0.1574074074074074],[0.022916666666666665,0.1574074074074074],[0.022916666666666665,0.1574074074074074],[0.022916666666666665,0.1574074074074074],[0.022916666666666665,0.1574074074074074],[0.022916666666666665,0.1574074074074074],[0.022916666666666665,0.1574074074074074],[0.022916666666666665,0.1574074074074074],[0.022916666666666665,0.1574074074074074],[0.022916666666666665,0.1574074074074074],[0.022916666666666665,0.1574074074074074],[0.022916666666666665,0.1574074074074074],[0.022916666666666665,0.1574074074074074],[0.022916666666666665,0.1574074074074074],[0.022916666666666665,0.1574074074074074],[0.022916666666666665,0.1574074074074074],[0.022916666666666665,0.1574074074074074],[0.022916666666666665,0.1574074074074074],[0.022916666666666665,0.1574074074074074],[0.022916666666666665,0.1574074074074074],[0.022916666666666665,0.1574074074074074],[0.022916666666666665,0.1574074074074074],[0.022916666666666665,0.1574074074074074],[0.022916666666666665,0.1574074074074074],[0.022916666666666665,0.1574074074074074],[0.022916666666666665,0.1574074074074074],[0.022916666666666665,0.1574074074074074],[0.022916666666666665,0.1574074074074074],[0.022916666666666665,0.1574074074074074],[0.022916666666666665,0.1574074074074074],[0.022916666666666665,0.1574074074074074],[0.022916666666666665,0.1574074074074074],[0.022916666666666665,0.1574074074074074],[0.022916666666666665,0.1574074074074074],[0.022916666666666665,0.1574074074074074],[0.022916666666666665,0.1574074074074074],[0.022916666666666665,0.1574074074074074],[0.022916666666666665,0.1574074074074074],[0.022916666666666665,0.1574074074074074],[0.022916666666666665,0.1574074074074074],[0.022916666666666665,0.1574074074074074],[0.022916666666666665,0.1574074074074074],[0.022916666666666665,0.1574074074074074],[0.022916666666666665,0.1574074074074074],[0.022916666666666665,0.1574074074074074],[0.022916666666666665,0.1574074074074074],[0.022916666666666665,0.1574074074074074],[0.022916666666666665,0.1574074074074074],[0.022916666666666665,0.1574074074074074],[0.022916666666666665,0.1574074074074074],[0.022916666666666665,0.1574074074074074],[0.022916666666666665,0.1574074074074074],[0.022916666666666665,0.1574074074074074],[0.022916666666666665,0.1574074074074074],[0.022916666666666665,0.1574074074074074],[0.022916666666666665,0.1574074074074074],[0.022916666666666665,0.1574074074074074],[0.022916666666666665,0.1574074074074074],[0.022916666666666665,0.1574074074074074],[0.022916666666666665,0.1574074074074074],[0.022916666666666665,0.1574074074074074],[0.022916666666666665,0.1574074074074074],[0.022916666666666665,0.1574074074074074],[0.022916666666666665,0.1574074074074074],[0.022916666666666665,0.1574074074074074],[0.022916666666666665,0.1574074074074074],[0.022916666666666665,0.1574074074074074],[0.022916666666666665,0.1574074074074074],[0.022916666666666665,0.1574074074074074],[0.022916666666666665,0.1574074074074074],[0.022916666666666665,0.1574074074074074],[0.022916666666666665,0.1574074074074074],[0.022916666666666665,0.1574074074074074],[0.022916666666666665,0.1574074074074074],[0.022916666666666665,0.1574074074074074],[0.022916666666666665,0.1574074074074074],[0.022916666666666665,0.1574074074074074],[0.022916666666666665,0.1574074074074074],[0.022916666666666665,0.1574074074074074],[0.022916666666666665,0.1574074074074074],[0.022916666666666665,0.1574074074074074],[0.022916666666666665,0.1574074074074074],[0.022916666666666665,0.1574074074074074],[0.022916666666666665,0.1574074074074074],[0.022916666666666665,0.1574074074074074],[0.022916666666666665,0.1574074074074074],[0.022916666666666665,0.1574074074074074],[0.022916666666666665,0.1574074074074074],[0.022916666666666665,0.1574074074074074],[0.022916666666666665,0.1574074074074074],[0.022916666666666665,0.1574074074074074]]","[[-0.06989583333333335,0.4861111111111111],[-0.06749999999999995,0.4994444444444445],[-0.06749999999999995,0.4994444444444445],[-0.057187499999999974,0.522962962962963],[-0.05322916666666669,0.5335185185185186],[-0.05020833333333338,0.5370370370370371],[-0.04572916666666664,0.5462962962962963],[-0.041770833333333354,0.5575925925925926],[-0.040625,0.5735185185185186],[-0.040625,0.5735185185185186],[-0.03229166666666667,0.5964814814814815],[-0.025625000000000023,0.6022222222222223],[-0.028125,0.5953703703703703],[-0.028541666666666642,0.5888888888888889],[-0.028541666666666642,0.5888888888888889],[-0.035000000000000024,0.5755555555555555],[-0.0359375,0.5724074074074075],[-0.03864583333333336,0.5707407407407408],[-0.03864583333333336,0.5707407407407408],[-0.044062499999999956,0.55],[-0.04614583333333329,0.5455555555555556],[-0.04614583333333329,0.5455555555555556],[-0.04114583333333333,0.5392592592592593],[-0.046875,0.5216666666666667],[-0.058541666666666714,0.5068518518518519],[-0.05916666666666662,0.5057407407407408],[-0.059791666666666646,0.5046296296296297],[-0.06229166666666662,0.5001851851851852],[-0.05770833333333331,0.49962962962962953],[-0.053125,0.49907407407407406],[-0.0484375,0.5131481481481482],[-0.04708333333333338,0.5109259259259259],[-0.051250000000000046,0.5022222222222223],[-0.05166666666666669,0.49314814814814806],[-0.04906250000000002,0.4935185185185185],[-0.04906250000000002,0.4935185185185185],[-0.04718749999999995,0.4925925925925926],[-0.042708333333333334,0.4955555555555556],[-0.04083333333333338,0.4927777777777778],[-0.04083333333333338,0.4927777777777778],[-0.04125000000000002,0.48870370370370364],[-0.044479166666666715,0.477962962962963],[-0.04791666666666667,0.46722222222222215],[-0.050937499999999976,0.4596296296296297],[-0.05166666666666669,0.45999999999999996],[-0.05270833333333336,0.46037037037037043],[-0.051250000000000046,0.45981481481481473],[-0.049583333333333354,0.46111111111111114],[-0.049583333333333354,0.46111111111111114],[-0.050520833333333334,0.45851851851851855],[-0.05291666666666662,0.4572222222222222],[-0.06052083333333336,0.4507407407407407],[-0.06291666666666665,0.45444444444444443],[-0.06395833333333331,0.4553703703703703],[-0.06677083333333336,0.4487037037037036],[-0.06677083333333336,0.4487037037037036],[-0.06958333333333329,0.4420370370370371],[-0.07166666666666661,0.44000000000000006],[-0.06947916666666672,0.4474074074074075],[-0.06947916666666672,0.4474074074074075],[-0.06781250000000003,0.4540740740740742],[-0.07010416666666662,0.4583333333333333],[-0.07458333333333336,0.44944444444444454],[-0.07906249999999998,0.44055555555555553],[-0.08062499999999997,0.44759259259259265],[-0.08218749999999998,0.4546296296296296],[-0.08374999999999998,0.45740740740740743],[-0.08531249999999997,0.4601851851851852],[-0.08093750000000005,0.4794444444444444],[-0.08093750000000005,0.4794444444444444],[-0.08427083333333331,0.47481481481481475],[-0.08635416666666665,0.47074074074074085],[-0.08447916666666669,0.469074074074074],[-0.07354166666666669,0.49000000000000005],[-0.0626041666666667,0.5109259259259259],[-0.05697916666666671,0.5124074074074075],[-0.05625,0.5074074074074074],[-0.05499999999999995,0.5133333333333334],[-0.05291666666666662,0.5237037037037037],[-0.057187499999999974,0.512962962962963],[-0.05447916666666662,0.5192592592592592],[-0.057604166666666616,0.5157407407407407],[-0.059375,0.5192592592592592],[-0.06395833333333331,0.5177777777777778],[-0.06802083333333328,0.5175925925925926],[-0.06791666666666671,0.5137037037037037],[-0.06479166666666672,0.5238888888888888],[-0.06083333333333331,0.5318518518518519],[-0.06375000000000004,0.5270370370370371],[-0.06375000000000004,0.5270370370370371],[-0.06666666666666667,0.5222222222222223],[-0.06614583333333333,0.5172222222222221],[-0.06468750000000002,0.5174074074074073],[-0.06395833333333331,0.51],[-0.06395833333333331,0.51],[-0.06322916666666671,0.5025925925925926],[-0.06239583333333331,0.5012962962962964],[-0.06291666666666665,0.5057407407407408],[-0.06156250000000003,0.5025925925925926],[-0.06020833333333329,0.4994444444444445],[-0.05656249999999995,0.5046296296296297],[-0.05291666666666662,0.5098148148148147],[-0.05291666666666662,0.5098148148148147],[-0.051979166666666646,0.5164814814814814],[-0.049479166666666664,0.5264814814814814],[-0.049479166666666664,0.5264814814814814],[-0.04833333333333331,0.5318518518518519],[-0.044479166666666715,0.5427777777777778],[-0.04833333333333331,0.5344444444444445],[-0.05499999999999995,0.524074074074074],[-0.057083333333333285,0.5248148148148147],[-0.057604166666666616,0.5275925925925925],[-0.05666666666666664,0.5212962962962963],[-0.05572916666666667,0.515],[-0.05479166666666669,0.515925925925926],[-0.05427083333333336,0.5148148148148148],[-0.05302083333333331,0.518888888888889],[-0.051041666666666666,0.5194444444444445],[-0.041979166666666616,0.5318518518518519],[-0.041979166666666616,0.5318518518518519],[-0.04041666666666662,0.5344444444444445],[-0.03885416666666662,0.5335185185185186],[-0.03885416666666662,0.5305555555555556],[-0.036562500000000026,0.5366666666666666],[-0.03812500000000003,0.5383333333333334],[-0.043958333333333384,0.530925925925926],[-0.04020833333333336,0.5270370370370371],[-0.036458333333333336,0.5231481481481481],[-0.04083333333333338,0.524074074074074],[-0.04083333333333338,0.524074074074074],[-0.04500000000000005,0.5224074074074074],[-0.04635416666666667,0.5225925925925927],[-0.04635416666666667,0.5225925925925927],[-0.04645833333333336,0.512962962962963],[-0.04750000000000002,0.5112962962962964],[-0.04916666666666671,0.5079629629629628],[-0.04562499999999995,0.5044444444444444],[-0.05802083333333338,0.49611111111111106],[-0.06635416666666671,0.4838888888888888],[-0.06635416666666671,0.4838888888888888],[-0.07604166666666666,0.47388888888888886],[-0.0796875,0.4618518518518518],[-0.0828125,0.4514814814814814],[-0.0828125,0.4514814814814814],[-0.0890625,0.44944444444444454],[-0.08489583333333334,0.45388888888888895],[-0.07979166666666669,0.4503703703703705],[-0.0875,0.42314814814814816],[-0.0875,0.42314814814814816],[-0.08885416666666662,0.4233333333333334],[-0.07760416666666667,0.4168518518518519],[-0.07416666666666671,0.4212962962962963],[-0.06864583333333331,0.42166666666666675],[-0.0672916666666667,0.41500000000000004],[-0.07072916666666665,0.4140740740740741],[-0.06218750000000005,0.39277777777777784],[-0.06760416666666665,0.3853703703703704],[-0.07302083333333335,0.377962962962963],[-0.06812499999999998,0.38981481481481484],[-0.07093750000000003,0.37888888888888894],[-0.07354166666666669,0.3668518518518519],[-0.07354166666666669,0.3668518518518519],[-0.08406250000000005,0.3427777777777778],[-0.09427083333333333,0.331111111111111],[-0.1016666666666667,0.3248148148148148],[-0.10510416666666664,0.3133333333333334],[-0.11270833333333338,0.3218518518518518],[-0.11604166666666664,0.3168518518518519],[-0.11604166666666664,0.3168518518518519],[-0.1219791666666667,0.28888888888888886],[-0.1219791666666667,0.28888888888888886],[-0.12791666666666662,0.28833333333333344],[-0.13333333333333333,0.27314814814814814],[-0.13562500000000005,0.2705555555555556],[-0.13562500000000005,0.2705555555555556],[-0.128125,0.26944444444444443],[-0.12843749999999995,0.24592592592592585],[-0.12875000000000003,0.2192592592592592],[-0.12156250000000005,0.1985185185185186],[-0.11437499999999995,0.17777777777777778],[-0.12041666666666669,0.13851851851851843],[-0.11843750000000004,0.11925925925925922],[-0.11333333333333329,0.11388888888888889],[-0.10677083333333333,0.13407407407407404],[-0.11041666666666666,0.11999999999999991],[-0.11062500000000004,0.09740740740740746],[-0.10510416666666664,0.09185185185185189],[-0.09958333333333336,0.08629629629629634],[-0.09885416666666665,0.09518518518518514],[-0.09916666666666671,0.10537037037037032],[-0.09281250000000002,0.1294444444444444],[-0.0921875,0.15185185185185185],[-0.08999999999999998,0.12962962962962962],[-0.0967708333333333,0.1],[-0.08739583333333331,0.10629629629629625],[-0.08760416666666669,0.10611111111111103],[-0.0858333333333333,0.10259259259259255],[-0.08406250000000005,0.09907407407407408],[-0.08406250000000005,0.09907407407407408],[-0.07760416666666667,0.11185185185185181],[-0.08083333333333335,0.13407407407407404],[-0.08083333333333335,0.13407407407407404],[-0.08562500000000005,0.125],[-0.09093749999999995,0.0911111111111112],[-0.09416666666666665,0.10777777777777786],[-0.09031250000000005,0.09222222222222214],[-0.09249999999999996,0.0985185185185186],[-0.09375,0.12259259259259268],[-0.0875,0.17703703703703708],[-0.08427083333333331,0.24055555555555552],[-0.08624999999999995,0.2833333333333333],[-0.08177083333333333,0.2831481481481481],[-0.07562500000000003,0.32611111111111113],[-0.06885416666666669,0.37592592592592594],[-0.06083333333333331,0.3985185185185186],[-0.051145833333333356,0.4503703703703705],[-0.03885416666666662,0.4816666666666667],[-0.030416666666666713,0.49166666666666664],[-0.030416666666666713,0.46944444444444444],[-0.027395833333333286,0.4381481481481482],[-0.03187500000000002,0.38333333333333336],[-0.03208333333333328,0.36074074074074064],[-0.029166666666666667,0.3514814814814814],[-0.030520833333333285,0.32018518518518513],[-0.030520833333333285,0.32018518518518513],[-0.03781249999999995,0.2824074074074074],[-0.04614583333333329,0.2598148148148147],[-0.058854166666666666,0.2074074074074074],[-0.058854166666666666,0.2074074074074074],[-0.06791666666666671,0.17018518518518513],[-0.07437499999999998,0.15833333333333333],[-0.08083333333333335,0.14648148148148152],[-0.08520833333333329,0.12222222222222222],[-0.08958333333333333,0.09796296296296292],[-0.09572916666666664,0.06370370370370367],[-0.09593750000000002,0.06537037037037029],[-0.09343750000000005,0.10111111111111115],[-0.09979166666666663,0.05740740740740741],[-0.10427083333333335,0.04055555555555551],[-0.10760416666666663,0.05129629629629638],[-0.10760416666666663,0.05129629629629638],[-0.10895833333333335,0.03296296296296288],[-0.11260416666666669,0.01722222222222214],[-0.11291666666666664,0.021851851851851768],[-0.11291666666666664,0.021851851851851768],[-0.11104166666666669,0.06018518518518518],[-0.10395833333333329,0.08055555555555556],[-0.09697916666666669,0.09314814814814806],[-0.09916666666666671,0.06314814814814819],[-0.09916666666666671,0.06314814814814819],[-0.09322916666666667,0.09685185185185177],[-0.08718750000000004,0.14814814814814814],[-0.08104166666666662,0.16351851851851842],[-0.08093750000000005,0.18499999999999997],[-0.07447916666666667,0.21851851851851853],[-0.06802083333333328,0.25203703703703706],[-0.06510416666666667,0.2322222222222222],[-0.06885416666666669,0.21518518518518526],[-0.07718750000000002,0.22111111111111106],[-0.07666666666666669,0.23074074074074077],[-0.07614583333333336,0.2403703703703703],[-0.07572916666666671,0.2324074074074074],[-0.07364583333333338,0.2331481481481481],[-0.06812499999999998,0.2553703703703703],[-0.06666666666666667,0.26296296296296295],[-0.06979166666666667,0.22611111111111115],[-0.06979166666666667,0.22611111111111115],[-0.06437499999999995,0.2300000000000001],[-0.05635416666666669,0.27814814814814826],[-0.05635416666666669,0.27814814814814826],[-0.04750000000000002,0.2540740740740742],[-0.044062499999999956,0.255925925925926],[-0.041562499999999974,0.24981481481481477],[-0.03989583333333328,0.24759259259259267],[-0.042604166666666644,0.23055555555555557],[-0.044062499999999956,0.20037037037037045],[-0.044062499999999956,0.20037037037037045],[-0.043333333333333356,0.19499999999999992],[-0.04739583333333333,0.21722222222222215],[-0.04739583333333333,0.21722222222222215],[-0.0626041666666667,0.22018518518518515],[-0.07583333333333328,0.1479629629629629],[-0.08093750000000005,0.18907407407407412],[-0.07520833333333338,0.16888888888888898],[-0.07635416666666663,0.14981481481481476],[-0.07614583333333336,0.1727777777777777],[-0.07427083333333329,0.2162962962962962],[-0.07791666666666662,0.2125925925925925],[-0.0765625,0.17814814814814822],[-0.0765625,0.17814814814814822],[-0.07489583333333331,0.17166666666666675],[-0.05677083333333333,0.16055555555555565],[-0.05677083333333333,0.16055555555555565],[-0.04864583333333338,0.1875925925925925],[-0.04864583333333338,0.1875925925925925],[-0.03854166666666667,0.14592592592592585],[-0.04229166666666669,0.1742592592592593],[-0.04229166666666669,0.1742592592592593],[-0.027291666666666714,0.17444444444444454],[-0.027291666666666714,0.17444444444444454],[-0.025,0.15648148148148147],[-0.019687499999999976,0.11370370370370367],[-0.01729166666666669,0.09666666666666675],[-0.01729166666666669,0.09666666666666675],[-0.01854166666666662,0.12888888888888894],[-0.010312499999999976,0.15148148148148138],[-0.010312499999999976,0.15148148148148138],[-0.02510416666666669,0.16518518518518527],[-0.03291666666666669,0.19685185185185178],[-0.03291666666666669,0.19685185185185178],[-0.026250000000000048,0.17444444444444454],[-0.026145833333333358,0.1735185185185186],[-0.03697916666666667,0.20759259259259263],[-0.028958333333333287,0.16018518518518518],[-0.028958333333333287,0.16018518518518518],[-0.022916666666666665,0.16277777777777774],[-0.011041666666666691,0.17629629629629637],[-0.002708333333333357,0.14648148148148152],[-0.002708333333333357,0.14648148148148152],[-0.008020833333333382,0.1337037037037038],[0.004166666666666667,0.11685185185185189],[0.019895833333333356,0.048333333333333374],[0.006562499999999953,0.11444444444444436],[0.006562499999999953,0.11444444444444436],[0.0068750000000000235,0.12185185185185177],[0.00791666666666669,0.13351851851851856],[-0.0012500000000000473,0.17592592592592593],[-0.011458333333333333,0.19314814814814807],[-0.011458333333333333,0.19314814814814807],[-0.022291666666666644,0.22388888888888886],[-0.03218749999999997,0.2640740740740741],[-0.03218749999999997,0.2640740740740741],[-0.016354166666666715,0.2351851851851852],[-0.016354166666666715,0.2351851851851852],[-0.011562500000000024,0.25314814814814823],[-0.019479166666666714,0.2983333333333334],[-0.020624999999999952,0.2683333333333333],[-0.017812500000000023,0.2294444444444444],[-0.01572916666666669,0.18629629629629635],[-0.01572916666666669,0.18629629629629635],[-0.010104166666666714,0.16611111111111118],[0.0007291666666667141,0.1544444444444444],[0.002395833333333286,0.1581481481481481],[0.0020833333333333333,0.1492592592592593],[0.0171875,0.06574074074074074],[0.027708333333333356,0.0035185185185184764],[0.02687499999999995,0.036666666666666584],[0.026145833333333358,0.08555555555555563],[0.026145833333333358,0.08555555555555563],[0.026145833333333358,0.11074074074074065],[0.03312499999999995,0.11500000000000005],[0.04614583333333329,0.09444444444444444],[0.0375,0.0985185185185186],[0.03802083333333333,0.07351851851851861],[0.02833333333333338,0.08092592592592601],[-0.00927083333333331,0.21351851851851844],[-0.024895833333333308,0.24351851851851852],[-0.021041666666666715,0.19296296296296306],[-0.024687500000000046,0.14814814814814814],[-0.01729166666666669,0.10481481481481486],[-0.010625000000000048,0.057777777777777865],[-0.024062500000000025,0.07666666666666662],[-0.021041666666666715,0.062407407407407495],[-0.018020833333333285,0.04814814814814815],[-0.00635416666666669,0.03037037037037033],[0.005312500000000024,0.012592592592592508],[0.0046875,0.010925925925925884],[0.003541666666666643,-0.006296296296296254],[0.0006250000000000236,-0.01314814814814819],[-0.011562500000000024,0.003888888888888931],[-0.03156249999999995,0.05018518518518523],[-0.0375,0.05537037037037033],[-0.03999999999999997,0.041666666666666664],[-0.03781249999999995,0.03814814814814819],[-0.03781249999999995,0.03814814814814819],[-0.02833333333333338,-0.0003703703703704546],[-0.017083333333333308,-0.04314814814814806],[-0.009062500000000048,-0.06629629629629631],[-0.00614583333333331,-0.05851851851851856],[0.00604166666666662,-0.0668518518518519],[0.0005208333333333333,-0.04462962962962967],[0.008437500000000023,-0.04055555555555551],[0.014999999999999977,-0.04814814814814815],[0.02020833333333331,-0.004629629629629629],[0.019270833333333334,0.02759259259259255],[0.014374999999999952,0.05314814814814823],[0.007708333333333309,0.08296296296296288],[0.0032291666666666905,0.12722222222222232],[-0.0048958333333333805,0.18722222222222226],[-0.012395833333333309,0.24296296296296305],[-0.012395833333333309,0.24296296296296305],[-0.00604166666666662,0.2627777777777777],[-0.01270833333333338,0.2785185185185185],[-0.018020833333333285,0.305925925925926],[-0.021458333333333357,0.331111111111111],[-0.021458333333333357,0.331111111111111],[-0.0234375,0.3574074074074074],[-0.029270833333333357,0.39944444444444455],[-0.034895833333333334,0.43870370370370365],[-0.03770833333333338,0.46518518518518526],[-0.03770833333333338,0.46518518518518526],[-0.026145833333333358,0.45500000000000007],[-0.024791666666666618,0.45018518518518524],[-0.026041666666666668,0.43444444444444447],[-0.023958333333333335,0.4335185185185186],[-0.021875,0.44296296296296306],[-0.024687500000000046,0.4272222222222223],[-0.021875,0.4024074074074073],[-0.01593749999999995,0.37777777777777777],[-0.01593749999999995,0.37777777777777777],[-0.018020833333333285,0.37462962962962953],[-0.022916666666666665,0.38425925925925924],[-0.035312499999999976,0.40018518518518525],[-0.03812500000000003,0.41500000000000004],[-0.040625,0.42296296296296293],[-0.0453125,0.4337037037037038],[-0.04364583333333331,0.44592592592592584],[-0.03958333333333333,0.4516666666666666],[-0.03885416666666662,0.4594444444444445],[-0.03885416666666662,0.4594444444444445],[-0.03812500000000003,0.46722222222222215],[-0.0265625,0.4449999999999999],[-0.01895833333333338,0.41944444444444445],[-0.00947916666666669,0.37759259259259254],[-0.00614583333333331,0.34],[0.001979166666666643,0.3314814814814815],[0.0067708333333333336,0.33907407407407414]]","[[-0.06989583333333335,0.4861111111111111,0.00020000000298381337],[-0.06749999999999995,0.4994444444444445,0.03650000000000375],[-0.06749999999999995,0.4994444444444445,0.044200000002980744],[-0.057187499999999974,0.522962962962963,0.06090000000595808],[-0.05322916666666669,0.5335185185185186,0.07750000000000057],[-0.05020833333333338,0.5370370370370371,0.09529999999701744],[-0.04572916666666664,0.5462962962962963,0.1109999999999971],[-0.041770833333333354,0.5575925925925926,0.12760000000893967],[-0.040625,0.5735185185185186,0.14429999999701693],[-0.040625,0.5735185185185186,0.16079999999701755],[-0.03229166666666667,0.5964814814814815,0.17760000000894394],[-0.025625000000000023,0.6022222222222223,0.19440000000596314],[-0.028125,0.5953703703703703,0.21460000000894297],[-0.028541666666666642,0.5888888888888889,0.22999999999999687],[-0.028541666666666642,0.5888888888888889,0.24410000000894172],[-0.035000000000000024,0.5755555555555555,0.2609000000059609],[-0.0359375,0.5724074074074075,0.27760000000893825],[-0.03864583333333336,0.5707407407407408,0.297799999997018],[-0.03864583333333336,0.5707407407407408,0.3109000000059581],[-0.044062499999999956,0.55,0.3276000000089425],[-0.04614583333333329,0.5455555555555556,0.3482000000029828],[-0.04614583333333329,0.5455555555555556,0.3607999999970204],[-0.04114583333333333,0.5392592592592593,0.37770000000298154],[-0.046875,0.5216666666666667,0.3967000000029799],[-0.058541666666666714,0.5068518518518519,0.41499999999999915],[-0.05916666666666662,0.5057407407407408,0.43110000000893933],[-0.059791666666666646,0.5046296296296297,0.4444999999999979],[-0.06229166666666662,0.5001851851851852,0.4609999999999985],[-0.05770833333333331,0.49962962962962953,0.47820000000297824],[-0.053125,0.49907407407407406,0.4942000000029836],[-0.0484375,0.5131481481481482,0.512400000005961],[-0.04708333333333338,0.5109259259259259,0.5277000000029801],[-0.051250000000000046,0.5022222222222223,0.5465000000000018],[-0.05166666666666669,0.49314814814814806,0.5614000000059605],[-0.04906250000000002,0.4935185185185185,0.5775000000000006],[-0.04906250000000002,0.4935185185185185,0.5942000000029779],[-0.04718749999999995,0.4925925925925926,0.6109999999999971],[-0.042708333333333334,0.4955555555555556,0.6274999999999977],[-0.04083333333333338,0.4927777777777778,0.646600000008938],[-0.04083333333333338,0.4927777777777778,0.6609000000059595],[-0.04125000000000002,0.48870370370370364,0.6776000000089439],[-0.044479166666666715,0.477962962962963,0.6942000000029793],[-0.04791666666666667,0.46722222222222215,0.7134000000059615],[-0.050937499999999976,0.4596296296296297,0.7291000000089412],[-0.05166666666666669,0.45999999999999996,0.7442999999970183],[-0.05270833333333336,0.46037037037037043,0.7632000000029819],[-0.051250000000000046,0.45981481481481473,0.7787999999970197],[-0.049583333333333354,0.46111111111111114,0.7981000000089438],[-0.049583333333333354,0.46111111111111114,0.8109999999999999],[-0.050520833333333334,0.45851851851851855,0.8276000000089425],[-0.05291666666666662,0.4572222222222222,0.8442000000029779],[-0.06052083333333336,0.4507407407407407,0.8607999999970204],[-0.06291666666666665,0.45444444444444443,0.877400000005963],[-0.06395833333333331,0.4553703703703703,0.8947999999970193],[-0.06677083333333336,0.4487037037037036,0.9132999999970224],[-0.06677083333333336,0.4487037037037036,0.927500000000002],[-0.06958333333333329,0.4420370370370371,0.9442000000029793],[-0.07166666666666661,0.44000000000000006,0.9632000000029777],[-0.06947916666666672,0.4474074074074075,0.9799999999999969],[-0.06947916666666672,0.4474074074074075,0.9942000000029836],[-0.06781250000000003,0.4540740740740742,1.0110000000000028],[-0.07010416666666662,0.4583333333333333,1.0275000000000034],[-0.07458333333333336,0.44944444444444454,1.0442000000029807],[-0.07906249999999998,0.44055555555555553,1.061100000008942],[-0.08062499999999997,0.44759259259259265,1.0775000000000006],[-0.08218749999999998,0.4546296296296296,1.094200000002978],[-0.08374999999999998,0.45740740740740743,1.1109000000059623],[-0.08531249999999997,0.4601851851851852,1.1299000000059607],[-0.08093750000000005,0.4794444444444444,1.1449000000059613],[-0.08093750000000005,0.4794444444444444,1.1607999999970176],[-0.08427083333333331,0.47481481481481475,1.177500000000002],[-0.08635416666666665,0.47074074074074085,1.1942000000029793],[-0.08447916666666669,0.469074074074074,1.2135000000000034],[-0.07354166666666669,0.49000000000000005,1.2287000000029806],[-0.0626041666666667,0.5109259259259259,1.2442000000029836],[-0.05697916666666671,0.5124074074074075,1.260799999997019],[-0.05625,0.5074074074074074,1.2775000000000034],[-0.05499999999999995,0.5133333333333334,1.2942000000029807],[-0.05291666666666662,0.5237037037037037,1.3125],[-0.057187499999999974,0.512962962962963,1.3277999999970191],[-0.05447916666666662,0.5192592592592592,1.3454000000059594],[-0.057604166666666616,0.5157407407407407,1.3609000000059623],[-0.059375,0.5192592592592592,1.3776000000089397],[-0.06395833333333331,0.5177777777777778,1.3944000000059589],[-0.06802083333333328,0.5175925925925926,1.4122999999970176],[-0.06791666666666671,0.5137037037037037,1.429799999997023],[-0.06479166666666672,0.5238888888888888,1.4452999999970189],[-0.06083333333333331,0.5318518518518519,1.4647999999970196],[-0.06375000000000004,0.5270370370370371,1.4804000000059574],[-0.06375000000000004,0.5270370370370371,1.4942000000029836],[-0.06666666666666667,0.5222222222222223,1.5110000000000028],[-0.06614583333333333,0.5172222222222221,1.5326000000089408],[-0.06468750000000002,0.5174074074074073,1.5491000000089414],[-0.06395833333333331,0.51,1.5642000000029839],[-0.06395833333333331,0.51,1.5776000000089425],[-0.06322916666666671,0.5025925925925926,1.594200000002978],[-0.06239583333333331,0.5012962962962964,1.6109000000059623],[-0.06291666666666665,0.5057407407407408,1.6276000000089397],[-0.06156250000000003,0.5025925925925926,1.644299999997017],[-0.06020833333333329,0.4994444444444445,1.6607999999970176],[-0.05656249999999995,0.5046296296296297,1.6807999999970207],[-0.05291666666666662,0.5098148148148147,1.696799999997019],[-0.05291666666666662,0.5098148148148147,1.7107999999970218],[-0.051979166666666646,0.5164814814814814,1.7274999999999991],[-0.049479166666666664,0.5264814814814814,1.7442000000029836],[-0.049479166666666664,0.5264814814814814,1.760799999997019],[-0.04833333333333331,0.5318518518518519,1.7776000000089383],[-0.044479166666666715,0.5427777777777778,1.7942000000029807],[-0.04833333333333331,0.5344444444444445,1.811100000008942],[-0.05499999999999995,0.524074074074074,1.8277000000029773],[-0.057083333333333285,0.5248148148148147,1.844200000002978],[-0.057604166666666616,0.5275925925925925,1.8607999999970204],[-0.05666666666666664,0.5212962962962963,1.8776000000089397],[-0.05572916666666667,0.515,1.894299999997017],[-0.05479166666666669,0.515925925925926,1.9139000000059596],[-0.05427083333333336,0.5148148148148148,1.930500000000002],[-0.05302083333333331,0.518888888888889,1.9442999999970212],[-0.051041666666666666,0.5194444444444445,1.9647000000029777],[-0.041979166666666616,0.5318518518518519,1.9796000000089435],[-0.041979166666666616,0.5318518518518519,1.9941000000089417],[-0.04041666666666662,0.5344444444444445,2.010799999997019],[-0.03885416666666662,0.5335185185185186,2.0275000000000034],[-0.03885416666666662,0.5305555555555556,2.0442999999970226],[-0.036562500000000026,0.5366666666666666,2.060900000005958],[-0.03812500000000003,0.5383333333333334,2.0776000000089425],[-0.043958333333333384,0.530925925925926,2.0954000000059594],[-0.04020833333333336,0.5270370370370371,2.1107999999970204],[-0.036458333333333336,0.5231481481481481,2.1276000000089397],[-0.04083333333333338,0.524074074074074,2.1461000000089427],[-0.04083333333333338,0.524074074074074,2.1607999999970176],[-0.04500000000000005,0.5224074074074074,2.177500000000002],[-0.04635416666666667,0.5225925925925927,2.1955000000000027],[-0.04635416666666667,0.5225925925925927,2.219799999997022],[-0.04645833333333336,0.512962962962963,2.2334000000059575],[-0.04750000000000002,0.5112962962962964,2.2475000000000023],[-0.04916666666666671,0.5079629629629628,2.2621000000089424],[-0.04562499999999995,0.5044444444444444,2.27920000000298],[-0.05802083333333338,0.49611111111111106,2.2976000000089414],[-0.06635416666666671,0.4838888888888888,2.3137999999970233],[-0.06635416666666671,0.4838888888888888,2.330900000005961],[-0.07604166666666666,0.47388888888888886,2.3442999999970198],[-0.0796875,0.4618518518518518,2.360999999999997],[-0.0828125,0.4514814814814814,2.384299999997019],[-0.0828125,0.4514814814814814,2.394400000005959],[-0.0890625,0.44944444444444454,2.4111000000089433],[-0.08489583333333334,0.45388888888888895,2.4279999999999973],[-0.07979166666666669,0.4503703703703705,2.4496000000089424],[-0.0875,0.42314814814814816,2.464299999997017],[-0.0875,0.42314814814814816,2.477600000008941],[-0.08885416666666662,0.4233333333333334,2.4944000000059603],[-0.07760416666666667,0.4168518518518519,2.5134000000059586],[-0.07416666666666671,0.4212962962962963,2.52770000000298],[-0.06864583333333331,0.42166666666666675,2.5442999999970226],[-0.0672916666666667,0.41500000000000004,2.5612999999970185],[-0.07072916666666665,0.4140740740740741,2.5799000000059635],[-0.06218750000000005,0.39277777777777784,2.5942999999970198],[-0.06760416666666665,0.3853703703703704,2.611200000002981],[-0.07302083333333335,0.377962962962963,2.631200000002984],[-0.06812499999999998,0.38981481481481484,2.6445000000000007],[-0.07093750000000003,0.37888888888888894,2.6610000000000014],[-0.07354166666666669,0.3668518518518519,2.685100000008944],[-0.07354166666666669,0.3668518518518519,2.694299999997021],[-0.08406250000000005,0.3427777777777778,2.7111000000089405],[-0.09427083333333333,0.331111111111111,2.7277999999970177],[-0.1016666666666667,0.3248148148148148,2.747600000008944],[-0.10510416666666664,0.3133333333333334,2.761700000002982],[-0.11270833333333338,0.3218518518518518,2.77770000000298],[-0.11604166666666664,0.3168518518518519,2.79790000000596],[-0.11604166666666664,0.3168518518518519,2.811],[-0.1219791666666667,0.28888888888888886,2.8277000000029773],[-0.1219791666666667,0.28888888888888886,2.8442999999970198],[-0.12791666666666662,0.28833333333333344,2.863299999997018],[-0.13333333333333333,0.27314814814814814,2.88060000000894],[-0.13562500000000005,0.2705555555555556,2.8962000000029775],[-0.13562500000000005,0.2705555555555556,2.9132999999970224],[-0.128125,0.26944444444444443,2.9277000000029787],[-0.12843749999999995,0.24592592592592585,2.944299999997021],[-0.12875000000000003,0.2192592592592592,2.9639999999999986],[-0.12156250000000005,0.1985185185185186,2.97829999999702],[-0.11437499999999995,0.17777777777777778,2.9944000000059603],[-0.12041666666666669,0.13851851851851843,3.013200000002982],[-0.11843750000000004,0.11925925925925922,3.0275000000000034],[-0.11333333333333329,0.11388888888888889,3.0442999999970226],[-0.10677083333333333,0.13407407407407404,3.060900000005958],[-0.11041666666666666,0.11999999999999991,3.0797999999970216],[-0.11062500000000004,0.09740740740740746,3.094100000008943],[-0.10510416666666664,0.09185185185185189,3.1109000000059623],[-0.09958333333333336,0.08629629629629634,3.1309000000059584],[-0.09885416666666665,0.09518518518518514,3.1469999999999985],[-0.09916666666666671,0.10537037037037032,3.163499999999999],[-0.09281250000000002,0.1294444444444444,3.177500000000002],[-0.0921875,0.15185185185185185,3.1962000000029818],[-0.08999999999999998,0.12962962962962962,3.214400000005959],[-0.0967708333333333,0.1,3.229100000008941],[-0.08739583333333331,0.10629629629629625,3.2481000000089395],[-0.08760416666666669,0.10611111111111103,3.263799999997019],[-0.0858333333333333,0.10259259259259255,3.279299999997022],[-0.08406250000000005,0.09907407407407408,3.2999000000059624],[-0.08406250000000005,0.09907407407407408,3.3107999999970232],[-0.07760416666666667,0.11185185185185181,3.3277000000029773],[-0.08083333333333335,0.13407407407407404,3.351900000005962],[-0.08083333333333335,0.13407407407407404,3.3609000000059623],[-0.08562500000000005,0.125,3.3777000000029815],[-0.09093749999999995,0.0911111111111112,3.394200000002982],[-0.09416666666666665,0.10777777777777786,3.4134000000059643],[-0.09031250000000005,0.09222222222222214,3.427600000008944],[-0.09249999999999996,0.0985185185185186,3.4442000000029793],[-0.09375,0.12259259259259268,3.46520000000298],[-0.0875,0.17703703703703708,3.4802000000029807],[-0.08427083333333331,0.24055555555555552,3.4974000000059604],[-0.08624999999999995,0.2833333333333333,3.5129000000059634],[-0.08177083333333333,0.2831481481481481,3.5275000000000034],[-0.07562500000000003,0.32611111111111113,3.5477000000029832],[-0.06885416666666669,0.37592592592592594,3.563200000002979],[-0.06083333333333331,0.3985185185185186,3.578100000008938],[-0.051145833333333356,0.4503703703703705,3.5952999999970174],[-0.03885416666666662,0.4816666666666667,3.6107999999970204],[-0.030416666666666713,0.49166666666666664,3.6274999999999977],[-0.030416666666666713,0.46944444444444444,3.6445000000000007],[-0.027395833333333286,0.4381481481481482,3.6632999999970224],[-0.03187500000000002,0.38333333333333336,3.6799999999999997],[-0.03208333333333328,0.36074074074074064,3.6942000000029793],[-0.029166666666666667,0.3514814814814814,3.715299999997022],[-0.030520833333333285,0.32018518518518513,3.7302000000029807],[-0.030520833333333285,0.32018518518518513,3.7442999999970183],[-0.03781249999999995,0.2824074074074074,3.761000000000003],[-0.04614583333333329,0.2598148148148147,3.7822000000029803],[-0.058854166666666666,0.2074074074074074,3.7981000000089438],[-0.058854166666666666,0.2074074074074074,3.8107999999970232],[-0.06791666666666671,0.17018518518518513,3.8312000000029798],[-0.07437499999999998,0.15833333333333333,3.845700000002978],[-0.08083333333333335,0.14648148148148152,3.8609000000059623],[-0.08520833333333329,0.12222222222222222,3.8774999999999977],[-0.08958333333333333,0.09796296296296292,3.894299999997017],[-0.09572916666666664,0.06370370370370367,3.9107999999970176],[-0.09593750000000002,0.06537037037037029,3.927600000008944],[-0.09343750000000005,0.10111111111111115,3.9489000000059633],[-0.09979166666666663,0.05740740740740741,3.9647000000029777],[-0.10427083333333335,0.04055555555555551,3.980100000008939],[-0.10760416666666663,0.05129629629629638,4.000200000002984],[-0.10760416666666663,0.05129629629629638,4.011000000000003],[-0.10895833333333335,0.03296296296296288,4.027600000008938],[-0.11260416666666669,0.01722222222222214,4.044299999997023],[-0.11291666666666664,0.021851851851851768,4.064200000002984],[-0.11291666666666664,0.021851851851851768,4.077500000000001],[-0.11104166666666669,0.06018518518518518,4.094200000002978],[-0.10395833333333329,0.08055555555555556,4.112499999999997],[-0.09697916666666669,0.09314814814814806,4.131100000008942],[-0.09916666666666671,0.06314814814814819,4.146600000008938],[-0.09916666666666671,0.06314814814814819,4.1607999999970176],[-0.09322916666666667,0.09685185185185177,4.177500000000002],[-0.08718750000000004,0.14814814814814814,4.194200000002979],[-0.08104166666666662,0.16351851851851842,4.210900000005964],[-0.08093750000000005,0.18499999999999997,4.227700000002983],[-0.07447916666666667,0.21851851851851853,4.244100000008942],[-0.06802083333333328,0.25203703703703706,4.260799999997019],[-0.06510416666666667,0.2322222222222222,4.277500000000003],[-0.06885416666666669,0.21518518518518526,4.29679999999702],[-0.07718750000000002,0.22111111111111106,4.313100000008944],[-0.07666666666666669,0.23074074074074077,4.330299999997017],[-0.07614583333333336,0.2403703703703703,4.344100000008943],[-0.07572916666666671,0.2324074074074074,4.36079999999702],[-0.07364583333333338,0.2331481481481481,4.377499999999998],[-0.06812499999999998,0.2553703703703703,4.394299999997017],[-0.06666666666666667,0.26296296296296295,4.414600000008939],[-0.06979166666666667,0.22611111111111115,4.4315],[-0.06979166666666667,0.22611111111111115,4.444200000002979],[-0.06437499999999995,0.2300000000000001,4.4609999999999985],[-0.05635416666666669,0.27814814814814826,4.480200000002981],[-0.05635416666666669,0.27814814814814826,4.494200000002984],[-0.04750000000000002,0.2540740740740742,4.511100000008938],[-0.044062499999999956,0.255925925925926,4.533500000000004],[-0.041562499999999974,0.24981481481481477,4.547700000002983],[-0.03989583333333328,0.24759259259259267,4.563100000008944],[-0.042604166666666644,0.23055555555555557,4.5776000000089425],[-0.044062499999999956,0.20037037037037045,4.597999999999999],[-0.044062499999999956,0.20037037037037045,4.610900000005962],[-0.043333333333333356,0.19499999999999992,4.627499999999998],[-0.04739583333333333,0.21722222222222215,4.645299999997022],[-0.04739583333333333,0.21722222222222215,4.6607999999970176],[-0.0626041666666667,0.22018518518518515,4.677500000000002],[-0.07583333333333328,0.1479629629629629,4.695700000002979],[-0.08093750000000005,0.18907407407407412,4.715100000008938],[-0.07520833333333338,0.16888888888888898,4.731200000002978],[-0.07635416666666663,0.14981481481481476,4.7481000000089395],[-0.07614583333333336,0.1727777777777777,4.763200000002982],[-0.07427083333333329,0.2162962962962962,4.777900000005964],[-0.07791666666666662,0.2125925925925925,4.797499999999999],[-0.0765625,0.17814814814814822,4.813400000005963],[-0.0765625,0.17814814814814822,4.8276000000089425],[-0.07489583333333331,0.17166666666666675,4.847799999997022],[-0.05677083333333333,0.16055555555555565,4.865799999997023],[-0.05677083333333333,0.16055555555555565,4.8777000000029815],[-0.04864583333333338,0.1875925925925925,4.89710000000894],[-0.04864583333333338,0.1875925925925925,4.911100000008943],[-0.03854166666666667,0.14592592592592585,4.927700000002979],[-0.04229166666666669,0.1742592592592593,4.944299999997021],[-0.04229166666666669,0.1742592592592593,4.964400000005959],[-0.027291666666666714,0.17444444444444454,4.977499999999999],[-0.027291666666666714,0.17444444444444454,4.994100000008942],[-0.025,0.15648148148148147,5.011000000000003],[-0.019687499999999976,0.11370370370370367,5.0290000000000035],[-0.01729166666666669,0.09666666666666675,5.048400000005962],[-0.01729166666666669,0.09666666666666675,5.060900000005958],[-0.01854166666666662,0.12888888888888894,5.077500000000001],[-0.010312499999999976,0.15148148148148138,5.098200000002983],[-0.010312499999999976,0.15148148148148138,5.110900000005962],[-0.02510416666666669,0.16518518518518527,5.1277000000029815],[-0.03291666666666669,0.19685185185185178,5.150500000000001],[-0.03291666666666669,0.19685185185185178,5.1609000000059595],[-0.026250000000000048,0.17444444444444454,5.177700000002979],[-0.026145833333333358,0.1735185185185186,5.194299999997021],[-0.03697916666666667,0.20759259259259263,5.210900000005964],[-0.028958333333333287,0.16018518518518518,5.232500000000002],[-0.028958333333333287,0.16018518518518518,5.244200000002984],[-0.022916666666666665,0.16277777777777774,5.261100000008938],[-0.011041666666666691,0.17629629629629637,5.277600000008938],[-0.002708333333333357,0.14648148148148152,5.29829999999702],[-0.002708333333333357,0.14648148148148152,5.311],[-0.008020833333333382,0.1337037037037038,5.327700000002977],[0.004166666666666667,0.11685185185185189,5.34770000000298],[0.019895833333333356,0.048333333333333374,5.365700000002981],[0.006562499999999953,0.11444444444444436,5.381600000008945],[0.006562499999999953,0.11444444444444436,5.394200000002982],[0.0068750000000000235,0.12185185185185177,5.414799999997022],[0.00791666666666669,0.13351851851851856,5.430500000000002],[-0.0012500000000000473,0.17592592592592593,5.446200000002982],[-0.011458333333333333,0.19314814814814807,5.466999999999999],[-0.011458333333333333,0.19314814814814807,5.477700000002983],[-0.022291666666666644,0.22388888888888886,5.495100000008939],[-0.03218749999999997,0.2640740740740741,5.519400000005959],[-0.03218749999999997,0.2640740740740741,5.52770000000298],[-0.016354166666666715,0.2351851851851852,5.5444000000059575],[-0.016354166666666715,0.2351851851851852,5.560900000005958],[-0.011562500000000024,0.25314814814814823,5.577700000002977],[-0.019479166666666714,0.2983333333333334,5.595299999997017],[-0.020624999999999952,0.2683333333333333,5.612100000008944],[-0.017812500000000023,0.2294444444444444,5.631100000008942],[-0.01572916666666669,0.18629629629629635,5.646000000000001],[-0.01572916666666669,0.18629629629629635,5.660700000002983],[-0.010104166666666714,0.16611111111111118,5.677500000000002],[0.0007291666666667141,0.1544444444444444,5.694100000008945],[0.002395833333333286,0.1581481481481481,5.714299999997017],[0.0020833333333333333,0.1492592592592593,5.728600000008939],[0.0171875,0.06574074074074074,5.744200000002984],[0.027708333333333356,0.0035185185185184764,5.761000000000003],[0.02687499999999995,0.036666666666666584,5.777500000000003],[0.026145833333333358,0.08555555555555563,5.797700000002983],[0.026145833333333358,0.08555555555555563,5.810700000002981],[0.026145833333333358,0.11074074074074065,5.827400000005959],[0.03312499999999995,0.11500000000000005,5.844100000008943],[0.04614583333333329,0.09444444444444444,5.86079999999702],[0.0375,0.0985185185185186,5.877499999999998],[0.03802083333333333,0.07351851851851861,5.894200000002982],[0.02833333333333338,0.08092592592592601,5.9109000000059595],[-0.00927083333333331,0.21351851851851844,5.927500000000002],[-0.024895833333333308,0.24351851851851852,5.944100000008945],[-0.021041666666666715,0.19296296296296306,5.9642000000029824],[-0.024687500000000046,0.14814814814814814,5.979100000008941],[-0.01729166666666669,0.10481481481481486,5.994200000002984],[-0.010625000000000048,0.057777777777777865,6.011900000005959],[-0.024062500000000025,0.07666666666666662,6.0274000000059615],[-0.021041666666666715,0.062407407407407495,6.044100000008939],[-0.018020833333333285,0.04814814814814815,6.060799999997023],[-0.00635416666666669,0.03037037037037033,6.077500000000001],[0.005312500000000024,0.012592592592592508,6.094100000008943],[0.0046875,0.010925925925925884,6.11079999999702],[0.003541666666666643,-0.006296296296296254,6.130900000005958],[0.0006250000000000236,-0.01314814814814819,6.144200000002982],[-0.011562500000000024,0.003888888888888931,6.1607999999970176],[-0.03156249999999995,0.05018518518518523,6.177500000000002],[-0.0375,0.05537037037037033,6.194200000002979],[-0.03999999999999997,0.041666666666666664,6.210900000005964],[-0.03781249999999995,0.03814814814814819,6.230200000002981],[-0.03781249999999995,0.03814814814814819,6.244100000008942],[-0.02833333333333338,-0.0003703703703704546,6.260799999997019],[-0.017083333333333308,-0.04314814814814806,6.277500000000003],[-0.009062500000000048,-0.06629629629629631,6.294200000002981],[-0.00614583333333331,-0.05851851851851856,6.311],[0.00604166666666662,-0.0668518518518519,6.327500000000001],[0.0005208333333333333,-0.04462962962962967,6.344200000002978],[0.008437500000000023,-0.04055555555555551,6.36079999999702],[0.014999999999999977,-0.04814814814814815,6.377499999999998],[0.02020833333333331,-0.004629629629629629,6.3962000000029775],[0.019270833333333334,0.02759259259259255,6.4109000000059595],[0.014374999999999952,0.05314814814814823,6.4279000000059625],[0.007708333333333309,0.08296296296296288,6.444200000002979],[0.0032291666666666905,0.12722222222222232,6.460799999997022],[-0.0048958333333333805,0.18722222222222226,6.480499999999999],[-0.012395833333333309,0.24296296296296305,6.4989000000059605],[-0.012395833333333309,0.24296296296296305,6.510900000005961],[-0.00604166666666662,0.2627777777777777,6.527600000008938],[-0.01270833333333338,0.2785185185185185,6.546500000000002],[-0.018020833333333285,0.305925925925926,6.560799999997023],[-0.021458333333333357,0.331111111111111,6.577400000005959],[-0.021458333333333357,0.331111111111111,6.594100000008943],[-0.0234375,0.3574074074074074,6.610900000005962],[-0.029270833333333357,0.39944444444444455,6.627400000005963],[-0.034895833333333334,0.43870370370370365,6.644200000002982],[-0.03770833333333338,0.46518518518518526,6.6607999999970176],[-0.03770833333333338,0.46518518518518526,6.67740000000596],[-0.026145833333333358,0.45500000000000007,6.694200000002979],[-0.024791666666666618,0.45018518518518524,6.715000000000003],[-0.026041666666666668,0.43444444444444447,6.728700000002981],[-0.023958333333333335,0.4335185185185186,6.744200000002984],[-0.021875,0.44296296296296306,6.7627000000029796],[-0.024687500000000046,0.4272222222222223,6.777600000008938],[-0.021875,0.4024074074074073,6.797600000008941],[-0.01593749999999995,0.37777777777777777,6.81360000000894],[-0.01593749999999995,0.37777777777777777,6.827299999997017],[-0.018020833333333285,0.37462962962962953,6.844200000002978],[-0.022916666666666665,0.38425925925925924,6.860900000005962],[-0.035312499999999976,0.40018518518518525,6.877400000005963],[-0.03812500000000003,0.41500000000000004,6.894600000008943],[-0.040625,0.42296296296296293,6.9109000000059595],[-0.0453125,0.4337037037037038,6.927500000000002],[-0.04364583333333331,0.44592592592592584,6.944100000008945],[-0.03958333333333333,0.4516666666666666,6.964400000005959],[-0.03885416666666662,0.4594444444444445,6.979999999999997],[-0.03885416666666662,0.4594444444444445,6.994200000002984],[-0.03812500000000003,0.46722222222222215,7.010900000005961],[-0.0265625,0.4449999999999999,7.027500000000003],[-0.01895833333333338,0.41944444444444445,7.044100000008939],[-0.00947916666666669,0.37759259259259254,7.061999999999998],[-0.00614583333333331,0.34,7.077500000000001],[0.001979166666666643,0.3314814814814815,7.094200000002978],[0.0067708333333333336,0.33907407407407414,7.110900000005962]]","[0.00020000000298381337,0.03650000000000375,0.044200000002980744,0.06090000000595808,0.07750000000000057,0.09529999999701744,0.1109999999999971,0.12760000000893967,0.14429999999701693,0.16079999999701755,0.17760000000894394,0.19440000000596314,0.21460000000894297,0.22999999999999687,0.24410000000894172,0.2609000000059609,0.27760000000893825,0.297799999997018,0.3109000000059581,0.3276000000089425,0.3482000000029828,0.3607999999970204,0.37770000000298154,0.3967000000029799,0.41499999999999915,0.43110000000893933,0.4444999999999979,0.4609999999999985,0.47820000000297824,0.4942000000029836,0.512400000005961,0.5277000000029801,0.5465000000000018,0.5614000000059605,0.5775000000000006,0.5942000000029779,0.6109999999999971,0.6274999999999977,0.646600000008938,0.6609000000059595,0.6776000000089439,0.6942000000029793,0.7134000000059615,0.7291000000089412,0.7442999999970183,0.7632000000029819,0.7787999999970197,0.7981000000089438,0.8109999999999999,0.8276000000089425,0.8442000000029779,0.8607999999970204,0.877400000005963,0.8947999999970193,0.9132999999970224,0.927500000000002,0.9442000000029793,0.9632000000029777,0.9799999999999969,0.9942000000029836,1.0110000000000028,1.0275000000000034,1.0442000000029807,1.061100000008942,1.0775000000000006,1.094200000002978,1.1109000000059623,1.1299000000059607,1.1449000000059613,1.1607999999970176,1.177500000000002,1.1942000000029793,1.2135000000000034,1.2287000000029806,1.2442000000029836,1.260799999997019,1.2775000000000034,1.2942000000029807,1.3125,1.3277999999970191,1.3454000000059594,1.3609000000059623,1.3776000000089397,1.3944000000059589,1.4122999999970176,1.429799999997023,1.4452999999970189,1.4647999999970196,1.4804000000059574,1.4942000000029836,1.5110000000000028,1.5326000000089408,1.5491000000089414,1.5642000000029839,1.5776000000089425,1.594200000002978,1.6109000000059623,1.6276000000089397,1.644299999997017,1.6607999999970176,1.6807999999970207,1.696799999997019,1.7107999999970218,1.7274999999999991,1.7442000000029836,1.760799999997019,1.7776000000089383,1.7942000000029807,1.811100000008942,1.8277000000029773,1.844200000002978,1.8607999999970204,1.8776000000089397,1.894299999997017,1.9139000000059596,1.930500000000002,1.9442999999970212,1.9647000000029777,1.9796000000089435,1.9941000000089417,2.010799999997019,2.0275000000000034,2.0442999999970226,2.060900000005958,2.0776000000089425,2.0954000000059594,2.1107999999970204,2.1276000000089397,2.1461000000089427,2.1607999999970176,2.177500000000002,2.1955000000000027,2.219799999997022,2.2334000000059575,2.2475000000000023,2.2621000000089424,2.27920000000298,2.2976000000089414,2.3137999999970233,2.330900000005961,2.3442999999970198,2.360999999999997,2.384299999997019,2.394400000005959,2.4111000000089433,2.4279999999999973,2.4496000000089424,2.464299999997017,2.477600000008941,2.4944000000059603,2.5134000000059586,2.52770000000298,2.5442999999970226,2.5612999999970185,2.5799000000059635,2.5942999999970198,2.611200000002981,2.631200000002984,2.6445000000000007,2.6610000000000014,2.685100000008944,2.694299999997021,2.7111000000089405,2.7277999999970177,2.747600000008944,2.761700000002982,2.77770000000298,2.79790000000596,2.811,2.8277000000029773,2.8442999999970198,2.863299999997018,2.88060000000894,2.8962000000029775,2.9132999999970224,2.9277000000029787,2.944299999997021,2.9639999999999986,2.97829999999702,2.9944000000059603,3.013200000002982,3.0275000000000034,3.0442999999970226,3.060900000005958,3.0797999999970216,3.094100000008943,3.1109000000059623,3.1309000000059584,3.1469999999999985,3.163499999999999,3.177500000000002,3.1962000000029818,3.214400000005959,3.229100000008941,3.2481000000089395,3.263799999997019,3.279299999997022,3.2999000000059624,3.3107999999970232,3.3277000000029773,3.351900000005962,3.3609000000059623,3.3777000000029815,3.394200000002982,3.4134000000059643,3.427600000008944,3.4442000000029793,3.46520000000298,3.4802000000029807,3.4974000000059604,3.5129000000059634,3.5275000000000034,3.5477000000029832,3.563200000002979,3.578100000008938,3.5952999999970174,3.6107999999970204,3.6274999999999977,3.6445000000000007,3.6632999999970224,3.6799999999999997,3.6942000000029793,3.715299999997022,3.7302000000029807,3.7442999999970183,3.761000000000003,3.7822000000029803,3.7981000000089438,3.8107999999970232,3.8312000000029798,3.845700000002978,3.8609000000059623,3.8774999999999977,3.894299999997017,3.9107999999970176,3.927600000008944,3.9489000000059633,3.9647000000029777,3.980100000008939,4.000200000002984,4.011000000000003,4.027600000008938,4.044299999997023,4.064200000002984,4.077500000000001,4.094200000002978,4.112499999999997,4.131100000008942,4.146600000008938,4.1607999999970176,4.177500000000002,4.194200000002979,4.210900000005964,4.227700000002983,4.244100000008942,4.260799999997019,4.277500000000003,4.29679999999702,4.313100000008944,4.330299999997017,4.344100000008943,4.36079999999702,4.377499999999998,4.394299999997017,4.414600000008939,4.4315,4.444200000002979,4.4609999999999985,4.480200000002981,4.494200000002984,4.511100000008938,4.533500000000004,4.547700000002983,4.563100000008944,4.5776000000089425,4.597999999999999,4.610900000005962,4.627499999999998,4.645299999997022,4.6607999999970176,4.677500000000002,4.695700000002979,4.715100000008938,4.731200000002978,4.7481000000089395,4.763200000002982,4.777900000005964,4.797499999999999,4.813400000005963,4.8276000000089425,4.847799999997022,4.865799999997023,4.8777000000029815,4.89710000000894,4.911100000008943,4.927700000002979,4.944299999997021,4.964400000005959,4.977499999999999,4.994100000008942,5.011000000000003,5.0290000000000035,5.048400000005962,5.060900000005958,5.077500000000001,5.098200000002983,5.110900000005962,5.1277000000029815,5.150500000000001,5.1609000000059595,5.177700000002979,5.194299999997021,5.210900000005964,5.232500000000002,5.244200000002984,5.261100000008938,5.277600000008938,5.29829999999702,5.311,5.327700000002977,5.34770000000298,5.365700000002981,5.381600000008945,5.394200000002982,5.414799999997022,5.430500000000002,5.446200000002982,5.466999999999999,5.477700000002983,5.495100000008939,5.519400000005959,5.52770000000298,5.5444000000059575,5.560900000005958,5.577700000002977,5.595299999997017,5.612100000008944,5.631100000008942,5.646000000000001,5.660700000002983,5.677500000000002,5.694100000008945,5.714299999997017,5.728600000008939,5.744200000002984,5.761000000000003,5.777500000000003,5.797700000002983,5.810700000002981,5.827400000005959,5.844100000008943,5.86079999999702,5.877499999999998,5.894200000002982,5.9109000000059595,5.927500000000002,5.944100000008945,5.9642000000029824,5.979100000008941,5.994200000002984,6.011900000005959,6.0274000000059615,6.044100000008939,6.060799999997023,6.077500000000001,6.094100000008943,6.11079999999702,6.130900000005958,6.144200000002982,6.1607999999970176,6.177500000000002,6.194200000002979,6.210900000005964,6.230200000002981,6.244100000008942,6.260799999997019,6.277500000000003,6.294200000002981,6.311,6.327500000000001,6.344200000002978,6.36079999999702,6.377499999999998,6.3962000000029775,6.4109000000059595,6.4279000000059625,6.444200000002979,6.460799999997022,6.480499999999999,6.4989000000059605,6.510900000005961,6.527600000008938,6.546500000000002,6.560799999997023,6.577400000005959,6.594100000008943,6.610900000005962,6.627400000005963,6.644200000002982,6.6607999999970176,6.67740000000596,6.694200000002979,6.715000000000003,6.728700000002981,6.744200000002984,6.7627000000029796,6.777600000008938,6.797600000008941,6.81360000000894,6.827299999997017,6.844200000002978,6.860900000005962,6.877400000005963,6.894600000008943,6.9109000000059595,6.927500000000002,6.944100000008945,6.964400000005959,6.979999999999997,6.994200000002984,7.010900000005961,7.027500000000003,7.044100000008939,7.061999999999998,7.077500000000001,7.094200000002978,7.110900000005962]","[1733457069218,1733457069246,1733457069254,1733457069271,1733457069287,1733457069305,1733457069321,1733457069337,1733457069354,1733457069370,1733457069387,1733457069404,1733457069424,1733457069440,1733457069454,1733457069471,1733457069487,1733457069507,1733457069520,1733457069537,1733457069558,1733457069570,1733457069587,1733457069606,1733457069625,1733457069641,1733457069654,1733457069671,1733457069688,1733457069704,1733457069722,1733457069737,1733457069756,1733457069771,1733457069787,1733457069804,1733457069821,1733457069837,1733457069856,1733457069870,1733457069887,1733457069904,1733457069923,1733457069939,1733457069954,1733457069973,1733457069988,1733457070008,1733457070021,1733457070037,1733457070054,1733457070070,1733457070087,1733457070104,1733457070123,1733457070137,1733457070154,1733457070173,1733457070190,1733457070204,1733457070221,1733457070237,1733457070254,1733457070271,1733457070287,1733457070304,1733457070320,1733457070340,1733457070354,1733457070370,1733457070387,1733457070404,1733457070423,1733457070438,1733457070454,1733457070470,1733457070487,1733457070504,1733457070522,1733457070537,1733457070555,1733457070570,1733457070587,1733457070604,1733457070622,1733457070639,1733457070655,1733457070674,1733457070690,1733457070704,1733457070721,1733457070742,1733457070759,1733457070774,1733457070787,1733457070804,1733457070821,1733457070837,1733457070854,1733457070870,1733457070890,1733457070906,1733457070920,1733457070937,1733457070954,1733457070970,1733457070987,1733457071004,1733457071021,1733457071037,1733457071054,1733457071070,1733457071087,1733457071104,1733457071123,1733457071140,1733457071154,1733457071174,1733457071189,1733457071204,1733457071220,1733457071237,1733457071254,1733457071270,1733457071287,1733457071305,1733457071320,1733457071337,1733457071356,1733457071370,1733457071387,1733457071405,1733457071429,1733457071443,1733457071457,1733457071472,1733457071489,1733457071507,1733457071523,1733457071541,1733457071554,1733457071571,1733457071594,1733457071604,1733457071621,1733457071638,1733457071659,1733457071674,1733457071687,1733457071704,1733457071723,1733457071737,1733457071754,1733457071771,1733457071789,1733457071804,1733457071821,1733457071841,1733457071854,1733457071871,1733457071895,1733457071904,1733457071921,1733457071937,1733457071957,1733457071971,1733457071987,1733457072008,1733457072021,1733457072037,1733457072054,1733457072073,1733457072090,1733457072106,1733457072123,1733457072137,1733457072154,1733457072174,1733457072188,1733457072204,1733457072223,1733457072237,1733457072254,1733457072270,1733457072289,1733457072304,1733457072320,1733457072340,1733457072357,1733457072373,1733457072387,1733457072406,1733457072424,1733457072439,1733457072458,1733457072473,1733457072489,1733457072509,1733457072520,1733457072537,1733457072562,1733457072571,1733457072587,1733457072604,1733457072623,1733457072637,1733457072654,1733457072675,1733457072690,1733457072707,1733457072722,1733457072737,1733457072757,1733457072773,1733457072788,1733457072805,1733457072820,1733457072837,1733457072854,1733457072873,1733457072890,1733457072904,1733457072925,1733457072940,1733457072954,1733457072971,1733457072992,1733457073008,1733457073020,1733457073041,1733457073056,1733457073070,1733457073087,1733457073104,1733457073120,1733457073137,1733457073159,1733457073174,1733457073190,1733457073210,1733457073221,1733457073237,1733457073254,1733457073274,1733457073287,1733457073304,1733457073322,1733457073341,1733457073356,1733457073370,1733457073387,1733457073404,1733457073420,1733457073437,1733457073454,1733457073470,1733457073487,1733457073506,1733457073523,1733457073540,1733457073554,1733457073570,1733457073587,1733457073604,1733457073624,1733457073641,1733457073654,1733457073671,1733457073690,1733457073704,1733457073721,1733457073743,1733457073757,1733457073773,1733457073787,1733457073808,1733457073821,1733457073837,1733457073855,1733457073870,1733457073887,1733457073905,1733457073925,1733457073941,1733457073958,1733457073973,1733457073988,1733457074007,1733457074023,1733457074037,1733457074057,1733457074075,1733457074087,1733457074107,1733457074121,1733457074137,1733457074154,1733457074174,1733457074187,1733457074204,1733457074221,1733457074239,1733457074258,1733457074270,1733457074287,1733457074308,1733457074321,1733457074337,1733457074360,1733457074370,1733457074387,1733457074404,1733457074420,1733457074442,1733457074454,1733457074471,1733457074487,1733457074508,1733457074521,1733457074537,1733457074557,1733457074575,1733457074591,1733457074604,1733457074624,1733457074640,1733457074656,1733457074677,1733457074687,1733457074705,1733457074729,1733457074737,1733457074754,1733457074770,1733457074787,1733457074805,1733457074822,1733457074841,1733457074856,1733457074870,1733457074887,1733457074904,1733457074924,1733457074938,1733457074954,1733457074971,1733457074987,1733457075007,1733457075020,1733457075037,1733457075054,1733457075070,1733457075087,1733457075104,1733457075120,1733457075137,1733457075154,1733457075174,1733457075189,1733457075204,1733457075222,1733457075237,1733457075254,1733457075270,1733457075287,1733457075304,1733457075321,1733457075340,1733457075354,1733457075370,1733457075387,1733457075404,1733457075420,1733457075440,1733457075454,1733457075470,1733457075487,1733457075504,1733457075521,1733457075537,1733457075554,1733457075570,1733457075587,1733457075606,1733457075621,1733457075637,1733457075654,1733457075670,1733457075690,1733457075709,1733457075720,1733457075737,1733457075756,1733457075770,1733457075787,1733457075804,1733457075820,1733457075837,1733457075854,1733457075870,1733457075887,1733457075904,1733457075925,1733457075938,1733457075954,1733457075972,1733457075987,1733457076007,1733457076023,1733457076037,1733457076054,1733457076070,1733457076087,1733457076104,1733457076121,1733457076137,1733457076154,1733457076174,1733457076190,1733457076204,1733457076220,1733457076237,1733457076254,1733457076272,1733457076287,1733457076304,1733457076320]","[[892.9,802.5],[895.2,809.7],[895.2,809.7],[905.1,822.4],[908.9,828.1],[911.8,830],[916.1,835],[919.9,841.1],[921,849.7],[921,849.7],[929,862.1],[935.4,865.2],[933,861.5],[932.6,858],[932.6,858],[926.4,850.8],[925.5,849.1],[922.9,848.2],[922.9,848.2],[917.7,837],[915.7,834.6],[915.7,834.6],[920.5,831.2],[915,821.7],[903.8,813.7],[903.2,813.1],[902.6,812.5],[900.2,810.1],[904.6,809.8],[909,809.5],[913.5,817.1],[914.8,815.9],[910.8,811.2],[910.4,806.3],[912.9,806.5],[912.9,806.5],[914.7,806],[919,807.6],[920.8,806.1],[920.8,806.1],[920.4,803.9],[917.3,798.1],[914,792.3],[911.1,788.2],[910.4,788.4],[909.4,788.6],[910.8,788.3],[912.4,789],[912.4,789],[911.5,787.6],[909.2,786.9],[901.9,783.4],[899.6,785.4],[898.6,785.9],[895.9,782.3],[895.9,782.3],[893.2,778.7],[891.2,777.6],[893.3,781.6],[893.3,781.6],[894.9,785.2],[892.7,787.5],[888.4,782.7],[884.1,777.9],[882.6,781.7],[881.1,785.5],[879.6,787],[878.1,788.5],[882.3,798.9],[882.3,798.9],[879.1,796.4],[877.1,794.2],[878.9,793.3],[889.4,804.6],[899.9,815.9],[905.3,816.7],[906,814],[907.2,817.2],[909.2,822.8],[905.1,817],[907.7,820.4],[904.7,818.5],[903,820.4],[898.6,819.6],[894.7,819.5],[894.8,817.4],[897.8,822.9],[901.6,827.2],[898.8,824.6],[898.8,824.6],[896,822],[896.5,819.3],[897.9,819.4],[898.6,815.4],[898.6,815.4],[899.3,811.4],[900.1,810.7],[899.6,813.1],[900.9,811.4],[902.2,809.7],[905.7,812.5],[909.2,815.3],[909.2,815.3],[910.1,818.9],[912.5,824.3],[912.5,824.3],[913.6,827.2],[917.3,833.1],[913.6,828.6],[907.2,823],[905.2,823.4],[904.7,824.9],[905.6,821.5],[906.5,818.1],[907.4,818.6],[907.9,818],[909.1,820.2],[911,820.5],[919.7,827.2],[919.7,827.2],[921.2,828.6],[922.7,828.1],[922.7,826.5],[924.9,829.8],[923.4,830.7],[917.8,826.7],[921.4,824.6],[925,822.5],[920.8,823],[920.8,823],[916.8,822.1],[915.5,822.2],[915.5,822.2],[915.4,817],[914.4,816.1],[912.8,814.3],[916.2,812.4],[904.3,807.9],[896.3,801.3],[896.3,801.3],[887,795.9],[883.5,789.4],[880.5,783.8],[880.5,783.8],[874.5,782.7],[878.5,785.1],[883.4,783.2],[876,768.5],[876,768.5],[874.7,768.6],[885.5,765.1],[888.8,767.5],[894.1,767.7],[895.4,764.1],[892.1,763.6],[900.3,752.1],[895.1,748.1],[889.9,744.1],[894.6,750.5],[891.9,744.6],[889.4,738.1],[889.4,738.1],[879.3,725.1],[869.5,718.8],[862.4,715.4],[859.1,709.2],[851.8,713.8],[848.6,711.1],[848.6,711.1],[842.9,696],[842.9,696],[837.2,695.7],[832,687.5],[829.8,686.1],[829.8,686.1],[837,685.5],[836.7,672.8],[836.4,658.4],[843.3,647.2],[850.2,636],[844.4,614.8],[846.3,604.4],[851.2,601.5],[857.5,612.4],[854,604.8],[853.8,592.6],[859.1,589.6],[864.4,586.6],[865.1,591.4],[864.8,596.9],[870.9,609.9],[871.5,622],[873.6,610],[867.1,594],[876.1,597.4],[875.9,597.3],[877.6,595.4],[879.3,593.5],[879.3,593.5],[885.5,600.4],[882.4,612.4],[882.4,612.4],[877.8,607.5],[872.7,589.2],[869.6,598.2],[873.3,589.8],[871.2,593.2],[870,606.2],[876,635.6],[879.1,669.9],[877.2,693],[881.5,692.9],[887.4,716.1],[893.9,743],[901.6,755.2],[910.9,783.2],[922.7,800.1],[930.8,805.5],[930.8,793.5],[933.7,776.6],[929.4,747],[929.2,734.8],[932,729.8],[930.7,712.9],[930.7,712.9],[923.7,692.5],[915.7,680.3],[903.5,652],[903.5,652],[894.8,631.9],[888.6,625.5],[882.4,619.1],[878.2,606],[874,592.9],[868.1,574.4],[867.9,575.3],[870.3,594.6],[864.2,571],[859.9,561.9],[856.7,567.7],[856.7,567.7],[855.4,557.8],[851.9,549.3],[851.6,551.8],[851.6,551.8],[853.4,572.5],[860.2,583.5],[866.9,590.3],[864.8,574.1],[864.8,574.1],[870.5,592.3],[876.3,620],[882.2,628.3],[882.3,639.9],[888.5,658],[894.7,676.1],[897.5,665.4],[893.9,656.2],[885.9,659.4],[886.4,664.6],[886.9,669.8],[887.3,665.5],[889.3,665.9],[894.6,677.9],[896,682],[893,662.1],[893,662.1],[898.2,664.2],[905.9,690.2],[905.9,690.2],[914.4,677.2],[917.7,678.2],[920.1,674.9],[921.7,673.7],[919.1,664.5],[917.7,648.2],[917.7,648.2],[918.4,645.3],[914.5,657.3],[914.5,657.3],[899.9,658.9],[887.2,619.9],[882.3,642.1],[887.8,631.2],[886.7,620.9],[886.9,633.3],[888.7,656.8],[885.2,654.8],[886.5,636.2],[886.5,636.2],[888.1,632.7],[905.5,626.7],[905.5,626.7],[913.3,641.3],[913.3,641.3],[923,618.8],[919.4,634.1],[919.4,634.1],[933.8,634.2],[933.8,634.2],[936,624.5],[941.1,601.4],[943.4,592.2],[943.4,592.2],[942.2,609.6],[950.1,621.8],[950.1,621.8],[935.9,629.2],[928.4,646.3],[928.4,646.3],[934.8,634.2],[934.9,633.7],[924.5,652.1],[932.2,626.5],[932.2,626.5],[938,627.9],[949.4,635.2],[957.4,619.1],[957.4,619.1],[952.3,612.2],[964,603.1],[979.1,566.1],[966.3,601.8],[966.3,601.8],[966.6,605.8],[967.6,612.1],[958.8,635],[949,644.3],[949,644.3],[938.6,660.9],[929.1,682.6],[929.1,682.6],[944.3,667],[944.3,667],[948.9,676.7],[941.3,701.1],[940.2,684.9],[942.9,663.9],[944.9,640.6],[944.9,640.6],[950.3,629.7],[960.7,623.4],[962.3,625.4],[962,620.6],[976.5,575.5],[986.6,541.9],[985.8,559.8],[985.1,586.2],[985.1,586.2],[985.1,599.8],[991.8,602.1],[1004.3,591],[996,593.2],[996.5,579.7],[987.2,583.7],[951.1,655.3],[936.1,671.5],[939.8,644.2],[936.3,620],[943.4,596.6],[949.8,571.2],[936.9,581.4],[939.8,573.7],[942.7,566],[953.9,556.4],[965.1,546.8],[964.5,545.9],[963.4,536.6],[960.6,532.9],[948.9,542.1],[929.7,567.1],[924,569.9],[921.6,562.5],[923.7,560.6],[923.7,560.6],[932.8,539.8],[943.6,516.7],[951.3,504.2],[954.1,508.4],[965.8,503.9],[960.5,515.9],[968.1,518.1],[974.4,514],[979.4,537.5],[978.5,554.9],[973.8,568.7],[967.4,584.8],[963.1,608.7],[955.3,641.1],[948.1,671.2],[948.1,671.2],[954.2,681.9],[947.8,690.4],[942.7,705.2],[939.4,718.8],[939.4,718.8],[937.5,733],[931.9,755.7],[926.5,776.9],[923.8,791.2],[923.8,791.2],[934.9,785.7],[936.2,783.1],[935,774.6],[937,774.1],[939,779.2],[936.3,770.7],[939,757.3],[944.7,744],[944.7,744],[942.7,742.3],[938,747.5],[926.1,756.1],[923.4,764.1],[921,768.4],[916.5,774.2],[918.1,780.8],[922,783.9],[922.7,788.1],[922.7,788.1],[923.4,792.3],[934.5,780.3],[941.8,766.5],[950.9,743.9],[954.1,723.6],[961.9,719],[966.5,723.1]]","[0,0.151169218]","[0.151169218,0.151169218]","[-0.151169218,-0.151169218]","[-0.151169218,0]","[0,-0.151169218]","[0.151169218,-0.151169218]","[0,0]","[0.151169218,0]",0,0,0,0,1,1,Smartphone,7,7,15,9
