inst1_resp.keys,inst1_resp.rt,calibrationMouse.x,calibrationMouse.y,calibrationMouse.leftButton,calibrationMouse.midButton,calibrationMouse.rightButton,calibrationClick.x,calibrationClick.y,calibrationClick.leftButton,calibrationClick.midButton,calibrationClick.rightButton,trialsc.thisRepN,trialsc.thisTrialN,trialsc.thisN,trialsc.thisIndex,trialsc.ran,calibration_x,calibration_y,participant,session,date,expName,psychopyVersion,OS,frameRate,calibrationClick.clicked_name,ScreenRes_pixels,Camera_pixels,mouse_2.x,mouse_2.y,mouse_2.leftButton,mouse_2.midButton,mouse_2.rightButton,mouse_2.time,mouse_2.clicked_name,mouse.x,mouse.y,mouse.leftButton,mouse.midButton,mouse.rightButton,mouse.time,mouse.clicked_name,Choice,Trial,TrialDuration,MOUSE_GAZE,ET_GAZE,ET_GAZE_x_T,time,unixTime,ET_GAZE_NF,Loc_Option1_label,Loc_Option2_label,Loc_Cost_label,Loc_Qual_label,Loc_Option1_cost,Loc_Option2_cost,Loc_Option1_quality,Loc_Option2_quality,trials.thisRepN,trials.thisTrialN,trials.thisN,trials.thisIndex,trials.ran,Block,Device,cost1,qual1,cost2,qual2
space,2.1134,0.263541667,-0.262962963,1,0,0,-0.672916667,-0.664814815,0,0,0,0,0,0,0,1,-0.67,-0.67,20,001,2024-12-05_15h19.07.627,Attention_exp_legacy,2023.1.0,Win32,60.24096386,,,,,,,,,,,,,,,,,,,,,,,,,,,,,,,,,,,,,,,,,,,,,
,,,,,,,0.00625,0.683333333,1,0,0,0,1,1,13,1,0,0.67,20,001,2024-12-05_15h19.07.627,Attention_exp_legacy,2023.1.0,Win32,60.24096386,,,,,,,,,,,,,,,,,,,,,,,,,,,,,,,,,,,,,,,,,,,,,
,,,,,,,0.004166667,-0.67037037,1,0,0,0,2,2,9,1,0,-0.67,20,001,2024-12-05_15h19.07.627,Attention_exp_legacy,2023.1.0,Win32,60.24096386,calibration_square,,,,,,,,,,,,,,,,,,,,,,,,,,,,,,,,,,,,,,,,,,,,
,,,,,,,-0.334375,-0.312962963,1,0,0,0,3,3,5,1,-0.33,-0.33,20,001,2024-12-05_15h19.07.627,Attention_exp_legacy,2023.1.0,Win32,60.24096386,,,,,,,,,,,,,,,,,,,,,,,,,,,,,,,,,,,,,,,,,,,,,
,,,,,,,0.338541667,-0.690740741,1,0,0,0,4,4,14,1,0.33,-0.67,20,001,2024-12-05_15h19.07.627,Attention_exp_legacy,2023.1.0,Win32,60.24096386,,,,,,,,,,,,,,,,,,,,,,,,,,,,,,,,,,,,,,,,,,,,,
,,,,,,,0.002083333,-0.338888889,1,0,0,0,5,5,10,1,0,-0.33,20,001,2024-12-05_15h19.07.627,Attention_exp_legacy,2023.1.0,Win32,60.24096386,calibration_square,,,,,,,,,,,,,,,,,,,,,,,,,,,,,,,,,,,,,,,,,,,,
,,,,,,,0.328125,-0.32962963,1,0,0,0,6,6,15,1,0.33,-0.33,20,001,2024-12-05_15h19.07.627,Attention_exp_legacy,2023.1.0,Win32,60.24096386,calibration_square,,,,,,,,,,,,,,,,,,,,,,,,,,,,,,,,,,,,,,,,,,,,
,,,,,,,-0.330208333,-0.675925926,1,0,0,0,7,7,4,1,-0.33,-0.67,20,001,2024-12-05_15h19.07.627,Attention_exp_legacy,2023.1.0,Win32,60.24096386,calibration_square,,,,,,,,,,,,,,,,,,,,,,,,,,,,,,,,,,,,,,,,,,,,
,,,,,,,-0.333333333,-0.005555556,1,0,0,0,8,8,6,1,-0.33,0,20,001,2024-12-05_15h19.07.627,Attention_exp_legacy,2023.1.0,Win32,60.24096386,calibration_square,,,,,,,,,,,,,,,,,,,,,,,,,,,,,,,,,,,,,,,,,,,,
,,,,,,,0,-0.014814815,1,0,0,0,9,9,11,1,0,0,20,001,2024-12-05_15h19.07.627,Attention_exp_legacy,2023.1.0,Win32,60.24096386,,,,,,,,,,,,,,,,,,,,,,,,,,,,,,,,,,,,,,,,,,,,,
,,,,,,,-0.3375,0.338888889,1,0,0,0,10,10,7,1,-0.33,0.33,20,001,2024-12-05_15h19.07.627,Attention_exp_legacy,2023.1.0,Win32,60.24096386,calibration_square,,,,,,,,,,,,,,,,,,,,,,,,,,,,,,,,,,,,,,,,,,,,
,,,,,,,-0.669791667,-0.016666667,1,0,0,0,11,11,2,1,-0.67,0,20,001,2024-12-05_15h19.07.627,Attention_exp_legacy,2023.1.0,Win32,60.24096386,,,,,,,,,,,,,,,,,,,,,,,,,,,,,,,,,,,,,,,,,,,,,
,,,,,,,0.673958333,-0.657407407,1,0,0,0,12,12,20,1,0.67,-0.67,20,001,2024-12-05_15h19.07.627,Attention_exp_legacy,2023.1.0,Win32,60.24096386,,,,,,,,,,,,,,,,,,,,,,,,,,,,,,,,,,,,,,,,,,,,,
,,,,,,,-0.339583333,0.661111111,1,0,0,0,13,13,8,1,-0.33,0.67,20,001,2024-12-05_15h19.07.627,Attention_exp_legacy,2023.1.0,Win32,60.24096386,calibration_square,,,,,,,,,,,,,,,,,,,,,,,,,,,,,,,,,,,,,,,,,,,,
,,,,,,,-0.004166667,0.312962963,1,0,0,0,14,14,12,1,0,0.33,20,001,2024-12-05_15h19.07.627,Attention_exp_legacy,2023.1.0,Win32,60.24096386,,,,,,,,,,,,,,,,,,,,,,,,,,,,,,,,,,,,,,,,,,,,,
,,,,,,,0.308333333,0.659259259,1,0,0,0,15,15,18,1,0.33,0.67,20,001,2024-12-05_15h19.07.627,Attention_exp_legacy,2023.1.0,Win32,60.24096386,,,,,,,,,,,,,,,,,,,,,,,,,,,,,,,,,,,,,,,,,,,,,
,,,,,,,-0.672916667,0.346296296,1,0,0,0,16,16,3,1,-0.67,0.33,20,001,2024-12-05_15h19.07.627,Attention_exp_legacy,2023.1.0,Win32,60.24096386,,,,,,,,,,,,,,,,,,,,,,,,,,,,,,,,,,,,,,,,,,,,,
,,,,,,,0.336458333,0.32037037,1,0,0,0,17,17,17,1,0.33,0.33,20,001,2024-12-05_15h19.07.627,Attention_exp_legacy,2023.1.0,Win32,60.24096386,calibration_square,,,,,,,,,,,,,,,,,,,,,,,,,,,,,,,,,,,,,,,,,,,,
,,,,,,,0.329166667,0,1,0,0,0,18,18,16,1,0.33,0,20,001,2024-12-05_15h19.07.627,Attention_exp_legacy,2023.1.0,Win32,60.24096386,calibration_square,,,,,,,,,,,,,,,,,,,,,,,,,,,,,,,,,,,,,,,,,,,,
,,,,,,,-0.665625,-0.335185185,1,0,0,0,19,19,1,1,-0.67,-0.33,20,001,2024-12-05_15h19.07.627,Attention_exp_legacy,2023.1.0,Win32,60.24096386,calibration_square,,,,,,,,,,,,,,,,,,,,,,,,,,,,,,,,,,,,,,,,,,,,
,,,,,,,0.6625,0.668518519,1,0,0,0,20,20,19,1,0.67,0.67,20,001,2024-12-05_15h19.07.627,Attention_exp_legacy,2023.1.0,Win32,60.24096386,calibration_square,,,,,,,,,,,,,,,,,,,,,,,,,,,,,,,,,,,,,,,,,,,,
,,,,,,,,,,,,,,,,,,,20,001,2024-12-05_15h19.07.627,Attention_exp_legacy,2023.1.0,Win32,60.24096386,,"[1920,1080]","[640,480]",[0.028125],[-0.48518518518518516],[1],[0],[0],[1.4961999999880788],"[""StartButton""]",[0.16979166666666667],[0.12777777777777777],[1],[0],[0],[3.8017999999821157],"[""Option2_label""]",Option2_label,1,4.8246,"[[0.030208333333333334,-0.4666666666666667],[0.030208333333333334,-0.4666666666666667],[0.030208333333333334,-0.4666666666666667],[0.030208333333333334,-0.4666666666666667],[0.030208333333333334,-0.4666666666666667],[0.030208333333333334,-0.4666666666666667],[0.030208333333333334,-0.4666666666666667],[0.030208333333333334,-0.4666666666666667],[0.030208333333333334,-0.4666666666666667],[0.030208333333333334,-0.4666666666666667],[0.030208333333333334,-0.4666666666666667],[0.030208333333333334,-0.4666666666666667],[0.030208333333333334,-0.4666666666666667],[0.030208333333333334,-0.4666666666666667],[0.030208333333333334,-0.4666666666666667],[0.030208333333333334,-0.4666666666666667],[0.030208333333333334,-0.4666666666666667],[0.030208333333333334,-0.4666666666666667],[0.030208333333333334,-0.4666666666666667],[0.030208333333333334,-0.4666666666666667],[0.030208333333333334,-0.4666666666666667],[0.030208333333333334,-0.4666666666666667],[0.030208333333333334,-0.4666666666666667],[0.030208333333333334,-0.4666666666666667],[0.030208333333333334,-0.4666666666666667],[0.030208333333333334,-0.4666666666666667],[0.030208333333333334,-0.4666666666666667],[0.030208333333333334,-0.4666666666666667],[0.030208333333333334,-0.4666666666666667],[0.030208333333333334,-0.4666666666666667],[0.030208333333333334,-0.4666666666666667],[0.030208333333333334,-0.4666666666666667],[0.030208333333333334,-0.4666666666666667],[0.030208333333333334,-0.4666666666666667],[0.030208333333333334,-0.4666666666666667],[0.030208333333333334,-0.4666666666666667],[0.030208333333333334,-0.4666666666666667],[0.030208333333333334,-0.4666666666666667],[0.030208333333333334,-0.4666666666666667],[0.030208333333333334,-0.4666666666666667],[0.030208333333333334,-0.4666666666666667],[0.030208333333333334,-0.4666666666666667],[0.030208333333333334,-0.4666666666666667],[0.030208333333333334,-0.4666666666666667],[0.030208333333333334,-0.4666666666666667],[0.030208333333333334,-0.4666666666666667],[0.030208333333333334,-0.4666666666666667],[0.030208333333333334,-0.4666666666666667],[0.030208333333333334,-0.4666666666666667],[0.030208333333333334,-0.4666666666666667],[0.030208333333333334,-0.4666666666666667],[0.030208333333333334,-0.4666666666666667],[0.030208333333333334,-0.4666666666666667],[0.030208333333333334,-0.4666666666666667],[0.030208333333333334,-0.4666666666666667],[0.030208333333333334,-0.4666666666666667],[0.030208333333333334,-0.4666666666666667],[0.030208333333333334,-0.4666666666666667],[0.030208333333333334,-0.4666666666666667],[0.030208333333333334,-0.4666666666666667],[0.030208333333333334,-0.4666666666666667],[0.030208333333333334,-0.4666666666666667],[0.030208333333333334,-0.4666666666666667],[0.030208333333333334,-0.4666666666666667],[0.030208333333333334,-0.4666666666666667],[0.030208333333333334,-0.4666666666666667],[0.030208333333333334,-0.4666666666666667],[0.030208333333333334,-0.4666666666666667],[0.030208333333333334,-0.4666666666666667],[0.030208333333333334,-0.4666666666666667],[0.030208333333333334,-0.4666666666666667],[0.030208333333333334,-0.4666666666666667],[0.030208333333333334,-0.4666666666666667],[0.030208333333333334,-0.4666666666666667],[0.030208333333333334,-0.4666666666666667],[0.030208333333333334,-0.4666666666666667],[0.030208333333333334,-0.4666666666666667],[0.030208333333333334,-0.4666666666666667],[0.030208333333333334,-0.4666666666666667],[0.030208333333333334,-0.4666666666666667],[0.030208333333333334,-0.4666666666666667],[0.030208333333333334,-0.4666666666666667],[0.030208333333333334,-0.4666666666666667],[0.030208333333333334,-0.4666666666666667],[0.030208333333333334,-0.4666666666666667],[0.030208333333333334,-0.4666666666666667],[0.030208333333333334,-0.4666666666666667],[0.030208333333333334,-0.4666666666666667],[0.030208333333333334,-0.4666666666666667],[0.030208333333333334,-0.4666666666666667],[0.030208333333333334,-0.4666666666666667],[0.030208333333333334,-0.4666666666666667],[0.030208333333333334,-0.4666666666666667],[0.030208333333333334,-0.4666666666666667],[0.030208333333333334,-0.4666666666666667],[0.030208333333333334,-0.4666666666666667],[0.030208333333333334,-0.4666666666666667],[0.030208333333333334,-0.4666666666666667],[0.030208333333333334,-0.4666666666666667],[0.030208333333333334,-0.4666666666666667],[0.030208333333333334,-0.4666666666666667],[0.030208333333333334,-0.4666666666666667],[0.030208333333333334,-0.4666666666666667],[0.030208333333333334,-0.4666666666666667],[0.030208333333333334,-0.4666666666666667],[0.030208333333333334,-0.4666666666666667],[0.030208333333333334,-0.4666666666666667],[0.030208333333333334,-0.4666666666666667],[0.030208333333333334,-0.4666666666666667],[0.030208333333333334,-0.4666666666666667],[0.030208333333333334,-0.4666666666666667],[0.030208333333333334,-0.4666666666666667],[0.030208333333333334,-0.4666666666666667],[0.030208333333333334,-0.4666666666666667],[0.030208333333333334,-0.4666666666666667],[0.030208333333333334,-0.4666666666666667],[0.030208333333333334,-0.4666666666666667],[0.030208333333333334,-0.4666666666666667],[0.030208333333333334,-0.4666666666666667],[0.030208333333333334,-0.4666666666666667],[0.030208333333333334,-0.4666666666666667],[0.030208333333333334,-0.4666666666666667],[0.030208333333333334,-0.4666666666666667],[0.030208333333333334,-0.4666666666666667],[0.030208333333333334,-0.4666666666666667],[0.030208333333333334,-0.4666666666666667],[0.030208333333333334,-0.4666666666666667],[0.030208333333333334,-0.4666666666666667],[0.030208333333333334,-0.4666666666666667],[0.030208333333333334,-0.4666666666666667],[0.030208333333333334,-0.4666666666666667],[0.030208333333333334,-0.4666666666666667],[0.030208333333333334,-0.4666666666666667],[0.030208333333333334,-0.4666666666666667],[0.030208333333333334,-0.4666666666666667],[0.030208333333333334,-0.4666666666666667],[0.030208333333333334,-0.4666666666666667],[0.030208333333333334,-0.4666666666666667],[0.030208333333333334,-0.4666666666666667],[0.030208333333333334,-0.4666666666666667],[0.030208333333333334,-0.4666666666666667],[0.030208333333333334,-0.4666666666666667],[0.030208333333333334,-0.4666666666666667],[0.030208333333333334,-0.4666666666666667],[0.030208333333333334,-0.4666666666666667],[0.030208333333333334,-0.4666666666666667],[0.030208333333333334,-0.4666666666666667],[0.030208333333333334,-0.4666666666666667],[0.030208333333333334,-0.4666666666666667],[0.030208333333333334,-0.4666666666666667],[0.030208333333333334,-0.4666666666666667],[0.030208333333333334,-0.4666666666666667],[0.030208333333333334,-0.4666666666666667],[0.030208333333333334,-0.4666666666666667],[0.030208333333333334,-0.4666666666666667],[0.030208333333333334,-0.4666666666666667],[0.030208333333333334,-0.4666666666666667],[0.030208333333333334,-0.4666666666666667],[0.030208333333333334,-0.4666666666666667],[0.030208333333333334,-0.4666666666666667],[0.030208333333333334,-0.4666666666666667],[0.030208333333333334,-0.4666666666666667],[0.030208333333333334,-0.4666666666666667],[0.030208333333333334,-0.4666666666666667],[0.030208333333333334,-0.4666666666666667],[0.030208333333333334,-0.4666666666666667],[0.030208333333333334,-0.4666666666666667],[0.030208333333333334,-0.4666666666666667],[0.030208333333333334,-0.4666666666666667],[0.030208333333333334,-0.4666666666666667],[0.030208333333333334,-0.4666666666666667],[0.030208333333333334,-0.4666666666666667],[0.030208333333333334,-0.4666666666666667],[0.030208333333333334,-0.4666666666666667],[0.030208333333333334,-0.4666666666666667],[0.030208333333333334,-0.4666666666666667],[0.030208333333333334,-0.4666666666666667],[0.030208333333333334,-0.4666666666666667],[0.030208333333333334,-0.4666666666666667],[0.030208333333333334,-0.4666666666666667],[0.030208333333333334,-0.4666666666666667],[0.030208333333333334,-0.4666666666666667],[0.030208333333333334,-0.4666666666666667],[0.030208333333333334,-0.4666666666666667],[0.030208333333333334,-0.4666666666666667],[0.0375,-0.4425925925925926],[0.046875,-0.39814814814814814],[0.059375,-0.34814814814814815],[0.07083333333333333,-0.30925925925925923],[0.090625,-0.2574074074074074],[0.10104166666666667,-0.22037037037037038],[0.11041666666666666,-0.18888888888888888],[0.115625,-0.17037037037037037],[0.11979166666666667,-0.15185185185185185],[0.12083333333333333,-0.14074074074074075],[0.121875,-0.13703703703703704],[0.12395833333333334,-0.12777777777777777],[0.12604166666666666,-0.12037037037037036],[0.12708333333333333,-0.11481481481481481],[0.13020833333333334,-0.10555555555555556],[0.13125,-0.1037037037037037],[0.13645833333333332,-0.08703703703703704],[0.140625,-0.07407407407407407],[0.14375,-0.06666666666666667],[0.14479166666666668,-0.06111111111111111],[0.14583333333333334,-0.06111111111111111],[0.14583333333333334,-0.06111111111111111],[0.14583333333333334,-0.06111111111111111],[0.146875,-0.05925925925925926],[0.15,-0.06296296296296296],[0.15208333333333332,-0.06666666666666667],[0.153125,-0.06851851851851852],[0.153125,-0.07037037037037037],[0.153125,-0.07037037037037037],[0.153125,-0.07037037037037037],[0.15520833333333334,-0.05925925925925926],[0.15729166666666666,-0.037037037037037035],[0.15833333333333333,-0.012962962962962963],[0.16041666666666668,0.009259259259259259],[0.16041666666666668,0.02962962962962963],[0.16145833333333334,0.05185185185185185],[0.1625,0.07037037037037037],[0.16458333333333333,0.08333333333333333],[0.165625,0.09814814814814815],[0.16666666666666666,0.11481481481481481],[0.16666666666666666,0.12037037037037036],[0.16979166666666667,0.12777777777777777],[0.16979166666666667,0.12777777777777777],[0.16979166666666667,0.12777777777777777],[0.16979166666666667,0.12777777777777777],[0.16979166666666667,0.12777777777777777],[0.16979166666666667,0.12777777777777777],[0.16979166666666667,0.12777777777777777],[0.16979166666666667,0.12777777777777777],[0.16979166666666667,0.12777777777777777],[0.16979166666666667,0.12777777777777777],[0.16979166666666667,0.12777777777777777],[0.16979166666666667,0.12777777777777777],[0.16979166666666667,0.12962962962962962],[0.16979166666666667,0.13148148148148148],[0.16979166666666667,0.13333333333333333],[0.16979166666666667,0.13333333333333333],[0.16979166666666667,0.13333333333333333],[0.16979166666666667,0.13333333333333333],[0.16979166666666667,0.13333333333333333],[0.16979166666666667,0.13333333333333333],[0.16979166666666667,0.13333333333333333],[0.16979166666666667,0.13333333333333333],[0.16979166666666667,0.13333333333333333],[0.16979166666666667,0.13333333333333333],[0.16979166666666667,0.13333333333333333],[0.16979166666666667,0.13333333333333333],[0.16979166666666667,0.13333333333333333],[0.16979166666666667,0.13333333333333333],[0.16979166666666667,0.13333333333333333],[0.16979166666666667,0.13333333333333333],[0.16979166666666667,0.13333333333333333],[0.16979166666666667,0.13333333333333333],[0.16979166666666667,0.13333333333333333],[0.16979166666666667,0.13333333333333333],[0.16979166666666667,0.13333333333333333],[0.16979166666666667,0.13333333333333333],[0.16979166666666667,0.13333333333333333],[0.16979166666666667,0.13333333333333333],[0.16979166666666667,0.13333333333333333],[0.16979166666666667,0.13333333333333333],[0.16979166666666667,0.13333333333333333],[0.16979166666666667,0.13333333333333333],[0.16979166666666667,0.13333333333333333],[0.16979166666666667,0.13333333333333333],[0.16979166666666667,0.13333333333333333],[0.16979166666666667,0.13333333333333333],[0.16979166666666667,0.13333333333333333],[0.16979166666666667,0.13333333333333333],[0.16979166666666667,0.13333333333333333],[0.16979166666666667,0.13333333333333333],[0.16979166666666667,0.13333333333333333],[0.16979166666666667,0.13333333333333333],[0.16979166666666667,0.13333333333333333],[0.16979166666666667,0.13333333333333333],[0.16979166666666667,0.13333333333333333],[0.16979166666666667,0.13333333333333333],[0.16979166666666667,0.13333333333333333],[0.16979166666666667,0.13333333333333333],[0.16979166666666667,0.13333333333333333],[0.16979166666666667,0.13333333333333333],[0.16979166666666667,0.13333333333333333],[0.16979166666666667,0.13333333333333333],[0.16979166666666667,0.13333333333333333],[0.16979166666666667,0.13333333333333333]]","[[-0.06270833333333338,0.2727777777777777],[-0.06270833333333338,0.2727777777777777],[-0.06864583333333331,0.2544444444444444],[-0.0640625,0.23148148148148148],[-0.05572916666666667,0.21296296296296297],[-0.04916666666666671,0.20981481481481473],[-0.04604166666666672,0.19592592592592584],[-0.06354166666666666,0.17388888888888884],[-0.06572916666666669,0.19388888888888897],[-0.07489583333333331,0.14240740740740737],[-0.08416666666666663,0.1051851851851851],[-0.09416666666666665,0.08592592592592588],[-0.09520833333333331,0.08722222222222227],[-0.09468749999999998,0.08000000000000008],[-0.09468749999999998,0.08000000000000008],[-0.09270833333333334,0.10185185185185185],[-0.10343749999999995,0.062037037037037036],[-0.10697916666666671,0.02240740740740745],[-0.09770833333333329,0.011666666666666582],[-0.09927083333333328,-0.04944444444444453],[-0.09927083333333328,-0.04944444444444453],[-0.0889583333333333,-0.0690740740740741],[-0.07854166666666665,-0.03629629629629634],[-0.06104166666666669,-0.016111111111111194],[-0.05239583333333329,0.008888888888888804],[-0.0734375,0.006851851851851936],[-0.09968750000000005,-0.028703703703703703],[-0.09510416666666661,-0.006666666666666709],[-0.1171875,0.018888888888888972],[-0.13968750000000002,0.0824074074074074],[-0.16666666666666666,0.15425925925925918],[-0.1608333333333333,0.22333333333333338],[-0.19177083333333336,0.22962962962962963],[-0.24666666666666662,0.20888888888888882],[-0.2742708333333333,0.21592592592592597],[-0.24437500000000004,0.25333333333333324],[-0.2423958333333334,0.25333333333333324],[-0.26208333333333333,0.25555555555555554],[-0.2452083333333333,0.25685185185185194],[-0.22947916666666662,0.21092592592592588],[-0.228125,0.17629629629629637],[-0.246875,0.14296296296296304],[-0.23687499999999997,0.1235185185185186],[-0.18739583333333332,0.13537037037037042],[-0.14614583333333328,0.12888888888888894],[-0.14052083333333332,0.12611111111111115],[-0.10625,0.16574074074074074],[-0.07552083333333333,0.1625925925925925],[-0.06187499999999998,0.1566666666666667],[-0.04593750000000003,0.17314814814814813],[-0.0009374999999999763,0.13648148148148156],[0.013125000000000024,0.15129629629629637],[0.03677083333333329,0.12444444444444452],[0.041770833333333354,0.11814814814814806],[0.033645833333333285,0.072037037037037],[0.03447916666666669,0.05944444444444449],[0.03458333333333338,0.0418518518518519],[0.03145833333333338,0.04296296296296305],[0.051041666666666666,0.0514814814814814],[0.07395833333333333,0.00851851851851856],[0.06229166666666662,0.04018518518518527],[0.06885416666666658,0.021851851851851768],[0.07489583333333343,0.04277777777777782],[0.060104166666666715,0.072037037037037],[0.07739583333333329,0.16870370370370374],[0.06354166666666666,0.17222222222222222],[0.049687500000000044,0.1757407407407407],[0.04635416666666667,0.21296296296296297],[0.050833333333333286,0.23944444444444435],[0.050833333333333286,0.23944444444444435],[0.025625000000000023,0.2892592592592593],[0.02020833333333331,0.29870370370370364],[0.02020833333333331,0.29870370370370364],[0.03895833333333331,0.36018518518518516],[0.03895833333333331,0.36018518518518516],[0.041458333333333285,0.43740740740740747],[0.041458333333333285,0.43740740740740747],[0.05239583333333329,0.4868518518518518],[0.05239583333333329,0.4868518518518518],[0.025312499999999953,0.4905555555555555],[0.025312499999999953,0.4905555555555555],[0.042812500000000024,0.5451851851851851],[0.04489583333333336,0.5861111111111111],[0.04364583333333331,0.6070370370370369],[0.029895833333333382,0.6496296296296296],[0.044166666666666646,0.7057407407407408],[0.04468749999999998,0.7625925925925925],[0.041562499999999974,0.7579629629629628],[0.042604166666666644,0.7296296296296296],[0.02822916666666669,0.6890740740740741],[0.04500000000000005,0.681111111111111],[0.03708333333333336,0.6625925925925925],[0.04458333333333329,0.6577777777777779],[0.04458333333333329,0.6577777777777779],[0.07052083333333338,0.6331481481481481],[0.05583333333333336,0.5994444444444446],[0.03875000000000005,0.5672222222222222],[0.029270833333333357,0.5394444444444444],[0.01729166666666669,0.4994444444444445],[-0.01864583333333331,0.45740740740740743],[-0.03916666666666669,0.4275925925925925],[-0.07406250000000002,0.4012962962962964],[-0.09885416666666665,0.38722222222222225],[-0.10395833333333329,0.39759259259259266],[-0.15416666666666667,0.4083333333333333],[-0.18177083333333333,0.40981481481481474],[-0.19020833333333337,0.42888888888888893],[-0.19239583333333338,0.4503703703703705],[-0.21427083333333338,0.4842592592592593],[-0.22312500000000005,0.5035185185185185],[-0.20895833333333336,0.5474074074074075],[-0.20802083333333338,0.5731481481481482],[-0.21531250000000005,0.5829629629629629],[-0.23708333333333337,0.5844444444444444],[-0.23697916666666666,0.5957407407407408],[-0.23447916666666668,0.6050000000000001],[-0.22458333333333336,0.6222222222222222],[-0.25031249999999994,0.592962962962963],[-0.274375,0.5729629629629629],[-0.25541666666666674,0.5998148148148148],[-0.26916666666666667,0.5794444444444444],[-0.2829166666666667,0.5492592592592593],[-0.27791666666666665,0.532037037037037],[-0.2947916666666667,0.5029629629629631],[-0.3046875,0.4781481481481482],[-0.31218750000000006,0.44666666666666677],[-0.3460416666666667,0.41],[-0.3460416666666667,0.41],[-0.3198958333333334,0.3861111111111111],[-0.315625,0.380925925925926],[-0.3296875,0.3487037037037036],[-0.33406250000000004,0.33907407407407414],[-0.31656249999999997,0.3425925925925926],[-0.32395833333333335,0.35425925925925916],[-0.31062500000000004,0.33796296296296297],[-0.29500000000000004,0.3411111111111112],[-0.2841666666666666,0.352962962962963],[-0.26187499999999997,0.3603703703703704],[-0.2716666666666666,0.4],[-0.24489583333333337,0.3961111111111111],[-0.21979166666666666,0.397037037037037],[-0.19802083333333337,0.39648148148148155],[-0.20385416666666673,0.39222222222222214],[-0.18937499999999996,0.3675925925925926],[-0.17895833333333327,0.36666666666666664],[-0.17625000000000005,0.34592592592592586],[-0.16833333333333336,0.34370370370370373],[-0.18125,0.2977777777777777],[-0.18645833333333334,0.25333333333333324],[-0.20104166666666667,0.26222222222222225],[-0.215625,0.2711111111111111],[-0.21770833333333334,0.2611111111111111],[-0.22072916666666664,0.25092592592592594],[-0.2267708333333334,0.24314814814814806],[-0.2421875,0.23407407407407405],[-0.2521875,0.22537037037037044],[-0.26531250000000006,0.205925925925926],[-0.268125,0.22018518518518515],[-0.2709375,0.23444444444444448],[-0.2778125000000001,0.20055555555555546],[-0.2846874999999999,0.16666666666666666],[-0.28624999999999995,0.1646296296296296],[-0.29239583333333335,0.14240740740740737],[-0.2813541666666667,0.1485185185185186],[-0.2591666666666666,0.15537037037037033],[-0.23875000000000005,0.17240740740740745],[-0.21739583333333337,0.1742592592592593],[-0.20541666666666672,0.14425925925925923],[-0.19343750000000004,0.11425925925925934],[-0.17937500000000003,0.11888888888888897],[-0.15885416666666666,0.12037037037037036],[-0.16604166666666664,0.10666666666666672],[-0.1586458333333333,0.10018518518518522],[-0.165625,0.06870370370370374],[-0.17437499999999997,0.03777777777777774],[-0.16208333333333336,0.003333333333333249],[-0.15281250000000005,-0.02370370370370362],[-0.14020833333333335,0.018888888888888972],[-0.10010416666666669,0.0455555555555556],[-0.07083333333333333,0.06296296296296296],[-0.06458333333333334,0.08351851851851856],[-0.04916666666666671,0.102962962962963],[-0.0296875,0.12888888888888894],[0.00458333333333331,0.15722222222222218],[0.03885416666666662,0.18555555555555564],[0.04239583333333338,0.19814814814814816],[0.04718749999999995,0.24759259259259267],[0.050625000000000024,0.22518518518518524],[0.03114583333333331,0.21444444444444435],[0.022708333333333285,0.25259259259259254],[0.0013541666666666192,0.23925925925925934],[-0.020729166666666642,0.2572222222222222],[-0.003125,0.25277777777777777],[-0.003125,0.25277777777777777],[-0.049687500000000044,0.26851851851851855],[-0.049687500000000044,0.26851851851851855],[-0.06333333333333328,0.29074074074074074],[-0.06104166666666669,0.31129629629629635],[-0.060000000000000026,0.29499999999999993],[-0.0390625,0.3290740740740742],[-0.04020833333333336,0.3596296296296297],[-0.051979166666666646,0.32703703703703707],[-0.005729166666666666,0.33055555555555555],[0.0453125,0.30759259259259264],[0.0453125,0.30759259259259264],[0.07114583333333328,0.2868518518518518],[0.11843750000000004,0.26074074074074066],[0.1252083333333334,0.24777777777777768],[0.12750000000000009,0.2455555555555556],[0.12999999999999995,0.2581481481481481],[0.1265625,0.21444444444444435],[0.14968750000000006,0.21740740740740735],[0.1798958333333334,0.22888888888888892],[0.16614583333333333,0.21888888888888897],[0.16614583333333333,0.21888888888888897],[0.15239583333333329,0.20888888888888882],[0.13229166666666667,0.2116666666666666],[0.12947916666666662,0.2116666666666666],[0.13135416666666658,0.19907407407407407],[0.10666666666666676,0.20092592592592592],[0.10062499999999991,0.12629629629629638],[0.10541666666666671,0.07777777777777778],[0.11395833333333343,0.009999999999999959],[0.11041666666666666,-0.018518518518518517],[0.11041666666666666,-0.018518518518518517],[0.10552083333333329,-0.029814814814814856],[0.10916666666666662,-0.06277777777777774],[0.1046875,-0.0883333333333333],[0.1125,-0.09425925925925922],[0.11281249999999995,-0.1051851851851852],[0.16333333333333327,-0.14888888888888885],[0.1798958333333334,-0.1096296296296296],[0.1779166666666666,-0.062407407407407384],[0.16020833333333329,-0.08333333333333333],[0.15458333333333343,-0.14351851851851852],[0.1720833333333334,-0.16055555555555553],[0.1720833333333334,-0.16055555555555553],[0.16687500000000005,-0.14018518518518516],[0.1727083333333333,-0.12759259259259256],[0.1727083333333333,-0.12759259259259256],[0.15760416666666663,-0.12685185185185185],[0.14479166666666668,-0.1566666666666667],[0.10833333333333334,-0.16814814814814816],[0.12062499999999995,-0.1603703703703704],[0.13291666666666657,-0.15259259259259256],[0.12791666666666662,-0.10018518518518522],[0.12802083333333342,-0.05740740740740741],[0.11604166666666677,0.009814814814814731],[0.13354166666666673,0.021851851851851768],[0.13354166666666673,0.021851851851851768],[0.1759375000000001,0.07074074074074083],[0.20062499999999991,0.08203703703703695],[0.23479166666666676,0.15333333333333324],[0.26895833333333335,0.22462962962962954],[0.27239583333333334,0.2611111111111111],[0.27239583333333334,0.2611111111111111],[0.2599999999999999,0.29370370370370374],[0.27062499999999995,0.2831481481481481],[0.27062499999999995,0.2831481481481481],[0.27614583333333326,0.2822222222222222],[0.27802083333333344,0.30351851851851847],[0.27802083333333344,0.30351851851851847],[0.28312499999999996,0.36444444444444435],[0.28312499999999996,0.36444444444444435],[0.22322916666666662,0.3611111111111111],[0.22322916666666662,0.3611111111111111],[0.20364583333333333,0.4148148148148148],[0.20364583333333333,0.4148148148148148],[0.18520833333333328,0.41759259259259257],[0.18520833333333328,0.41759259259259257],[0.15958333333333338,0.4514814814814814],[0.15958333333333338,0.4514814814814814],[0.12770833333333323,0.44240740740740736],[0.12770833333333323,0.44240740740740736],[0.11177083333333329,0.44425925925925924],[0.06479166666666672,0.46277777777777773],[0.011666666666666714,0.5142592592592593],[-0.03208333333333328,0.4955555555555556],[-0.09437500000000003,0.4766666666666666],[-0.11031249999999998,0.5081481481481481],[-0.14020833333333335,0.5131481481481482],[-0.14177083333333335,0.4994444444444445],[-0.12854166666666664,0.4581481481481481],[-0.14135416666666673,0.3987037037037036],[-0.1538541666666667,0.3442592592592592],[-0.1203125,0.3501851851851852],[-0.06499999999999997,0.27148148148148155],[-0.016979166666666618,0.22740740740740734],[0.018333333333333358,0.20333333333333325],[0.036562500000000026,0.15685185185185194]]","[[-0.06270833333333338,0.2727777777777777,0.0002999999821184929],[-0.06270833333333338,0.2727777777777777,0.039400000005962],[-0.06864583333333331,0.2544444444444444,0.045999999999999375],[-0.0640625,0.23148148148148148,0.06169999998807896],[-0.05572916666666667,0.21296296296296297,0.07469999998807708],[-0.04916666666666671,0.20981481481481473,0.09390000000595933],[-0.04604166666666672,0.19592592592592584,0.11090000000596234],[-0.06354166666666666,0.17388888888888884,0.12740000000596297],[-0.06572916666666669,0.19388888888888897,0.14179999998211912],[-0.07489583333333331,0.14240740740740737,0.16129999998211986],[-0.08416666666666663,0.1051851851851851,0.17529999998211565],[-0.09416666666666665,0.08592592592592588,0.19200000000000017],[-0.09520833333333331,0.08722222222222227,0.20979999998211696],[-0.09468749999999998,0.08000000000000008,0.22519999998807805],[-0.09468749999999998,0.08000000000000008,0.24499999999999744],[-0.09270833333333334,0.10185185185185185,0.2609000000059609],[-0.10343749999999995,0.062037037037037036,0.27509999999404045],[-0.10697916666666671,0.02240740740740745,0.2912999999821153],[-0.09770833333333329,0.011666666666666582,0.30790000000595796],[-0.09927083333333328,-0.04944444444444453,0.3245999999940423],[-0.09927083333333328,-0.04944444444444453,0.3411999999880777],[-0.0889583333333333,-0.0690740740740741,0.35809999999403885],[-0.07854166666666665,-0.03629629629629634,0.3744999999999976],[-0.06104166666666669,-0.016111111111111194,0.39129999998211673],[-0.05239583333333329,0.008888888888888804,0.40840000000596177],[-0.0734375,0.006851851851851936,0.4246999999880785],[-0.09968750000000005,-0.028703703703703703,0.441299999982121],[-0.09510416666666661,-0.006666666666666709,0.45790000000595654],[-0.1171875,0.018888888888888972,0.47449999999999903],[-0.13968750000000002,0.0824074074074074,0.4911999999880763],[-0.16666666666666666,0.15425925925925918,0.5077999999821188],[-0.1608333333333333,0.22333333333333338,0.5244999999999962],[-0.19177083333333336,0.22962962962962963,0.5410999999940387],[-0.24666666666666662,0.20888888888888882,0.5610999999940418],[-0.2742708333333333,0.21592592592592597,0.5745000000000005],[-0.24437500000000004,0.25333333333333324,0.5912999999821196],[-0.2423958333333334,0.25333333333333324,0.6084999999999994],[-0.26208333333333333,0.25555555555555554,0.6246999999880813],[-0.2452083333333333,0.25685185185185194,0.6410999999940401],[-0.22947916666666662,0.21092592592592588,0.6605999999940408],[-0.228125,0.17629629629629637,0.6745000000000019],[-0.246875,0.14296296296296304,0.6911999999880791],[-0.23687499999999997,0.1235185185185186,0.7077999999821145],[-0.18739583333333332,0.13537037037037042,0.7274000000059573],[-0.14614583333333328,0.12888888888888894,0.7460000000000022],[-0.14052083333333332,0.12611111111111115,0.7620000000000005],[-0.10625,0.16574074074074074,0.77769999998808],[-0.07552083333333333,0.1625925925925925,0.7916999999880758],[-0.06187499999999998,0.1566666666666667,0.8077999999821159],[-0.04593750000000003,0.17314814814814813,0.8246999999880771],[-0.0009374999999999763,0.13648148148148156,0.8411999999880777],[0.013125000000000024,0.15129629629629637,0.8630999999940414],[0.03677083333333329,0.12444444444444452,0.8785999999940373],[0.041770833333333354,0.11814814814814806,0.8919000000059611],[0.033645833333333285,0.072037037037037,0.9084000000059618],[0.03447916666666669,0.05944444444444449,0.9246999999880785],[0.03458333333333338,0.0418518518518519,0.9411999999880791],[0.03145833333333338,0.04296296296296305,0.9609999999999985],[0.051041666666666666,0.0514814814814814,0.974499999999999],[0.07395833333333333,0.00851851851851856,0.9912999999821182],[0.06229166666666662,0.04018518518518527,1.0079000000059608],[0.06885416666666658,0.021851851851851768,1.02469999998808],[0.07489583333333343,0.04277777777777782,1.0410999999940387],[0.060104166666666715,0.072037037037037,1.0615000000000023],[0.07739583333333329,0.16870370370370374,1.074799999982119],[0.06354166666666666,0.17222222222222222,1.0912999999821196],[0.049687500000000044,0.1757407407407407,1.1077999999821202],[0.04635416666666667,0.21296296296296297,1.1249000000059581],[0.050833333333333286,0.23944444444444435,1.14109999999404],[0.050833333333333286,0.23944444444444435,1.158099999994036],[0.025625000000000023,0.2892592592592593,1.17440000000596],[0.02020833333333331,0.29870370370370364,1.1972999999821212],[0.02020833333333331,0.29870370370370364,1.2079000000059565],[0.03895833333333331,0.36018518518518516,1.224599999994041],[0.03895833333333331,0.36018518518518516,1.2410999999940415],[0.041458333333333285,0.43740740740740747,1.2580999999940374],[0.041458333333333285,0.43740740740740747,1.2744000000059614],[0.05239583333333329,0.4868518518518518,1.2912999999821153],[0.05239583333333329,0.4868518518518518,1.307799999982116],[0.025312499999999953,0.4905555555555555,1.3245999999940423],[0.025312499999999953,0.4905555555555555,1.3411999999880777],[0.042812500000000024,0.5451851851851851,1.3580999999940389],[0.04489583333333336,0.5861111111111111,1.374799999982116],[0.04364583333333331,0.6070370370370369,1.3912999999821167],[0.029895833333333382,0.6496296296296296,1.4077999999821174],[0.044166666666666646,0.7057407407407408,1.4245999999940366],[0.04468749999999998,0.7625925925925925,1.4410999999940373],[0.041562499999999974,0.7579629629629628,1.4600000000000009],[0.042604166666666644,0.7296296296296296,1.474499999999999],[0.02822916666666669,0.6890740740740741,1.4911999999880763],[0.04500000000000005,0.681111111111111,1.5080000000000027],[0.03708333333333336,0.6625925925925925,1.5272999999821195],[0.04458333333333329,0.6577777777777779,1.5474000000059576],[0.04458333333333329,0.6577777777777779,1.5579999999999998],[0.07052083333333338,0.6331481481481481,1.5744000000059586],[0.05583333333333336,0.5994444444444446,1.5911999999880777],[0.03875000000000005,0.5672222222222222,1.6077999999821202],[0.029270833333333357,0.5394444444444444,1.6281999999880767],[0.01729166666666669,0.4994444444444445,1.6421999999880796],[-0.01864583333333331,0.45740740740740743,1.658099999994036],[-0.03916666666666669,0.4275925925925925,1.6745999999940366],[-0.07406250000000002,0.4012962962962964,1.691299999982121],[-0.09885416666666665,0.38722222222222225,1.7077999999821145],[-0.10395833333333329,0.39759259259259266,1.726900000005962],[-0.15416666666666667,0.4083333333333333,1.7445000000000022],[-0.18177083333333333,0.40981481481481474,1.7612999999821213],[-0.19020833333333337,0.42888888888888893,1.7779000000059568],[-0.19239583333333338,0.4503703703703705,1.7912999999821153],[-0.21427083333333338,0.4842592592592593,1.807799999982116],[-0.22312500000000005,0.5035185185185185,1.8245000000000005],[-0.20895833333333336,0.5474074074074075,1.8411999999880777],[-0.20802083333333338,0.5731481481481482,1.8599000000059576],[-0.21531250000000005,0.5829629629629629,1.8744999999999976],[-0.23708333333333337,0.5844444444444444,1.8911999999880749],[-0.23697916666666666,0.5957407407407408,1.9077999999821174],[-0.23447916666666668,0.6050000000000001,1.9246999999880785],[-0.22458333333333336,0.6222222222222222,1.9411999999880791],[-0.25031249999999994,0.592962962962963,1.9610999999940404],[-0.274375,0.5729629629629629,1.974499999999999],[-0.25541666666666674,0.5998148148148148,1.9912999999821182],[-0.26916666666666667,0.5794444444444444,2.0080999999940374],[-0.2829166666666667,0.5492592592592593,2.0247999999821147],[-0.27791666666666665,0.532037037037037,2.0410999999940387],[-0.2947916666666667,0.5029629629629631,2.0602999999821208],[-0.3046875,0.4781481481481482,2.0745000000000005],[-0.31218750000000006,0.44666666666666677,2.0911999999880777],[-0.3460416666666667,0.41,2.10779999998212],[-0.3460416666666667,0.41,2.1245999999940395],[-0.3198958333333334,0.3861111111111111,2.14109999999404],[-0.315625,0.380925925925926,2.160499999999999],[-0.3296875,0.3487037037037036,2.174500000000002],[-0.33406250000000004,0.33907407407407414,2.191400000005963],[-0.31656249999999997,0.3425925925925926,2.2077999999821145],[-0.32395833333333335,0.35425925925925916,2.224599999994041],[-0.31062500000000004,0.33796296296296297,2.2411999999880763],[-0.29500000000000004,0.3411111111111112,2.2599000000059632],[-0.2841666666666666,0.352962962962963,2.2744000000059614],[-0.26187499999999997,0.3603703703703704,2.2911999999880805],[-0.2716666666666666,0.4,2.307799999982116],[-0.24489583333333337,0.3961111111111111,2.3245999999940423],[-0.21979166666666666,0.397037037037037,2.341099999994036],[-0.19802083333333337,0.39648148148148155,2.3599999999999994],[-0.20385416666666673,0.39222222222222214,2.374400000005963],[-0.18937499999999996,0.3675925925925926,2.391199999988075],[-0.17895833333333327,0.36666666666666664,2.4077999999821174],[-0.17625000000000005,0.34592592592592586,2.4245999999940366],[-0.16833333333333336,0.34370370370370373,2.441199999988079],[-0.18125,0.2977777777777777,2.458500000000001],[-0.18645833333333334,0.25333333333333324,2.474499999999999],[-0.20104166666666667,0.26222222222222225,2.4911999999880763],[-0.215625,0.2711111111111111,2.5077999999821188],[-0.21770833333333334,0.2611111111111111,2.524599999994038],[-0.22072916666666664,0.25092592592592594,2.5411999999880805],[-0.2267708333333334,0.24314814814814806,2.560199999988079],[-0.2421875,0.23407407407407405,2.5745000000000005],[-0.2521875,0.22537037037037044,2.5912999999821196],[-0.26531250000000006,0.205925925925926,2.60779999998212],[-0.268125,0.22018518518518515,2.6245999999940395],[-0.2709375,0.23444444444444448,2.64109999999404],[-0.2778125000000001,0.20055555555555546,2.6582999999821197],[-0.2846874999999999,0.16666666666666666,2.674500000000002],[-0.28624999999999995,0.1646296296296296,2.691199999988079],[-0.29239583333333335,0.14240740740740737,2.7079000000059565],[-0.2813541666666667,0.1485185185185186,2.7262999999821176],[-0.2591666666666666,0.15537037037037033,2.743000000000002],[-0.23875000000000005,0.17240740740740745,2.7611999999880794],[-0.21739583333333337,0.1742592592592593,2.7772999999821195],[-0.20541666666666672,0.14425925925925923,2.7911999999880805],[-0.19343750000000004,0.11425925925925934,2.807799999982116],[-0.17937500000000003,0.11888888888888897,2.8245999999940423],[-0.15885416666666666,0.12037037037037036,2.841099999994036],[-0.16604166666666664,0.10666666666666672,2.858699999988076],[-0.1586458333333333,0.10018518518518522,2.8744999999999976],[-0.165625,0.06870370370370374,2.891199999988075],[-0.17437499999999997,0.03777777777777774,2.9079000000059594],[-0.16208333333333336,0.003333333333333249,2.924500000000002],[-0.15281250000000005,-0.02370370370370362,2.941199999988079],[-0.14020833333333335,0.018888888888888972,2.9594999999999985],[-0.10010416666666669,0.0455555555555556,2.974499999999999],[-0.07083333333333333,0.06296296296296296,2.991299999982118],[-0.06458333333333334,0.08351851851851856,3.007900000005961],[-0.04916666666666671,0.102962962962963,3.024599999994038],[-0.0296875,0.12888888888888894,3.0411999999880805],[0.00458333333333331,0.15722222222222218,3.058500000000002],[0.03885416666666662,0.18555555555555564,3.0745000000000005],[0.04239583333333338,0.19814814814814816,3.0936999999880754],[0.04718749999999995,0.24759259259259267,3.108099999994039],[0.050625000000000024,0.22518518518518524,3.125],[0.03114583333333331,0.21444444444444435,3.1454999999999984],[0.022708333333333285,0.25259259259259254,3.161199999988078],[0.0013541666666666192,0.23925925925925934,3.174999999999997],[-0.020729166666666642,0.2572222222222222,3.1940999999940374],[-0.003125,0.25277777777777777,3.2080999999940403],[-0.003125,0.25277777777777777,3.230699999988076],[-0.049687500000000044,0.26851851851851855,3.2480999999940394],[-0.049687500000000044,0.26851851851851855,3.2580999999940374],[-0.06333333333333328,0.29074074074074074,3.274599999994038],[-0.06104166666666669,0.31129629629629635,3.2914000000059573],[-0.060000000000000026,0.29499999999999993,3.312599999994042],[-0.0390625,0.3290740740740742,3.3274000000059587],[-0.04020833333333336,0.3596296296296297,3.3411999999880777],[-0.051979166666666646,0.32703703703703707,3.3614000000059576],[-0.005729166666666666,0.33055555555555555,3.378699999988079],[0.0453125,0.30759259259259264,3.394400000005959],[0.0453125,0.30759259259259264,3.4077999999821174],[0.07114583333333328,0.2868518518518518,3.427299999982118],[0.11843750000000004,0.26074074074074066,3.4410999999940373],[0.1252083333333334,0.24777777777777768,3.4579999999999984],[0.12750000000000009,0.2455555555555556,3.474599999994041],[0.12999999999999995,0.2581481481481481,3.494699999988079],[0.1265625,0.21444444444444435,3.508499999999998],[0.14968750000000006,0.21740740740740735,3.5247999999821147],[0.1798958333333334,0.22888888888888892,3.5450999999940365],[0.16614583333333333,0.21888888888888897,3.5605999999940394],[0.16614583333333333,0.21888888888888897,3.5744000000059586],[0.15239583333333329,0.20888888888888882,3.594000000000001],[0.13229166666666667,0.2116666666666666,3.607999999999997],[0.12947916666666662,0.2116666666666666,3.6266999999880767],[0.13135416666666658,0.19907407407407407,3.6412999999821167],[0.10666666666666676,0.20092592592592592,3.661199999988078],[0.10062499999999991,0.12629629629629638,3.6745999999940366],[0.10541666666666671,0.07777777777777778,3.6916999999880815],[0.11395833333333343,0.009999999999999959,3.7079000000059565],[0.11041666666666666,-0.018518518518518517,3.7311999999880783],[0.11041666666666666,-0.018518518518518517,3.743699999988081],[0.10552083333333329,-0.029814814814814856,3.758400000005963],[0.10916666666666662,-0.06277777777777774,3.777799999982115],[0.1046875,-0.0883333333333333,3.794799999982118],[0.1125,-0.09425925925925922,3.808599999994037],[0.11281249999999995,-0.1051851851851852,3.8245000000000005],[0.16333333333333327,-0.14888888888888885,3.841099999994036],[0.1798958333333334,-0.1096296296296296,3.8579000000059622],[0.1779166666666666,-0.062407407407407384,3.8744999999999976],[0.16020833333333329,-0.08333333333333333,3.891199999988075],[0.15458333333333343,-0.14351851851851852,3.9077999999821174],[0.1720833333333334,-0.16055555555555553,3.924500000000002],[0.1720833333333334,-0.16055555555555553,3.9410999999940373],[0.16687500000000005,-0.14018518518518516,3.9579000000059565],[0.1727083333333333,-0.12759259259259256,3.9779000000059597],[0.1727083333333333,-0.12759259259259256,3.99140000000596],[0.15760416666666663,-0.12685185185185185,4.008000000000003],[0.14479166666666668,-0.1566666666666667,4.024599999994038],[0.10833333333333334,-0.16814814814814816,4.041099999994039],[0.12062499999999995,-0.1603703703703704,4.058500000000002],[0.13291666666666657,-0.15259259259259256,4.074400000005959],[0.12791666666666662,-0.10018518518518522,4.093699999988075],[0.12802083333333342,-0.05740740740740741,4.10779999998212],[0.11604166666666677,0.009814814814814731,4.124499999999998],[0.13354166666666673,0.021851851851851768,4.141699999988077],[0.13354166666666673,0.021851851851851768,4.157900000005959],[0.1759375000000001,0.07074074074074083,4.174500000000002],[0.20062499999999991,0.08203703703703695,4.1916999999880815],[0.23479166666666676,0.15333333333333324,4.207999999999998],[0.26895833333333335,0.22462962962962954,4.224499999999999],[0.27239583333333334,0.2611111111111111,4.2410999999940415],[0.27239583333333334,0.2611111111111111,4.258000000000003],[0.2599999999999999,0.29370370370370374,4.274499999999996],[0.27062499999999995,0.2831481481481481,4.291699999988076],[0.27062499999999995,0.2831481481481481,4.307699999988081],[0.27614583333333326,0.2822222222222222,4.324599999994042],[0.27802083333333344,0.30351851851851847,4.341799999982115],[0.27802083333333344,0.30351851851851847,4.357900000005962],[0.28312499999999996,0.36444444444444435,4.374499999999998],[0.28312499999999996,0.36444444444444435,4.391199999988075],[0.22322916666666662,0.3611111111111111,4.407799999982117],[0.22322916666666662,0.3611111111111111,4.424599999994037],[0.20364583333333333,0.4148148148148148,4.441199999988079],[0.20364583333333333,0.4148148148148148,4.457999999999998],[0.18520833333333328,0.41759259259259257,4.474400000005957],[0.18520833333333328,0.41759259259259257,4.491199999988076],[0.15958333333333338,0.4514814814814814,4.507699999988077],[0.15958333333333338,0.4514814814814814,4.524499999999996],[0.12770833333333323,0.44240740740740736,4.540999999999997],[0.12770833333333323,0.44240740740740736,4.558],[0.11177083333333329,0.44425925925925924,4.5745000000000005],[0.06479166666666672,0.46277777777777773,4.591199999988078],[0.011666666666666714,0.5142592592592593,4.60779999998212],[-0.03208333333333328,0.4955555555555556,4.624499999999998],[-0.09437500000000003,0.4766666666666666,4.640999999999998],[-0.11031249999999998,0.5081481481481481,4.66019999998808],[-0.14020833333333335,0.5131481481481482,4.674900000005962],[-0.14177083333333335,0.4994444444444445,4.691099999994037],[-0.12854166666666664,0.4581481481481481,4.70769999998808],[-0.14135416666666673,0.3987037037037036,4.726199999988076],[-0.1538541666666667,0.3442592592592592,4.741199999988076],[-0.1203125,0.3501851851851852,4.7605],[-0.06499999999999997,0.27148148148148155,4.775199999988075],[-0.016979166666666618,0.22740740740740734,4.791299999982115],[0.018333333333333358,0.20333333333333325,4.807699999988081],[0.036562500000000026,0.15685185185185194,4.824599999994042]]","[0.0002999999821184929,0.039400000005962,0.045999999999999375,0.06169999998807896,0.07469999998807708,0.09390000000595933,0.11090000000596234,0.12740000000596297,0.14179999998211912,0.16129999998211986,0.17529999998211565,0.19200000000000017,0.20979999998211696,0.22519999998807805,0.24499999999999744,0.2609000000059609,0.27509999999404045,0.2912999999821153,0.30790000000595796,0.3245999999940423,0.3411999999880777,0.35809999999403885,0.3744999999999976,0.39129999998211673,0.40840000000596177,0.4246999999880785,0.441299999982121,0.45790000000595654,0.47449999999999903,0.4911999999880763,0.5077999999821188,0.5244999999999962,0.5410999999940387,0.5610999999940418,0.5745000000000005,0.5912999999821196,0.6084999999999994,0.6246999999880813,0.6410999999940401,0.6605999999940408,0.6745000000000019,0.6911999999880791,0.7077999999821145,0.7274000000059573,0.7460000000000022,0.7620000000000005,0.77769999998808,0.7916999999880758,0.8077999999821159,0.8246999999880771,0.8411999999880777,0.8630999999940414,0.8785999999940373,0.8919000000059611,0.9084000000059618,0.9246999999880785,0.9411999999880791,0.9609999999999985,0.974499999999999,0.9912999999821182,1.0079000000059608,1.02469999998808,1.0410999999940387,1.0615000000000023,1.074799999982119,1.0912999999821196,1.1077999999821202,1.1249000000059581,1.14109999999404,1.158099999994036,1.17440000000596,1.1972999999821212,1.2079000000059565,1.224599999994041,1.2410999999940415,1.2580999999940374,1.2744000000059614,1.2912999999821153,1.307799999982116,1.3245999999940423,1.3411999999880777,1.3580999999940389,1.374799999982116,1.3912999999821167,1.4077999999821174,1.4245999999940366,1.4410999999940373,1.4600000000000009,1.474499999999999,1.4911999999880763,1.5080000000000027,1.5272999999821195,1.5474000000059576,1.5579999999999998,1.5744000000059586,1.5911999999880777,1.6077999999821202,1.6281999999880767,1.6421999999880796,1.658099999994036,1.6745999999940366,1.691299999982121,1.7077999999821145,1.726900000005962,1.7445000000000022,1.7612999999821213,1.7779000000059568,1.7912999999821153,1.807799999982116,1.8245000000000005,1.8411999999880777,1.8599000000059576,1.8744999999999976,1.8911999999880749,1.9077999999821174,1.9246999999880785,1.9411999999880791,1.9610999999940404,1.974499999999999,1.9912999999821182,2.0080999999940374,2.0247999999821147,2.0410999999940387,2.0602999999821208,2.0745000000000005,2.0911999999880777,2.10779999998212,2.1245999999940395,2.14109999999404,2.160499999999999,2.174500000000002,2.191400000005963,2.2077999999821145,2.224599999994041,2.2411999999880763,2.2599000000059632,2.2744000000059614,2.2911999999880805,2.307799999982116,2.3245999999940423,2.341099999994036,2.3599999999999994,2.374400000005963,2.391199999988075,2.4077999999821174,2.4245999999940366,2.441199999988079,2.458500000000001,2.474499999999999,2.4911999999880763,2.5077999999821188,2.524599999994038,2.5411999999880805,2.560199999988079,2.5745000000000005,2.5912999999821196,2.60779999998212,2.6245999999940395,2.64109999999404,2.6582999999821197,2.674500000000002,2.691199999988079,2.7079000000059565,2.7262999999821176,2.743000000000002,2.7611999999880794,2.7772999999821195,2.7911999999880805,2.807799999982116,2.8245999999940423,2.841099999994036,2.858699999988076,2.8744999999999976,2.891199999988075,2.9079000000059594,2.924500000000002,2.941199999988079,2.9594999999999985,2.974499999999999,2.991299999982118,3.007900000005961,3.024599999994038,3.0411999999880805,3.058500000000002,3.0745000000000005,3.0936999999880754,3.108099999994039,3.125,3.1454999999999984,3.161199999988078,3.174999999999997,3.1940999999940374,3.2080999999940403,3.230699999988076,3.2480999999940394,3.2580999999940374,3.274599999994038,3.2914000000059573,3.312599999994042,3.3274000000059587,3.3411999999880777,3.3614000000059576,3.378699999988079,3.394400000005959,3.4077999999821174,3.427299999982118,3.4410999999940373,3.4579999999999984,3.474599999994041,3.494699999988079,3.508499999999998,3.5247999999821147,3.5450999999940365,3.5605999999940394,3.5744000000059586,3.594000000000001,3.607999999999997,3.6266999999880767,3.6412999999821167,3.661199999988078,3.6745999999940366,3.6916999999880815,3.7079000000059565,3.7311999999880783,3.743699999988081,3.758400000005963,3.777799999982115,3.794799999982118,3.808599999994037,3.8245000000000005,3.841099999994036,3.8579000000059622,3.8744999999999976,3.891199999988075,3.9077999999821174,3.924500000000002,3.9410999999940373,3.9579000000059565,3.9779000000059597,3.99140000000596,4.008000000000003,4.024599999994038,4.041099999994039,4.058500000000002,4.074400000005959,4.093699999988075,4.10779999998212,4.124499999999998,4.141699999988077,4.157900000005959,4.174500000000002,4.1916999999880815,4.207999999999998,4.224499999999999,4.2410999999940415,4.258000000000003,4.274499999999996,4.291699999988076,4.307699999988081,4.324599999994042,4.341799999982115,4.357900000005962,4.374499999999998,4.391199999988075,4.407799999982117,4.424599999994037,4.441199999988079,4.457999999999998,4.474400000005957,4.491199999988076,4.507699999988077,4.524499999999996,4.540999999999997,4.558,4.5745000000000005,4.591199999988078,4.60779999998212,4.624499999999998,4.640999999999998,4.66019999998808,4.674900000005962,4.691099999994037,4.70769999998808,4.726199999988076,4.741199999988076,4.7605,4.775199999988075,4.791299999982115,4.807699999988081,4.824599999994042]","[1733383188108,1733383188141,1733383188147,1733383188163,1733383188176,1733383188195,1733383188212,1733383188229,1733383188243,1733383188263,1733383188277,1733383188294,1733383188311,1733383188327,1733383188346,1733383188362,1733383188377,1733383188393,1733383188409,1733383188426,1733383188443,1733383188460,1733383188476,1733383188493,1733383188510,1733383188526,1733383188543,1733383188559,1733383188576,1733383188593,1733383188609,1733383188626,1733383188643,1733383188663,1733383188676,1733383188693,1733383188710,1733383188726,1733383188743,1733383188762,1733383188776,1733383188793,1733383188809,1733383188829,1733383188847,1733383188863,1733383188879,1733383188893,1733383188909,1733383188926,1733383188943,1733383188965,1733383188980,1733383188993,1733383189010,1733383189026,1733383189043,1733383189062,1733383189076,1733383189094,1733383189111,1733383189128,1733383189144,1733383189165,1733383189178,1733383189194,1733383189211,1733383189228,1733383189244,1733383189261,1733383189278,1733383189300,1733383189311,1733383189328,1733383189344,1733383189361,1733383189378,1733383189394,1733383189411,1733383189428,1733383189444,1733383189461,1733383189478,1733383189494,1733383189511,1733383189528,1733383189544,1733383189563,1733383189578,1733383189594,1733383189611,1733383189630,1733383189650,1733383189661,1733383189678,1733383189694,1733383189711,1733383189731,1733383189745,1733383189761,1733383189778,1733383189794,1733383189811,1733383189830,1733383189848,1733383189864,1733383189881,1733383189894,1733383189911,1733383189928,1733383189944,1733383189963,1733383189978,1733383189994,1733383190011,1733383190028,1733383190044,1733383190064,1733383190078,1733383190094,1733383190111,1733383190128,1733383190144,1733383190163,1733383190178,1733383190194,1733383190211,1733383190228,1733383190244,1733383190264,1733383190278,1733383190295,1733383190311,1733383190328,1733383190344,1733383190363,1733383190378,1733383190394,1733383190411,1733383190428,1733383190444,1733383190463,1733383190478,1733383190494,1733383190511,1733383190528,1733383190544,1733383190562,1733383190578,1733383190594,1733383190611,1733383190628,1733383190644,1733383190663,1733383190678,1733383190694,1733383190711,1733383190728,1733383190744,1733383190761,1733383190778,1733383190794,1733383190811,1733383190829,1733383190846,1733383190864,1733383190880,1733383190894,1733383190911,1733383190928,1733383190944,1733383190962,1733383190978,1733383190994,1733383191011,1733383191028,1733383191044,1733383191063,1733383191078,1733383191094,1733383191111,1733383191128,1733383191144,1733383191162,1733383191178,1733383191197,1733383191211,1733383191228,1733383191249,1733383191264,1733383191278,1733383191297,1733383191311,1733383191334,1733383191351,1733383191361,1733383191378,1733383191394,1733383191416,1733383191430,1733383191444,1733383191464,1733383191482,1733383191497,1733383191511,1733383191530,1733383191544,1733383191561,1733383191578,1733383191598,1733383191612,1733383191628,1733383191648,1733383191664,1733383191678,1733383191697,1733383191711,1733383191730,1733383191744,1733383191764,1733383191778,1733383191795,1733383191811,1733383191834,1733383191847,1733383191862,1733383191881,1733383191898,1733383191912,1733383191928,1733383191944,1733383191961,1733383191978,1733383191994,1733383192011,1733383192028,1733383192044,1733383192061,1733383192081,1733383192095,1733383192111,1733383192128,1733383192144,1733383192162,1733383192178,1733383192197,1733383192211,1733383192228,1733383192245,1733383192261,1733383192278,1733383192295,1733383192311,1733383192328,1733383192344,1733383192361,1733383192378,1733383192395,1733383192411,1733383192428,1733383192445,1733383192461,1733383192478,1733383192494,1733383192511,1733383192528,1733383192544,1733383192561,1733383192578,1733383192594,1733383192611,1733383192628,1733383192644,1733383192661,1733383192678,1733383192694,1733383192711,1733383192728,1733383192744,1733383192763,1733383192778,1733383192794,1733383192811,1733383192829,1733383192844,1733383192864,1733383192878,1733383192894,1733383192911,1733383192928]","[[899.8,687.3],[899.8,687.3],[894.1,677.4],[898.5,665],[906.5,655],[912.8,653.3],[915.8,645.8],[899,633.9],[896.9,644.7],[888.1,616.9],[879.2,596.8],[869.6,586.4],[868.6,587.1],[869.1,583.2],[869.1,583.2],[871,595],[860.7,573.5],[857.3,552.1],[866.2,546.3],[864.7,513.3],[864.7,513.3],[874.6,502.7],[884.6,520.4],[901.4,531.3],[909.7,544.8],[889.5,543.7],[864.3,524.5],[868.7,536.4],[847.5,550.2],[825.9,584.5],[800,623.3],[805.6,660.6],[775.9,664],[723.2,652.8],[696.7,656.6],[725.4,676.8],[727.3,676.8],[708.4,678],[724.6,678.7],[739.7,653.9],[741,635.2],[723,617.2],[732.6,606.7],[780.1,613.1],[819.7,609.6],[825.1,608.1],[858,629.5],[887.5,627.8],[900.6,624.6],[915.9,633.5],[959.1,613.7],[972.6,621.7],[995.3,607.2],[1000.1,603.8],[992.3,578.9],[993.1,572.1],[993.2,562.6],[990.2,563.2],[1009,567.8],[1031,544.6],[1019.8,561.7],[1026.1,551.8],[1031.9,563.1],[1017.7,578.9],[1034.3,631.1],[1021,633],[1007.7,634.9],[1004.5,655],[1008.8,669.3],[1008.8,669.3],[984.6,696.2],[979.4,701.3],[979.4,701.3],[997.4,734.5],[997.4,734.5],[999.8,776.2],[999.8,776.2],[1010.3,802.9],[1010.3,802.9],[984.3,804.9],[984.3,804.9],[1001.1,834.4],[1003.1,856.5],[1001.9,867.8],[988.7,890.8],[1002.4,921.1],[1002.9,951.8],[999.9,949.3],[1000.9,934],[987.1,912.1],[1003.2,907.8],[995.6,897.8],[1002.8,895.2],[1002.8,895.2],[1027.7,881.9],[1013.6,863.7],[997.2,846.3],[988.1,831.3],[976.6,809.7],[942.1,787],[922.4,770.9],[888.9,756.7],[865.1,749.1],[860.2,754.7],[812,760.5],[785.5,761.3],[777.4,771.6],[775.3,783.2],[754.3,801.5],[745.8,811.9],[759.4,835.6],[760.3,849.5],[753.3,854.8],[732.4,855.6],[732.5,861.7],[734.9,866.7],[744.4,876],[719.7,860.2],[696.6,849.4],[714.8,863.9],[701.6,852.9],[688.4,836.6],[693.2,827.3],[677,811.6],[667.5,798.2],[660.3,781.2],[627.8,761.4],[627.8,761.4],[652.9,748.5],[657,745.7],[643.5,728.3],[639.3,723.1],[656.1,725],[649,731.3],[661.8,722.5],[676.8,724.2],[687.2,730.6],[708.6,734.6],[699.2,756],[724.9,753.9],[749,754.4],[769.9,754.1],[764.3,751.8],[778.2,738.5],[788.2,738],[790.8,726.8],[798.4,725.6],[786,700.8],[781,676.8],[767,681.6],[753,686.4],[751,681],[748.1,675.5],[742.3,671.3],[727.5,666.4],[717.9,661.7],[705.3,651.2],[702.6,658.9],[699.9,666.6],[693.3,648.3],[686.7,630],[685.2,628.9],[679.3,616.9],[689.9,620.2],[711.2,623.9],[730.8,633.1],[751.3,634.1],[762.8,617.9],[774.3,601.7],[787.8,604.2],[807.5,605],[800.6,597.6],[807.7,594.1],[801,577.1],[792.6,560.4],[804.4,541.8],[813.3,527.2],[825.4,550.2],[863.9,564.6],[892,574],[898,585.1],[912.8,595.6],[931.5,609.6],[964.4,624.9],[997.3,640.2],[1000.7,647],[1005.3,673.7],[1008.6,661.6],[989.9,655.8],[981.8,676.4],[961.3,669.2],[940.1,678.9],[957,676.5],[957,676.5],[912.3,685],[912.3,685],[899.2,697],[901.4,708.1],[902.4,699.3],[922.5,717.7],[921.4,734.2],[910.1,716.6],[954.5,718.5],[1003.5,706.1],[1003.5,706.1],[1028.3,694.9],[1073.7,680.8],[1080.2,673.8],[1082.4,672.6],[1084.8,679.4],[1081.5,655.8],[1103.7,657.4],[1132.7,663.6],[1119.5,658.2],[1119.5,658.2],[1106.3,652.8],[1087,654.3],[1084.3,654.3],[1086.1,647.5],[1062.4,648.5],[1056.6,608.2],[1061.2,582],[1069.4,545.4],[1066,530],[1066,530],[1061.3,523.9],[1064.8,506.1],[1060.5,492.3],[1068,489.1],[1068.3,483.2],[1116.8,459.6],[1132.7,480.8],[1130.8,506.3],[1113.8,495],[1108.4,462.5],[1125.2,453.3],[1125.2,453.3],[1120.2,464.3],[1125.8,471.1],[1125.8,471.1],[1111.3,471.5],[1099,455.4],[1064,449.2],[1075.8,453.4],[1087.6,457.6],[1082.8,485.9],[1082.9,509],[1071.4,545.3],[1088.2,551.8],[1088.2,551.8],[1128.9,578.2],[1152.6,584.3],[1185.4,622.8],[1218.2,661.3],[1221.5,681],[1221.5,681],[1209.6,698.6],[1219.8,692.9],[1219.8,692.9],[1225.1,692.4],[1226.9,703.9],[1226.9,703.9],[1231.8,736.8],[1231.8,736.8],[1174.3,735],[1174.3,735],[1155.5,764],[1155.5,764],[1137.8,765.5],[1137.8,765.5],[1113.2,783.8],[1113.2,783.8],[1082.6,778.9],[1082.6,778.9],[1067.3,779.9],[1022.2,789.9],[971.2,817.7],[929.2,807.6],[869.4,797.4],[854.1,814.4],[825.4,817.1],[823.9,809.7],[836.6,787.4],[824.3,755.3],[812.3,725.9],[844.5,729.1],[897.6,686.6],[943.7,662.8],[977.6,649.8],[995.1,624.7]]","[0,0.151169218]","[0.151169218,0.151169218]","[-0.151169218,-0.151169218]","[-0.151169218,0]","[0,-0.151169218]","[0.151169218,-0.151169218]","[0,0]","[0.151169218,0]",0,0,0,0,1,4,Smartphone,11,5,13,9
