inst1_resp.keys,inst1_resp.rt,calibrationMouse.x,calibrationMouse.y,calibrationMouse.leftButton,calibrationMouse.midButton,calibrationMouse.rightButton,calibrationClick.x,calibrationClick.y,calibrationClick.leftButton,calibrationClick.midButton,calibrationClick.rightButton,trialsc.thisRepN,trialsc.thisTrialN,trialsc.thisN,trialsc.thisIndex,trialsc.ran,calibration_x,calibration_y,participant,session,date,expName,psychopyVersion,OS,frameRate,calibrationClick.clicked_name,ScreenRes_pixels,Camera_pixels,mouse_2.x,mouse_2.y,mouse_2.leftButton,mouse_2.midButton,mouse_2.rightButton,mouse_2.time,mouse_2.clicked_name,mouse.x,mouse.y,mouse.leftButton,mouse.midButton,mouse.rightButton,mouse.time,mouse.clicked_name,Choice,Trial,TrialDuration,MOUSE_GAZE,ET_GAZE,ET_GAZE_x_T,time,unixTime,ET_GAZE_NF,Loc_Option1_label,Loc_Option2_label,Loc_Cost_label,Loc_Qual_label,Loc_Option1_cost,Loc_Option2_cost,Loc_Option1_quality,Loc_Option2_quality,trials.thisRepN,trials.thisTrialN,trials.thisN,trials.thisIndex,trials.ran,Block,Device,cost1,qual1,cost2,qual2
space,1.7802,-0.91875,0.148148148,1,0,0,0.339583333,0.681481481,0,0,0,0,0,0,18,1,0.33,0.67,17,001,2024-12-04_14h25.08.561,Attention_exp_legacy,2023.1.0,Win32,59.88023952,,,,,,,,,,,,,,,,,,,,,,,,,,,,,,,,,,,,,,,,,,,,,
,,,,,,,-0.013541667,0.694444444,1,0,0,0,1,1,13,1,0,0.67,17,001,2024-12-04_14h25.08.561,Attention_exp_legacy,2023.1.0,Win32,59.88023952,,,,,,,,,,,,,,,,,,,,,,,,,,,,,,,,,,,,,,,,,,,,,
,,,,,,,-0.665625,0.012962963,1,0,0,0,2,2,2,1,-0.67,0,17,001,2024-12-04_14h25.08.561,Attention_exp_legacy,2023.1.0,Win32,59.88023952,,,,,,,,,,,,,,,,,,,,,,,,,,,,,,,,,,,,,,,,,,,,,
,,,,,,,-0.341666667,-0.662962963,1,0,0,0,3,3,4,1,-0.33,-0.67,17,001,2024-12-04_14h25.08.561,Attention_exp_legacy,2023.1.0,Win32,59.88023952,,,,,,,,,,,,,,,,,,,,,,,,,,,,,,,,,,,,,,,,,,,,,
,,,,,,,-0.017708333,0.012962963,1,0,0,0,4,4,11,1,0,0,17,001,2024-12-04_14h25.08.561,Attention_exp_legacy,2023.1.0,Win32,59.88023952,,,,,,,,,,,,,,,,,,,,,,,,,,,,,,,,,,,,,,,,,,,,,
,,,,,,,-0.335416667,0.009259259,1,0,0,0,5,5,6,1,-0.33,0,17,001,2024-12-04_14h25.08.561,Attention_exp_legacy,2023.1.0,Win32,59.88023952,calibration_square,,,,,,,,,,,,,,,,,,,,,,,,,,,,,,,,,,,,,,,,,,,,
,,,,,,,-0.330208333,0.674074074,1,0,0,0,6,6,8,1,-0.33,0.67,17,001,2024-12-04_14h25.08.561,Attention_exp_legacy,2023.1.0,Win32,59.88023952,calibration_square,,,,,,,,,,,,,,,,,,,,,,,,,,,,,,,,,,,,,,,,,,,,
,,,,,,,0.326041667,0.331481481,1,0,0,0,7,7,17,1,0.33,0.33,17,001,2024-12-04_14h25.08.561,Attention_exp_legacy,2023.1.0,Win32,59.88023952,calibration_square,,,,,,,,,,,,,,,,,,,,,,,,,,,,,,,,,,,,,,,,,,,,
,,,,,,,-0.013541667,-0.668518519,1,0,0,0,8,8,9,1,0,-0.67,17,001,2024-12-04_14h25.08.561,Attention_exp_legacy,2023.1.0,Win32,59.88023952,,,,,,,,,,,,,,,,,,,,,,,,,,,,,,,,,,,,,,,,,,,,,
,,,,,,,-0.684375,-0.659259259,1,0,0,0,9,9,0,1,-0.67,-0.67,17,001,2024-12-04_14h25.08.561,Attention_exp_legacy,2023.1.0,Win32,59.88023952,,,,,,,,,,,,,,,,,,,,,,,,,,,,,,,,,,,,,,,,,,,,,
,,,,,,,-0.332291667,-0.322222222,1,0,0,0,10,10,5,1,-0.33,-0.33,17,001,2024-12-04_14h25.08.561,Attention_exp_legacy,2023.1.0,Win32,59.88023952,calibration_square,,,,,,,,,,,,,,,,,,,,,,,,,,,,,,,,,,,,,,,,,,,,
,,,,,,,-0.016666667,-0.316666667,1,0,0,0,11,11,10,1,0,-0.33,17,001,2024-12-04_14h25.08.561,Attention_exp_legacy,2023.1.0,Win32,59.88023952,,,,,,,,,,,,,,,,,,,,,,,,,,,,,,,,,,,,,,,,,,,,,
,,,,,,,0.3125,-0.316666667,1,0,0,0,12,12,15,1,0.33,-0.33,17,001,2024-12-04_14h25.08.561,Attention_exp_legacy,2023.1.0,Win32,59.88023952,,,,,,,,,,,,,,,,,,,,,,,,,,,,,,,,,,,,,,,,,,,,,
,,,,,,,-0.672916667,-0.333333333,1,0,0,0,13,13,1,1,-0.67,-0.33,17,001,2024-12-04_14h25.08.561,Attention_exp_legacy,2023.1.0,Win32,59.88023952,calibration_square,,,,,,,,,,,,,,,,,,,,,,,,,,,,,,,,,,,,,,,,,,,,
,,,,,,,-0.336458333,0.340740741,1,0,0,0,14,14,7,1,-0.33,0.33,17,001,2024-12-04_14h25.08.561,Attention_exp_legacy,2023.1.0,Win32,59.88023952,,,,,,,,,,,,,,,,,,,,,,,,,,,,,,,,,,,,,,,,,,,,,
,,,,,,,0.329166667,0.005555556,1,0,0,0,15,15,16,1,0.33,0,17,001,2024-12-04_14h25.08.561,Attention_exp_legacy,2023.1.0,Win32,59.88023952,calibration_square,,,,,,,,,,,,,,,,,,,,,,,,,,,,,,,,,,,,,,,,,,,,
,,,,,,,0.339583333,-0.588888889,1,0,0,0,16,16,14,1,0.33,-0.67,17,001,2024-12-04_14h25.08.561,Attention_exp_legacy,2023.1.0,Win32,59.88023952,,,,,,,,,,,,,,,,,,,,,,,,,,,,,,,,,,,,,,,,,,,,,
,,,,,,,-0.002083333,0.342592593,1,0,0,0,17,17,12,1,0,0.33,17,001,2024-12-04_14h25.08.561,Attention_exp_legacy,2023.1.0,Win32,59.88023952,,,,,,,,,,,,,,,,,,,,,,,,,,,,,,,,,,,,,,,,,,,,,
,,,,,,,0.682291667,0.681481481,1,0,0,0,18,18,19,1,0.67,0.67,17,001,2024-12-04_14h25.08.561,Attention_exp_legacy,2023.1.0,Win32,59.88023952,,,,,,,,,,,,,,,,,,,,,,,,,,,,,,,,,,,,,,,,,,,,,
,,,,,,,-0.707291667,0.37962963,0,0,0,0,19,19,3,1,-0.67,0.33,17,001,2024-12-04_14h25.08.561,Attention_exp_legacy,2023.1.0,Win32,59.88023952,,,,,,,,,,,,,,,,,,,,,,,,,,,,,,,,,,,,,,,,,,,,,
,,,,,,,0.671875,-0.635185185,1,0,0,0,20,20,20,1,0.67,-0.67,17,001,2024-12-04_14h25.08.561,Attention_exp_legacy,2023.1.0,Win32,59.88023952,,,,,,,,,,,,,,,,,,,,,,,,,,,,,,,,,,,,,,,,,,,,,
,,,,,,,,,,,,,,,,,,,17,001,2024-12-04_14h25.08.561,Attention_exp_legacy,2023.1.0,Win32,59.88023952,,"[1920,1080]","[640,480]",[-0.028125],[-0.5037037037037037],[1],[0],[0],[1.2485],"[""StartButton""]",[0.38125],[0.2833333333333333],[1],[0],[0],[1.7512999999970162],"[""Option2_label""]",Option2_label,1,2.7754,"[[-0.040625,-0.4740740740740741],[-0.040625,-0.4703703703703704],[-0.040625,-0.4703703703703704],[-0.040625,-0.4703703703703704],[-0.040625,-0.4703703703703704],[-0.040625,-0.4703703703703704],[-0.040625,-0.4703703703703704],[-0.040625,-0.4703703703703704],[-0.040625,-0.4703703703703704],[-0.040625,-0.4703703703703704],[-0.040625,-0.4703703703703704],[-0.040625,-0.4703703703703704],[-0.040625,-0.4703703703703704],[-0.040625,-0.4703703703703704],[-0.040625,-0.4703703703703704],[-0.040625,-0.4703703703703704],[-0.040625,-0.4703703703703704],[-0.040625,-0.4703703703703704],[-0.040625,-0.4703703703703704],[-0.040625,-0.4703703703703704],[-0.040625,-0.4703703703703704],[-0.040625,-0.4703703703703704],[-0.040625,-0.4703703703703704],[-0.040625,-0.4703703703703704],[-0.040625,-0.4703703703703704],[-0.040625,-0.4703703703703704],[-0.040625,-0.4703703703703704],[-0.040625,-0.4703703703703704],[-0.040625,-0.4703703703703704],[-0.040625,-0.4703703703703704],[-0.040625,-0.4703703703703704],[-0.03958333333333333,-0.4703703703703704],[-0.0375,-0.4703703703703704],[-0.036458333333333336,-0.4703703703703704],[-0.03333333333333333,-0.4685185185185185],[-0.03333333333333333,-0.4685185185185185],[-0.03125,-0.4666666666666667],[-0.030208333333333334,-0.4666666666666667],[-0.027083333333333334,-0.4648148148148148],[-0.023958333333333335,-0.46296296296296297],[-0.01875,-0.45925925925925926],[-0.0125,-0.45555555555555555],[-0.00625,-0.45],[0.0010416666666666667,-0.4388888888888889],[0.011458333333333333,-0.42777777777777776],[0.017708333333333333,-0.4166666666666667],[0.021875,-0.40370370370370373],[0.026041666666666668,-0.3851851851851852],[0.028125,-0.362962962962963],[0.029166666666666667,-0.3333333333333333],[0.03125,-0.30185185185185187],[0.034375,-0.26666666666666666],[0.035416666666666666,-0.22592592592592592],[0.041666666666666664,-0.15555555555555556],[0.04479166666666667,-0.13148148148148148],[0.04791666666666667,-0.08148148148148149],[0.052083333333333336,-0.037037037037037035],[0.05416666666666667,0],[0.058333333333333334,0.046296296296296294],[0.06145833333333333,0.06481481481481481],[0.0625,0.07037037037037037],[0.0625,0.07037037037037037],[0.06354166666666666,0.07037037037037037],[0.06770833333333333,0.07037037037037037],[0.071875,0.07037037037037037],[0.090625,0.07037037037037037],[0.13020833333333334,0.07037037037037037],[0.17916666666666667,0.07037037037037037],[0.24166666666666667,0.07037037037037037],[0.32083333333333336,0.07037037037037037],[0.425,0.07037037037037037],[0.6135416666666667,0.07037037037037037],[0.734375,0.07037037037037037],[0.825,0.07037037037037037],[0.8697916666666666,0.07037037037037037],[0.8833333333333333,0.07037037037037037],[0.8854166666666666,0.07037037037037037],[0.8854166666666666,0.07037037037037037],[0.884375,0.07037037037037037],[0.8729166666666667,0.06851851851851852],[0.8520833333333333,0.06851851851851852],[0.821875,0.06851851851851852],[0.7760416666666666,0.06851851851851852],[0.6895833333333333,0.07222222222222222],[0.640625,0.08888888888888889],[0.5864583333333333,0.12037037037037036],[0.5322916666666667,0.15],[0.49375,0.17592592592592593],[0.46770833333333334,0.1962962962962963],[0.4395833333333333,0.22407407407407406],[0.421875,0.2388888888888889],[0.40729166666666666,0.25555555555555554],[0.39895833333333336,0.26481481481481484],[0.3927083333333333,0.27037037037037037],[0.38645833333333335,0.2740740740740741],[0.384375,0.2759259259259259],[0.38333333333333336,0.2777777777777778],[0.38333333333333336,0.2777777777777778],[0.38333333333333336,0.2777777777777778],[0.38333333333333336,0.2777777777777778],[0.38229166666666664,0.2777777777777778],[0.38229166666666664,0.2777777777777778],[0.38229166666666664,0.2777777777777778],[0.38125,0.2796296296296296],[0.38125,0.2833333333333333],[0.38125,0.2833333333333333],[0.38125,0.2833333333333333],[0.38125,0.2833333333333333],[0.38125,0.2833333333333333],[0.38125,0.2833333333333333],[0.38125,0.2833333333333333],[0.38125,0.2833333333333333],[0.38125,0.2833333333333333],[0.38125,0.2833333333333333],[0.38125,0.2833333333333333],[0.38125,0.2833333333333333],[0.38125,0.2833333333333333],[0.38125,0.2833333333333333],[0.38125,0.2833333333333333],[0.38125,0.2833333333333333],[0.38125,0.2833333333333333],[0.38125,0.2833333333333333],[0.38125,0.2833333333333333],[0.38125,0.2833333333333333],[0.38125,0.2833333333333333],[0.38125,0.2833333333333333],[0.38125,0.2833333333333333],[0.38125,0.2851851851851852],[0.38125,0.2851851851851852],[0.38125,0.2851851851851852],[0.38229166666666664,0.2851851851851852],[0.38229166666666664,0.2851851851851852],[0.38229166666666664,0.2851851851851852],[0.38333333333333336,0.2851851851851852],[0.38333333333333336,0.2851851851851852],[0.384375,0.2851851851851852],[0.384375,0.2851851851851852],[0.384375,0.2851851851851852],[0.384375,0.2851851851851852],[0.384375,0.2851851851851852],[0.384375,0.2851851851851852],[0.384375,0.2851851851851852],[0.384375,0.2851851851851852],[0.384375,0.2851851851851852],[0.384375,0.2851851851851852],[0.384375,0.2851851851851852],[0.3854166666666667,0.2851851851851852],[0.3854166666666667,0.2851851851851852],[0.3854166666666667,0.2851851851851852],[0.3854166666666667,0.2851851851851852],[0.3854166666666667,0.2851851851851852],[0.3854166666666667,0.2851851851851852],[0.3854166666666667,0.2851851851851852],[0.3854166666666667,0.2851851851851852],[0.3854166666666667,0.2851851851851852],[0.38645833333333335,0.2833333333333333],[0.38645833333333335,0.2833333333333333],[0.38645833333333335,0.2833333333333333],[0.38645833333333335,0.2833333333333333],[0.38645833333333335,0.2833333333333333],[0.38645833333333335,0.2833333333333333],[0.38645833333333335,0.2833333333333333],[0.38645833333333335,0.2833333333333333],[0.38645833333333335,0.2833333333333333],[0.38645833333333335,0.2833333333333333],[0.38645833333333335,0.2833333333333333],[0.38645833333333335,0.2833333333333333]]","[[-0.18958333333333333,0.40111111111111114],[-0.18958333333333333,0.40111111111111114],[-0.21062500000000003,0.3485185185185186],[-0.22729166666666673,0.2774074074074073],[-0.2577083333333333,0.21203703703703702],[-0.29656250000000006,0.12925925925925918],[-0.3304166666666667,0.05925925925925926],[-0.3685416666666666,-0.0031481481481482323],[-0.3988541666666666,-0.06425925925925924],[-0.3876041666666667,-0.10462962962962963],[-0.37864583333333335,-0.15240740740740744],[-0.318125,-0.13944444444444445],[-0.3195833333333333,-0.11888888888888886],[-0.31979166666666664,-0.11740740740740736],[-0.31375000000000003,-0.1161111111111111],[-0.30343749999999997,-0.09574074074074072],[-0.306875,-0.0948148148148148],[-0.32000000000000006,-0.10111111111111115],[-0.321875,-0.10092592592592593],[-0.3216666666666666,-0.1161111111111111],[-0.31197916666666664,-0.1111111111111111],[-0.3203125,-0.08129629629629626],[-0.33312499999999995,-0.06388888888888888],[-0.31010416666666674,-0.0022222222222223064],[-0.2846874999999999,0.05481481481481486],[-0.21364583333333337,0.08129629629629626],[-0.14052083333333332,0.09240740740740737],[-0.05770833333333331,0.11074074074074065],[0.0006250000000000236,0.1301851851851851],[0.059375,0.15481481481481485],[0.07833333333333338,0.21333333333333343],[0.11864583333333342,0.2512962962962964],[0.1388541666666666,0.290925925925926],[0.12364583333333339,0.27611111111111114],[0.11864583333333342,0.29000000000000004],[0.07166666666666661,0.337037037037037],[0.012083333333333357,0.39407407407407397],[-0.022187499999999954,0.4612962962962963],[-0.03770833333333338,0.5111111111111111],[-0.07677083333333339,0.5548148148148149],[-0.08354166666666671,0.5622222222222223],[-0.09895833333333333,0.5544444444444444],[-0.08760416666666669,0.5479629629629629],[-0.1092708333333333,0.5851851851851851],[-0.09572916666666664,0.5522222222222223],[-0.0875,0.5205555555555555],[-0.06072916666666662,0.4883333333333334],[-0.090625,0.467962962962963],[-0.11322916666666671,0.4607407407407407],[-0.1390625,0.4735185185185186],[-0.13958333333333334,0.45444444444444443],[-0.14718749999999994,0.43944444444444436],[-0.15552083333333327,0.4112962962962963],[-0.1140625,0.3685185185185185],[-0.11937500000000002,0.3453703703703704],[-0.15458333333333332,0.30629629629629623],[-0.1671875,0.29666666666666675],[-0.15281250000000005,0.2601851851851852],[-0.1140625,0.23351851851851857],[-0.05447916666666662,0.20462962962962963],[-0.0328125,0.11629629629629622],[-0.005520833333333286,0.05314814814814823],[-0.005520833333333286,0.05314814814814823],[0.017499999999999953,0.020555555555555598],[0.017499999999999953,0.020555555555555598],[0.025729166666666713,0.002777777777777778],[0.02645833333333331,-0.007777777777777862],[0.08927083333333338,0.036666666666666584],[0.1243750000000001,0.06388888888888888],[0.17437500000000009,0.07370370370370362],[0.18250000000000005,0.06888888888888897],[0.20760416666666662,0.056666666666666705],[0.20760416666666662,0.056666666666666705],[0.2672916666666666,0.11092592592592589],[0.2672916666666666,0.11092592592592589],[0.31270833333333337,0.15240740740740732],[0.3701041666666666,0.13407407407407404],[0.3701041666666666,0.13407407407407404],[0.43947916666666675,0.12129629629629629],[0.43947916666666675,0.12129629629629629],[0.465625,0.10685185185185193],[0.465625,0.10685185185185193],[0.4704166666666666,0.08851851851851844],[0.4722916666666668,0.06388888888888888],[0.4722916666666668,0.06388888888888888],[0.47677083333333337,0.0242592592592593],[0.4782291666666666,-0.027037037037037078],[0.5089583333333333,-0.056851851851851834],[0.49979166666666663,-0.08648148148148146],[0.5008333333333332,-0.11074074074074076],[0.49458333333333326,-0.09666666666666665],[0.47677083333333337,-0.10851851851851856],[0.49093749999999997,-0.11148148148148146],[0.5170833333333335,-0.13203703703703706],[0.5473958333333333,-0.14759259259259258],[0.5635416666666667,-0.14333333333333328],[0.5635416666666667,-0.14333333333333328],[0.6132291666666667,-0.14537037037037037],[0.5612499999999999,-0.1581481481481481],[0.5612499999999999,-0.1581481481481481],[0.5275000000000001,-0.1566666666666667],[0.5152083333333333,-0.17629629629629628],[0.49208333333333343,-0.17962962962962964],[0.4891666666666666,-0.18222222222222217],[0.4643749999999999,-0.18666666666666668],[0.42208333333333337,-0.20999999999999996],[0.39177083333333323,-0.21777777777777782],[0.3625,-0.2081481481481481],[0.3094791666666666,-0.19092592592592597],[0.3133333333333333,-0.17888888888888893],[0.3171875,-0.1668518518518519],[0.32708333333333334,-0.17166666666666663],[0.3414583333333333,-0.19166666666666668],[0.3004166666666668,-0.17074074074074072],[0.2989583333333333,-0.1359259259259259],[0.31395833333333345,-0.1272222222222222],[0.31281249999999994,-0.13907407407407413],[0.32541666666666674,-0.14722222222222223],[0.3414583333333333,-0.15333333333333335],[0.3132291666666667,-0.15851851851851856],[0.2849999999999999,-0.16370370370370366],[0.19239583333333338,-0.1205555555555556],[0.10364583333333334,-0.055185185185185205],[0.09229166666666658,-0.09037037037037039],[0.06958333333333329,-0.11222222222222226],[0.06958333333333329,-0.11222222222222226],[0.030416666666666713,-0.10796296296296298],[0.005624999999999976,-0.0955555555555556],[-0.029999999999999954,-0.10055555555555558],[-0.050937499999999976,-0.11259259259259262],[-0.04229166666666669,-0.10981481481481484],[-0.033645833333333285,-0.10703703703703706],[0.01552083333333331,-0.15259259259259256],[0.04645833333333336,-0.20703703703703705],[0.07364583333333338,-0.2103703703703704],[0.10250000000000009,-0.22759259259259254],[0.13135416666666658,-0.2448148148148148],[0.1310416666666666,-0.25092592592592594],[0.12760416666666666,-0.24759259259259256],[0.09947916666666666,-0.26425925925925925],[0.08270833333333343,-0.30037037037037034],[0.10635416666666657,-0.28833333333333333],[0.13718750000000005,-0.2492592592592593],[0.17541666666666675,-0.207962962962963],[0.18218750000000009,-0.14666666666666664],[0.21135416666666676,-0.10092592592592593],[0.24052083333333343,-0.055185185185185205],[0.27322916666666663,-0.06870370370370374],[0.31885416666666655,-0.037037037037037035],[0.36260416666666656,0.012407407407407492],[0.4083333333333333,0.0816666666666667],[0.4136458333333332,0.10277777777777777],[0.4036458333333333,0.10240740740740732],[0.4025000000000001,0.09740740740740746],[0.38739583333333344,0.06407407407407412],[0.36385416666666665,0.05],[0.3477083333333333,0.053703703703703705],[0.3430208333333333,0.09259259259259259],[0.3138541666666666,0.08518518518518518],[0.3017708333333334,0.07333333333333338],[0.29739583333333336,0.042407407407407366],[0.26541666666666663,0.04203703703703712],[0.25281250000000005,0.0588888888888888],[0.2117708333333333,0.08037037037037033],[0.19968750000000005,0.10481481481481486],[0.19947916666666668,0.0985185185185186],[0.17937500000000003,0.0948148148148149]]","[[-0.18958333333333333,0.40111111111111114,0.00020000000298381337],[-0.18958333333333333,0.40111111111111114,0.041100000001492276],[-0.21062500000000003,0.3485185185185186,0.04580000000447626],[-0.22729166666666673,0.2774074074074073,0.062399999998511646],[-0.2577083333333333,0.21203703703703702,0.07760000000149603],[-0.29656250000000006,0.12925925925925918,0.0928000000044733],[-0.3304166666666667,0.05925925925925926,0.11110000000149256],[-0.3685416666666666,-0.0031481481481482323,0.1255000000000024],[-0.3988541666666666,-0.06425925925925924,0.14220000000297972],[-0.3876041666666667,-0.10462962962962963,0.15899999999999892],[-0.37864583333333335,-0.15240740740740744,0.175600000001495],[-0.318125,-0.13944444444444445,0.19539999999851432],[-0.3195833333333333,-0.11888888888888886,0.21280000000447075],[-0.31979166666666664,-0.11740740740740736,0.2289999999999992],[-0.31375000000000003,-0.1161111111111111,0.2430000000000021],[-0.30343749999999997,-0.09574074074074072,0.258899999998512],[-0.306875,-0.0948148148148148,0.2757000000029848],[-0.32000000000000006,-0.10111111111111115,0.29230000000447376],[-0.321875,-0.10092592592592593,0.31070000000298137],[-0.3216666666666666,-0.1161111111111111,0.32570000000298194],[-0.31197916666666664,-0.1111111111111111,0.34220000000298256],[-0.3203125,-0.08129629629629626,0.3593999999985158],[-0.33312499999999995,-0.06388888888888888,0.37560000000149074],[-0.31010416666666674,-0.0022222222222223064,0.39310000000148904],[-0.2846874999999999,0.05481481481481486,0.4095000000000013],[-0.21364583333333337,0.08129629629629626,0.425600000001495],[-0.14052083333333332,0.09240740740740737,0.442200000002984],[-0.05770833333333331,0.11074074074074065,0.4606000000014916],[0.0006250000000000236,0.1301851851851851,0.47560000000149216],[0.059375,0.15481481481481485,0.49239999999851136],[0.07833333333333338,0.21333333333333343,0.5118999999985121],[0.11864583333333342,0.2512962962962964,0.5282000000029825],[0.1388541666666666,0.290925925925926,0.544399999998511],[0.12364583333333339,0.27611111111111114,0.559100000001493],[0.11864583333333342,0.29000000000000004,0.5757000000029819],[0.07166666666666661,0.337037037037037,0.5928999999985152],[0.012083333333333357,0.39407407407407397,0.6123999999985088],[-0.022187499999999954,0.4612962962962963,0.6292000000029816],[-0.03770833333333338,0.5111111111111111,0.6427000000029821],[-0.07677083333333339,0.5548148148148149,0.6591000000014944],[-0.08354166666666671,0.5622222222222223,0.6787000000029835],[-0.09895833333333333,0.5544444444444444,0.694100000001491],[-0.08760416666666669,0.5479629629629629,0.7110000000000056],[-0.1092708333333333,0.5851851851851851,0.7288999999985109],[-0.09572916666666664,0.5522222222222223,0.7423999999985114],[-0.0875,0.5205555555555555,0.7591000000014958],[-0.06072916666666662,0.4883333333333334,0.7783000000044709],[-0.090625,0.467962962962963,0.7947000000029831],[-0.11322916666666671,0.4607407407407407,0.8096000000014953],[-0.1390625,0.4735185185185186,0.8292000000029844],[-0.13958333333333334,0.45444444444444443,0.8430000000000035],[-0.14718749999999994,0.43944444444444436,0.8632000000029834],[-0.15552083333333327,0.4112962962962963,0.8803000000044747],[-0.1140625,0.3685185185185185,0.8973999999985125],[-0.11937500000000002,0.3453703703703704,0.9118999999985107],[-0.15458333333333332,0.30629629629629623,0.9277000000029858],[-0.1671875,0.29666666666666675,0.9450000000000003],[-0.15281250000000005,0.2601851851851852,0.9591000000014915],[-0.1140625,0.23351851851851857,0.9785000000000039],[-0.05447916666666662,0.20462962962962963,0.9968999999985115],[-0.0328125,0.11629629629629622,1.012800000004475],[-0.005520833333333286,0.05314814814814823,1.0303000000044733],[-0.005520833333333286,0.05314814814814823,1.0511000000014903],[0.017499999999999953,0.020555555555555598,1.0658000000044723],[0.017499999999999953,0.020555555555555598,1.0783000000044751],[0.025729166666666713,0.002777777777777778,1.0925000000000011],[0.02645833333333331,-0.007777777777777862,1.1114999999999995],[0.08927083333333338,0.036666666666666584,1.1258000000044746],[0.1243750000000001,0.06388888888888888,1.1426000000014938],[0.17437500000000009,0.07370370370370362,1.1592000000029827],[0.18250000000000005,0.06888888888888897,1.178200000002981],[0.20760416666666662,0.056666666666666705,1.1953000000044725],[0.20760416666666662,0.056666666666666705,1.2091000000014915],[0.2672916666666666,0.11092592592592589,1.230399999998511],[0.2672916666666666,0.11092592592592589,1.2423999999985114],[0.31270833333333337,0.15240740740740732,1.2590000000000003],[0.3701041666666666,0.13407407407407404,1.2797000000029826],[0.3701041666666666,0.13407407407407404,1.2923000000044738],[0.43947916666666675,0.12129629629629629,1.3092000000029813],[0.43947916666666675,0.12129629629629629,1.325700000002982],[0.465625,0.10685185185185193,1.3477000000029804],[0.465625,0.10685185185185193,1.3590000000000018],[0.4704166666666666,0.08851851851851844,1.3758000000044746],[0.4722916666666668,0.06388888888888888,1.4023000000044732],[0.4722916666666668,0.06388888888888888,1.4102000000029804],[0.47677083333333337,0.0242592592592593,1.4258000000044717],[0.4782291666666666,-0.027037037037037078,1.4423999999985142],[0.5089583333333333,-0.056851851851851834,1.4632000000029848],[0.49979166666666663,-0.08648148148148146,1.476200000002983],[0.5008333333333332,-0.11074074074074076,1.4924999999999997],[0.49458333333333326,-0.09666666666666665,1.509600000001491],[0.47677083333333337,-0.10851851851851856,1.5282000000029825],[0.49093749999999997,-0.11148148148148146,1.5423999999985156],[0.5170833333333335,-0.13203703703703706,1.559100000001493],[0.5473958333333333,-0.14759259259259258,1.5782000000029797],[0.5635416666666667,-0.14333333333333328,1.5928999999985152],[0.5635416666666667,-0.14333333333333328,1.6091000000014901],[0.6132291666666667,-0.14537037037037037,1.6257000000029862],[0.5612499999999999,-0.1581481481481481,1.6423000000044752],[0.5612499999999999,-0.1581481481481481,1.6588999999985106],[0.5275000000000001,-0.1566666666666667,1.6777000000029858],[0.5152083333333333,-0.17629629629629628,1.6923000000044723],[0.49208333333333343,-0.17962962962962964,1.7105000000000032],[0.4891666666666666,-0.18222222222222217,1.7280000000000015],[0.4643749999999999,-0.18666666666666668,1.7423999999985114],[0.42208333333333337,-0.20999999999999996,1.758899999998512],[0.39177083333333323,-0.21777777777777782,1.7756000000014893],[0.3625,-0.2081481481481481,1.7923000000044738],[0.3094791666666666,-0.19092592592592597,1.8088999999985091],[0.3133333333333333,-0.17888888888888893,1.8281000000014913],[0.3171875,-0.1668518518518519,1.8452000000029827],[0.32708333333333334,-0.17166666666666663,1.8613000000044693],[0.3414583333333333,-0.19166666666666668,1.8757000000029862],[0.3004166666666668,-0.17074074074074072,1.8940000000000055],[0.2989583333333333,-0.1359259259259259,1.9088000000044758],[0.31395833333333345,-0.1272222222222222,1.926000000000002],[0.31281249999999994,-0.13907407407407413,1.942200000002984],[0.32541666666666674,-0.14722222222222223,1.9588999999985148],[0.3414583333333333,-0.15333333333333335,1.9755000000000038],[0.3132291666666667,-0.15851851851851856,1.9922000000029811],[0.2849999999999999,-0.16370370370370366,2.008899999998512],[0.19239583333333338,-0.1205555555555556,2.025700000002985],[0.10364583333333334,-0.055185185185185205,2.0422000000029854],[0.09229166666666658,-0.09037037037037039,2.058899999998509],[0.06958333333333329,-0.11222222222222226,2.0755000000000052],[0.06958333333333329,-0.11222222222222226,2.092300000004471],[0.030416666666666713,-0.10796296296296298,2.1090000000000018],[0.005624999999999976,-0.0955555555555556,2.129700000002984],[-0.029999999999999954,-0.10055555555555558,2.144800000004473],[-0.050937499999999976,-0.11259259259259262,2.1592000000029827],[-0.04229166666666669,-0.10981481481481484,2.1758000000044717],[-0.033645833333333285,-0.10703703703703706,2.192200000002984],[0.01552083333333331,-0.15259259259259256,2.208800000004473],[0.04645833333333336,-0.20703703703703705,2.2298000000044738],[0.07364583333333338,-0.2103703703703704,2.242800000004472],[0.10250000000000009,-0.22759259259259254,2.259200000002984],[0.13135416666666658,-0.2448148148148148,2.2756000000014893],[0.1310416666666666,-0.25092592592592594,2.2948000000044715],[0.12760416666666666,-0.24759259259259256,2.3088000000044744],[0.09947916666666666,-0.26425925925925925,2.3256000000014936],[0.08270833333333343,-0.30037037037037034,2.3422000000029826],[0.10635416666666657,-0.28833333333333333,2.3588999999985134],[0.13718750000000005,-0.2492592592592593,2.3755000000000024],[0.17541666666666675,-0.207962962962963,2.3928999999985123],[0.18218750000000009,-0.14666666666666664,2.4088999999985106],[0.21135416666666676,-0.10092592592592593,2.4254999999999995],[0.24052083333333343,-0.055185185185185205,2.446399999998512],[0.27322916666666663,-0.06870370370370374,2.4625000000000057],[0.31885416666666655,-0.037037037037037035,2.475500000000004],[0.36260416666666656,0.012407407407407492,2.4923000000044695],[0.4083333333333333,0.0816666666666667,2.508899999998512],[0.4136458333333332,0.10277777777777777,2.525500000000001],[0.4036458333333333,0.10240740740740732,2.5422000000029854],[0.4025000000000001,0.09740740740740746,2.5590000000000046],[0.38739583333333344,0.06407407407407412,2.5755000000000052],[0.36385416666666665,0.05,2.596800000004471],[0.3477083333333333,0.053703703703703705,2.6125000000000043],[0.3430208333333333,0.09259259259259259,2.627600000001493],[0.3138541666666666,0.08518518518518518,2.6422000000029797],[0.3017708333333334,0.07333333333333338,2.659399999998513],[0.29739583333333336,0.042407407407407366,2.675600000001495],[0.26541666666666663,0.04203703703703712,2.692200000002984],[0.25281250000000005,0.0588888888888888,2.7113999999985126],[0.2117708333333333,0.08037037037037033,2.727700000002983],[0.19968750000000005,0.10481481481481486,2.742200000002981],[0.19947916666666668,0.0985185185185186,2.75880000000447],[0.17937500000000003,0.0948148148148149,2.7753999999985126]]","[0.00020000000298381337,0.041100000001492276,0.04580000000447626,0.062399999998511646,0.07760000000149603,0.0928000000044733,0.11110000000149256,0.1255000000000024,0.14220000000297972,0.15899999999999892,0.175600000001495,0.19539999999851432,0.21280000000447075,0.2289999999999992,0.2430000000000021,0.258899999998512,0.2757000000029848,0.29230000000447376,0.31070000000298137,0.32570000000298194,0.34220000000298256,0.3593999999985158,0.37560000000149074,0.39310000000148904,0.4095000000000013,0.425600000001495,0.442200000002984,0.4606000000014916,0.47560000000149216,0.49239999999851136,0.5118999999985121,0.5282000000029825,0.544399999998511,0.559100000001493,0.5757000000029819,0.5928999999985152,0.6123999999985088,0.6292000000029816,0.6427000000029821,0.6591000000014944,0.6787000000029835,0.694100000001491,0.7110000000000056,0.7288999999985109,0.7423999999985114,0.7591000000014958,0.7783000000044709,0.7947000000029831,0.8096000000014953,0.8292000000029844,0.8430000000000035,0.8632000000029834,0.8803000000044747,0.8973999999985125,0.9118999999985107,0.9277000000029858,0.9450000000000003,0.9591000000014915,0.9785000000000039,0.9968999999985115,1.012800000004475,1.0303000000044733,1.0511000000014903,1.0658000000044723,1.0783000000044751,1.0925000000000011,1.1114999999999995,1.1258000000044746,1.1426000000014938,1.1592000000029827,1.178200000002981,1.1953000000044725,1.2091000000014915,1.230399999998511,1.2423999999985114,1.2590000000000003,1.2797000000029826,1.2923000000044738,1.3092000000029813,1.325700000002982,1.3477000000029804,1.3590000000000018,1.3758000000044746,1.4023000000044732,1.4102000000029804,1.4258000000044717,1.4423999999985142,1.4632000000029848,1.476200000002983,1.4924999999999997,1.509600000001491,1.5282000000029825,1.5423999999985156,1.559100000001493,1.5782000000029797,1.5928999999985152,1.6091000000014901,1.6257000000029862,1.6423000000044752,1.6588999999985106,1.6777000000029858,1.6923000000044723,1.7105000000000032,1.7280000000000015,1.7423999999985114,1.758899999998512,1.7756000000014893,1.7923000000044738,1.8088999999985091,1.8281000000014913,1.8452000000029827,1.8613000000044693,1.8757000000029862,1.8940000000000055,1.9088000000044758,1.926000000000002,1.942200000002984,1.9588999999985148,1.9755000000000038,1.9922000000029811,2.008899999998512,2.025700000002985,2.0422000000029854,2.058899999998509,2.0755000000000052,2.092300000004471,2.1090000000000018,2.129700000002984,2.144800000004473,2.1592000000029827,2.1758000000044717,2.192200000002984,2.208800000004473,2.2298000000044738,2.242800000004472,2.259200000002984,2.2756000000014893,2.2948000000044715,2.3088000000044744,2.3256000000014936,2.3422000000029826,2.3588999999985134,2.3755000000000024,2.3928999999985123,2.4088999999985106,2.4254999999999995,2.446399999998512,2.4625000000000057,2.475500000000004,2.4923000000044695,2.508899999998512,2.525500000000001,2.5422000000029854,2.5590000000000046,2.5755000000000052,2.596800000004471,2.6125000000000043,2.627600000001493,2.6422000000029797,2.659399999998513,2.675600000001495,2.692200000002984,2.7113999999985126,2.727700000002983,2.742200000002981,2.75880000000447,2.7753999999985126]","[1733293558460,1733293558493,1733293558498,1733293558514,1733293558530,1733293558545,1733293558563,1733293558578,1733293558594,1733293558611,1733293558628,1733293558647,1733293558665,1733293558681,1733293558695,1733293558711,1733293558728,1733293558744,1733293558763,1733293558778,1733293558794,1733293558811,1733293558828,1733293558845,1733293558861,1733293558878,1733293558894,1733293558913,1733293558928,1733293558944,1733293558964,1733293558980,1733293558996,1733293559011,1733293559028,1733293559045,1733293559064,1733293559081,1733293559095,1733293559111,1733293559131,1733293559146,1733293559163,1733293559181,1733293559194,1733293559211,1733293559230,1733293559247,1733293559262,1733293559281,1733293559295,1733293559315,1733293559332,1733293559349,1733293559364,1733293559380,1733293559397,1733293559411,1733293559430,1733293559449,1733293559465,1733293559482,1733293559503,1733293559518,1733293559530,1733293559544,1733293559563,1733293559578,1733293559595,1733293559611,1733293559630,1733293559647,1733293559661,1733293559682,1733293559694,1733293559711,1733293559732,1733293559744,1733293559761,1733293559778,1733293559800,1733293559811,1733293559828,1733293559854,1733293559862,1733293559878,1733293559894,1733293559915,1733293559928,1733293559944,1733293559962,1733293559980,1733293559994,1733293560011,1733293560030,1733293560045,1733293560061,1733293560078,1733293560094,1733293560111,1733293560130,1733293560144,1733293560162,1733293560180,1733293560194,1733293560211,1733293560228,1733293560244,1733293560261,1733293560280,1733293560297,1733293560313,1733293560328,1733293560346,1733293560361,1733293560378,1733293560394,1733293560411,1733293560428,1733293560444,1733293560461,1733293560478,1733293560494,1733293560511,1733293560528,1733293560544,1733293560561,1733293560582,1733293560597,1733293560611,1733293560628,1733293560644,1733293560661,1733293560682,1733293560695,1733293560711,1733293560728,1733293560747,1733293560761,1733293560778,1733293560794,1733293560811,1733293560828,1733293560845,1733293560861,1733293560878,1733293560898,1733293560915,1733293560928,1733293560944,1733293560961,1733293560978,1733293560994,1733293561011,1733293561028,1733293561049,1733293561064,1733293561080,1733293561094,1733293561111,1733293561128,1733293561144,1733293561163,1733293561180,1733293561194,1733293561211,1733293561227]","[[778,756.6],[778,756.6],[757.8,728.2],[741.8,689.8],[712.6,654.5],[675.3,609.8],[642.8,572],[606.2,538.3],[577.1,505.3],[587.9,483.5],[596.5,457.7],[654.6,464.7],[653.2,475.8],[653,476.6],[658.8,477.3],[668.7,488.3],[665.4,488.8],[652.8,485.4],[651,485.5],[651.2,477.3],[660.5,480],[652.5,496.1],[640.2,505.5],[662.3,538.8],[686.7,569.6],[754.9,583.9],[825.1,589.9],[904.6,599.8],[960.6,610.3],[1017,623.6],[1035.2,655.2],[1073.9,675.7],[1093.3,697.1],[1078.7,689.1],[1073.9,696.6],[1028.8,722],[971.6,752.8],[938.7,789.1],[923.8,816],[886.3,839.6],[879.8,843.6],[865,839.4],[875.9,835.9],[855.1,856],[868.1,838.2],[876,821.1],[901.7,803.7],[873,792.7],[851.3,788.8],[826.5,795.7],[826,785.4],[818.7,777.3],[810.7,762.1],[850.5,739],[845.4,726.5],[811.6,705.4],[799.5,700.2],[813.3,680.5],[850.5,666.1],[907.7,650.5],[928.5,602.8],[954.7,568.7],[954.7,568.7],[976.8,551.1],[976.8,551.1],[984.7,541.5],[985.4,535.8],[1045.7,559.8],[1079.4,574.5],[1127.4,579.8],[1135.2,577.2],[1159.3,570.6],[1159.3,570.6],[1216.6,599.9],[1216.6,599.9],[1260.2,622.3],[1315.3,612.4],[1315.3,612.4],[1381.9,605.5],[1381.9,605.5],[1407,597.7],[1407,597.7],[1411.6,587.8],[1413.4,574.5],[1413.4,574.5],[1417.7,553.1],[1419.1,525.4],[1448.6,509.3],[1439.8,493.3],[1440.8,480.2],[1434.8,487.8],[1417.7,481.4],[1431.3,479.8],[1456.4,468.7],[1485.5,460.3],[1501,462.6],[1501,462.6],[1548.7,461.5],[1498.8,454.6],[1498.8,454.6],[1466.4,455.4],[1454.6,444.8],[1432.4,443],[1429.6,441.6],[1405.8,439.2],[1365.2,426.6],[1336.1,422.4],[1308,427.6],[1257.1,436.9],[1260.8,443.4],[1264.5,449.9],[1274,447.3],[1287.8,436.5],[1248.4,447.8],[1247,466.6],[1261.4,471.3],[1260.3,464.9],[1272.4,460.5],[1287.8,457.2],[1260.7,454.4],[1233.6,451.6],[1144.7,474.9],[1059.5,510.2],[1048.6,491.2],[1026.8,479.4],[1026.8,479.4],[989.2,481.7],[965.4,488.4],[931.2,485.7],[911.1,479.2],[919.4,480.7],[927.7,482.2],[974.9,457.6],[1004.6,428.2],[1030.7,426.4],[1058.4,417.1],[1086.1,407.8],[1085.8,404.5],[1082.5,406.3],[1055.5,397.3],[1039.4,377.8],[1062.1,384.3],[1091.7,405.4],[1128.4,427.7],[1134.9,460.8],[1162.9,485.5],[1190.9,510.2],[1222.3,502.9],[1266.1,520],[1308.1,546.7],[1352,584.1],[1357.1,595.5],[1347.5,595.3],[1346.4,592.6],[1331.9,574.6],[1309.3,567],[1293.8,569],[1289.3,590],[1261.3,586],[1249.7,579.6],[1245.5,562.9],[1214.8,562.7],[1202.7,571.8],[1163.3,583.4],[1151.7,596.6],[1151.5,593.2],[1132.2,591.2]]","[0,0.3527331528]","[0.3527331528,0.3527331528]","[-0.3527331528,0]","[-0.3527331528,-0.3527331528]","[0,0]","[0.3527331528,0]","[0,-0.3527331528]","[0.3527331528,-0.3527331528]",0,0,0,0,1,1,Tablet,7,7,15,9
,,,,,,,,,,,,,,,,,,,17,001,2024-12-04_14h25.08.561,Attention_exp_legacy,2023.1.0,Win32,59.88023952,,,,,,,,,,,[0.3302083333333333],[0.31851851851851853],[1],[0],[0],[2.234700000002988],"[""Option2_label""]",Option2_label,2,3.2496,"[[0.38645833333333335,0.2833333333333333],[0.38645833333333335,0.2833333333333333],[0.38645833333333335,0.2833333333333333],[0.38645833333333335,0.2833333333333333],[0.38645833333333335,0.2833333333333333],[0.38645833333333335,0.2833333333333333],[0.38645833333333335,0.2833333333333333],[0.38645833333333335,0.2833333333333333],[0.38645833333333335,0.2833333333333333],[0.38645833333333335,0.2833333333333333],[0.38645833333333335,0.2833333333333333],[0.38645833333333335,0.2833333333333333],[0.38645833333333335,0.2833333333333333],[0.38645833333333335,0.2833333333333333],[0.38645833333333335,0.2833333333333333],[0.38645833333333335,0.2833333333333333],[0.38645833333333335,0.2833333333333333],[0.38645833333333335,0.2833333333333333],[0.38645833333333335,0.2833333333333333],[0.38645833333333335,0.2833333333333333],[0.38645833333333335,0.2833333333333333],[0.38645833333333335,0.2833333333333333],[0.38645833333333335,0.2833333333333333],[0.38645833333333335,0.2833333333333333],[0.38645833333333335,0.2833333333333333],[0.38645833333333335,0.2833333333333333],[0.38645833333333335,0.2833333333333333],[0.38645833333333335,0.2833333333333333],[0.38645833333333335,0.2833333333333333],[0.38645833333333335,0.2833333333333333],[0.38645833333333335,0.2833333333333333],[0.38645833333333335,0.2833333333333333],[0.38645833333333335,0.2833333333333333],[0.38645833333333335,0.2833333333333333],[0.38645833333333335,0.2833333333333333],[0.38645833333333335,0.2833333333333333],[0.38645833333333335,0.2833333333333333],[0.38645833333333335,0.2833333333333333],[0.38645833333333335,0.2833333333333333],[0.38645833333333335,0.2833333333333333],[0.38645833333333335,0.2833333333333333],[0.38645833333333335,0.2833333333333333],[0.38645833333333335,0.2833333333333333],[0.38645833333333335,0.2833333333333333],[0.38645833333333335,0.2833333333333333],[0.38645833333333335,0.2833333333333333],[0.38645833333333335,0.2833333333333333],[0.38645833333333335,0.2833333333333333],[0.38645833333333335,0.2833333333333333],[0.38645833333333335,0.2833333333333333],[0.38645833333333335,0.2833333333333333],[0.38645833333333335,0.2833333333333333],[0.38645833333333335,0.2833333333333333],[0.38645833333333335,0.2833333333333333],[0.38645833333333335,0.2833333333333333],[0.38645833333333335,0.2833333333333333],[0.38645833333333335,0.2833333333333333],[0.38645833333333335,0.2833333333333333],[0.38645833333333335,0.2833333333333333],[0.38645833333333335,0.2833333333333333],[0.38645833333333335,0.2833333333333333],[0.38645833333333335,0.2833333333333333],[0.38645833333333335,0.2833333333333333],[0.38645833333333335,0.2833333333333333],[0.38645833333333335,0.2833333333333333],[0.38645833333333335,0.2833333333333333],[0.38645833333333335,0.2833333333333333],[0.38645833333333335,0.2833333333333333],[0.38645833333333335,0.2833333333333333],[0.38645833333333335,0.2833333333333333],[0.38645833333333335,0.2833333333333333],[0.38645833333333335,0.2833333333333333],[0.38645833333333335,0.2833333333333333],[0.38645833333333335,0.2833333333333333],[0.38645833333333335,0.2833333333333333],[0.38645833333333335,0.2833333333333333],[0.38645833333333335,0.2833333333333333],[0.38645833333333335,0.2833333333333333],[0.38645833333333335,0.2833333333333333],[0.38645833333333335,0.2833333333333333],[0.38645833333333335,0.2833333333333333],[0.38645833333333335,0.2833333333333333],[0.38645833333333335,0.2833333333333333],[0.38645833333333335,0.2833333333333333],[0.38645833333333335,0.2833333333333333],[0.38645833333333335,0.2833333333333333],[0.38645833333333335,0.2833333333333333],[0.38645833333333335,0.2833333333333333],[0.38645833333333335,0.2833333333333333],[0.38645833333333335,0.2833333333333333],[0.38645833333333335,0.2833333333333333],[0.38645833333333335,0.2833333333333333],[0.38645833333333335,0.2833333333333333],[0.38645833333333335,0.2833333333333333],[0.38645833333333335,0.2833333333333333],[0.38645833333333335,0.2833333333333333],[0.38645833333333335,0.2833333333333333],[0.38645833333333335,0.2833333333333333],[0.38645833333333335,0.2833333333333333],[0.38645833333333335,0.2833333333333333],[0.38645833333333335,0.2833333333333333],[0.38645833333333335,0.2833333333333333],[0.38645833333333335,0.2833333333333333],[0.38645833333333335,0.2833333333333333],[0.38645833333333335,0.2833333333333333],[0.38645833333333335,0.2814814814814815],[0.37916666666666665,0.2740740740740741],[0.3697916666666667,0.26481481481481484],[0.3614583333333333,0.2574074074074074],[0.346875,0.2462962962962963],[0.3416666666666667,0.24259259259259258],[0.334375,0.24259259259259258],[0.33229166666666665,0.24259259259259258],[0.33229166666666665,0.24074074074074073],[0.33125,0.24074074074074073],[0.3302083333333333,0.24074074074074073],[0.32708333333333334,0.24074074074074073],[0.325,0.24074074074074073],[0.32395833333333335,0.24074074074074073],[0.321875,0.24259259259259258],[0.315625,0.24814814814814815],[0.31145833333333334,0.25],[0.309375,0.2537037037037037],[0.3072916666666667,0.2574074074074074],[0.30625,0.2611111111111111],[0.30625,0.2722222222222222],[0.30625,0.2833333333333333],[0.3104166666666667,0.29814814814814816],[0.32083333333333336,0.31296296296296294],[0.32916666666666666,0.31851851851851853],[0.3302083333333333,0.31851851851851853],[0.3302083333333333,0.31851851851851853],[0.3302083333333333,0.31851851851851853],[0.3302083333333333,0.31851851851851853],[0.3302083333333333,0.31851851851851853],[0.3302083333333333,0.31851851851851853],[0.33125,0.31851851851851853],[0.33125,0.31851851851851853],[0.33125,0.31851851851851853],[0.33125,0.31851851851851853],[0.33125,0.31851851851851853],[0.33125,0.31851851851851853],[0.33125,0.31851851851851853],[0.33125,0.31851851851851853],[0.33125,0.31851851851851853],[0.33125,0.31851851851851853],[0.33125,0.31851851851851853],[0.33125,0.31851851851851853],[0.33125,0.31851851851851853],[0.33125,0.31851851851851853],[0.33125,0.31851851851851853],[0.33125,0.31851851851851853],[0.33125,0.31851851851851853],[0.33125,0.31851851851851853],[0.33125,0.31851851851851853],[0.33125,0.31851851851851853],[0.33125,0.31851851851851853],[0.33125,0.31851851851851853],[0.33125,0.31851851851851853],[0.33125,0.31851851851851853],[0.33125,0.31851851851851853],[0.33125,0.31851851851851853],[0.33125,0.31851851851851853],[0.33125,0.31851851851851853],[0.33125,0.31851851851851853],[0.33125,0.31851851851851853],[0.33125,0.31851851851851853],[0.33125,0.31851851851851853],[0.33125,0.31851851851851853],[0.33125,0.31851851851851853],[0.33125,0.31851851851851853],[0.33125,0.31851851851851853],[0.33229166666666665,0.31851851851851853],[0.33229166666666665,0.31851851851851853],[0.3333333333333333,0.31851851851851853],[0.3333333333333333,0.31851851851851853],[0.334375,0.31851851851851853],[0.334375,0.31851851851851853],[0.334375,0.31851851851851853],[0.334375,0.31851851851851853],[0.33541666666666664,0.31851851851851853],[0.33541666666666664,0.31851851851851853],[0.33645833333333336,0.31851851851851853],[0.33645833333333336,0.31851851851851853],[0.33645833333333336,0.31851851851851853],[0.33645833333333336,0.31851851851851853],[0.33645833333333336,0.31851851851851853],[0.33645833333333336,0.31851851851851853],[0.33645833333333336,0.31851851851851853],[0.3375,0.31851851851851853],[0.3375,0.31851851851851853],[0.3375,0.31851851851851853],[0.3375,0.31851851851851853],[0.3375,0.31851851851851853],[0.3375,0.31851851851851853],[0.3375,0.31851851851851853]]","[[0.2118750000000001,0.29981481481481476],[0.22385416666666677,0.2972222222222222],[0.23822916666666671,0.2838888888888888],[0.2520833333333333,0.24203703703703713],[0.26614583333333336,0.21648148148148144],[0.2820833333333333,0.20092592592592592],[0.29354166666666665,0.18296296296296288],[0.30135416666666665,0.1772222222222223],[0.31270833333333337,0.1685185185185185],[0.3241666666666667,0.17166666666666675],[0.33583333333333343,0.17314814814814813],[0.3430208333333333,0.1737037037037036],[0.3381249999999999,0.20092592592592592],[0.3345833333333334,0.2022222222222223],[0.3203125,0.22185185185185177],[0.3060416666666666,0.24148148148148144],[0.2921875,0.27074074074074084],[0.2886458333333332,0.27092592592592585],[0.2833333333333333,0.26370370370370366],[0.2804166666666667,0.2514814814814814],[0.2772916666666667,0.24092592592592596],[0.2561458333333334,0.23148148148148148],[0.24468750000000009,0.20611111111111102],[0.23447916666666657,0.20759259259259263],[0.2415625000000001,0.15722222222222218],[0.24739583333333334,0.12685185185185185],[0.24874999999999994,0.09148148148148144],[0.2397916666666667,0.08518518518518518],[0.23406250000000003,0.11074074074074065],[0.2259375000000001,0.14129629629629623],[0.22395833333333334,0.1574074074074074],[0.23697916666666666,0.1735185185185186],[0.25770833333333343,0.17185185185185176],[0.27583333333333326,0.16925925925925922],[0.2860416666666666,0.19222222222222213],[0.29749999999999993,0.19518518518518516],[0.31270833333333337,0.16888888888888898],[0.33718750000000003,0.15981481481481474],[0.36479166666666674,0.14148148148148143],[0.3803124999999999,0.11425925925925934],[0.3892708333333334,0.10425925925925918],[0.3944791666666667,0.0772222222222223],[0.3919791666666666,0.06796296296296304],[0.39864583333333337,0.041666666666666664],[0.40645833333333337,0.007037037037036953],[0.40958333333333335,-0.035740740740740656],[0.4092708333333334,-0.02444444444444453],[0.4115624999999999,-0.06407407407407412],[0.40770833333333345,-0.09277777777777782],[0.39114583333333336,-0.13851851851851854],[0.375,-0.18703703703703703],[0.3210416666666667,-0.1977777777777778],[0.2540625000000001,-0.22611111111111115],[0.1779166666666666,-0.23740740740740737],[0.09822916666666662,-0.24981481481481477],[0.03135416666666669,-0.2542592592592593],[-0.036249999999999956,-0.27018518518518514],[-0.11572916666666669,-0.2524074074074074],[-0.21041666666666667,-0.26592592592592595],[-0.2803125,-0.2535185185185185],[-0.3453125,-0.24666666666666665],[-0.36875,-0.26055555555555554],[-0.3811458333333333,-0.2507407407407407],[-0.3935416666666666,-0.24092592592592596],[-0.4023958333333333,-0.22999999999999998],[-0.40812499999999996,-0.2168518518518519],[-0.40677083333333336,-0.2168518518518519],[-0.39864583333333337,-0.24648148148148152],[-0.39864583333333337,-0.24648148148148152],[-0.37531249999999994,-0.2381481481481482],[-0.37531249999999994,-0.2381481481481482],[-0.36343749999999997,-0.2361111111111111],[-0.36000000000000004,-0.23333333333333334],[-0.3555208333333333,-0.22629629629629627],[-0.33624999999999994,-0.24537037037037038],[-0.31697916666666665,-0.2644444444444445],[-0.29750000000000004,-0.24537037037037038],[-0.28927083333333337,-0.22833333333333336],[-0.24729166666666663,-0.14444444444444443],[-0.2234375,-0.008703703703703788],[-0.1476041666666667,-0.02759259259259255],[-0.06864583333333331,-0.03462962962962971],[0.035000000000000024,-0.03944444444444436],[0.13760416666666658,-0.0485185185185186],[0.19833333333333342,-0.0242592592592593],[0.19833333333333342,-0.0242592592592593],[0.2556250000000001,0.009999999999999959],[0.2556250000000001,0.009999999999999959],[0.32666666666666655,0.002962962962963005],[0.3771874999999999,0.025185185185185227],[0.3771874999999999,0.025185185185185227],[0.39177083333333323,-0.014629629629629588],[0.39177083333333323,-0.014629629629629588],[0.3896874999999999,-0.005370370370370328],[0.3896874999999999,-0.005370370370370328],[0.32999999999999996,0.09888888888888885],[0.32999999999999996,0.09888888888888885],[0.2787499999999999,0.20999999999999996],[0.2257291666666667,0.3012962962962964],[0.1727083333333333,0.3925925925925926],[0.15416666666666667,0.4681481481481481],[0.1390625,0.5337037037037038],[0.09385416666666657,0.6188888888888889],[0.09385416666666657,0.6188888888888889],[0.06645833333333329,0.672037037037037],[0.03770833333333338,0.7003703703703704],[0.07604166666666666,0.6824074074074075],[0.11614583333333334,0.6614814814814816],[0.16635416666666672,0.6362962962962964],[0.16635416666666672,0.6362962962962964],[0.21124999999999997,0.5555555555555556],[0.26927083333333335,0.4962962962962963],[0.321875,0.43944444444444436],[0.3134375000000001,0.397037037037037],[0.3211458333333333,0.3381481481481482],[0.34697916666666656,0.27259259259259266],[0.3664583333333333,0.20981481481481473],[0.36989583333333326,0.10981481481481473],[0.384375,0.04055555555555551],[0.3765625,0.004814814814814857],[0.3519791666666668,-0.001851851851851852],[0.3226041666666667,-0.02388888888888885],[0.28250000000000003,-0.052222222222222205],[0.30447916666666663,-0.09592592592592594],[0.3481250000000001,-0.1242592592592593],[0.3763541666666666,-0.14314814814814816],[0.42218749999999994,-0.18703703703703703],[0.4178124999999999,-0.18851851851851853],[0.41427083333333337,-0.202962962962963],[0.4180208333333333,-0.28888888888888886],[0.41302083333333334,-0.2985185185185185],[0.41302083333333334,-0.2985185185185185],[0.3967708333333334,-0.32092592592592595],[0.3828125,-0.3044444444444444],[0.39124999999999993,-0.36074074074074075],[0.3780208333333334,-0.4324074074074074],[0.36479166666666674,-0.504074074074074],[0.32958333333333345,-0.5070370370370371],[0.32156250000000003,-0.5401851851851852],[0.2900000000000001,-0.5361111111111111],[0.30187499999999995,-0.571111111111111],[0.28854166666666664,-0.615925925925926],[0.278125,-0.6181481481481482],[0.25447916666666665,-0.6007407407407407],[0.25447916666666665,-0.6007407407407407],[0.2146874999999999,-0.5083333333333333],[0.17135416666666667,-0.4492592592592593],[0.12802083333333342,-0.3901851851851852],[0.10291666666666661,-0.33648148148148144],[0.06833333333333323,-0.2922222222222222],[0.044270833333333336,-0.25703703703703706],[-0.0265625,-0.15907407407407403],[-0.05770833333333331,-0.10240740740740743],[-0.08781249999999995,-0.08148148148148149],[-0.09697916666666669,-0.08851851851851854],[-0.13250000000000003,-0.10240740740740743],[-0.15635416666666668,-0.10777777777777775],[-0.18020833333333333,-0.11314814814814819],[-0.1938541666666667,-0.10888888888888891],[-0.19802083333333337,-0.09518518518518514],[-0.19739583333333333,-0.10499999999999998],[-0.18802083333333333,-0.11148148148148146],[-0.18166666666666664,-0.09425925925925922],[-0.19406249999999994,-0.06740740740740736],[-0.20572916666666666,-0.06481481481481481],[-0.17177083333333332,-0.08703703703703704],[-0.1486458333333334,-0.08185185185185183],[-0.13729166666666662,-0.06555555555555552],[-0.13114583333333332,-0.06185185185185181],[-0.1063541666666667,-0.06592592592592597],[-0.0938541666666667,-0.06259259259259262],[-0.08197916666666671,-0.05648148148148148],[-0.06447916666666664,-0.031111111111111027],[-0.002708333333333357,-0.06796296296296295],[0.049791666666666616,-0.0690740740740741],[0.06916666666666677,-0.034074074074074034],[0.08760416666666657,-0.012222222222222264],[0.1375,-0.032407407407407406],[0.18302083333333338,-0.04814814814814815],[0.20989583333333334,-0.05611111111111113],[0.2419791666666666,-0.08518518518518518],[0.27447916666666666,-0.11833333333333329],[0.2976041666666667,-0.20166666666666663],[0.2890625,-0.2212962962962963],[0.2897916666666667,-0.2766666666666666],[0.29708333333333337,-0.30759259259259264],[0.30802083333333335,-0.327962962962963],[0.3063541666666666,-0.3235185185185185],[0.29791666666666666,-0.3368518518518518],[0.28916666666666657,-0.3531481481481481],[0.2872916666666666,-0.3446296296296297],[0.29958333333333326,-0.3464814814814815],[0.31395833333333345,-0.2927777777777778],[0.3290625000000001,-0.2553703703703703],[0.346875,-0.23148148148148148],[0.35697916666666674,-0.2161111111111111]]","[[0.2118750000000001,0.29981481481481476,0],[0.22385416666666677,0.2972222222222222,0.019399999998512385],[0.23822916666666671,0.2838888888888888,0.03560000000148733],[0.2520833333333333,0.24203703703703713,0.04960000000149023],[0.26614583333333336,0.21648148148148144,0.06629999999702108],[0.2820833333333333,0.20092592592592592,0.08310000000149387],[0.29354166666666665,0.18296296296296288,0.09960000000148739],[0.30135416666666665,0.1772222222222223,0.1166000000014904],[0.31270833333333337,0.1685185185185185,0.13300000000000267],[0.3241666666666667,0.17166666666666675,0.14970000000298],[0.33583333333333343,0.17314814814814813,0.1683999999985133],[0.3430208333333333,0.1737037037037036,0.18289999999851148],[0.3381249999999999,0.20092592592592592,0.2036000000014937],[0.3345833333333334,0.2022222222222223,0.22020000000298268],[0.3203125,0.22185185185185177,0.2364999999999995],[0.3060416666666666,0.24148148148148144,0.2497999999970233],[0.2921875,0.27074074074074084,0.26620000000298205],[0.2886458333333332,0.27092592592592585,0.2828999999985129],[0.2833333333333333,0.26370370370370366,0.30049999999999955],[0.2804166666666667,0.2514814814814814,0.3167000000029816],[0.2772916666666667,0.24092592592592596,0.333299999997017],[0.2561458333333334,0.23148148148148148,0.3496000000014874],[0.24468750000000009,0.20611111111111102,0.3663999999985066],[0.23447916666666657,0.20759259259259263,0.3828999999985072],[0.2415625000000001,0.15722222222222218,0.39960000000149165],[0.24739583333333334,0.12685185185185185,0.41620000000298063],[0.24874999999999994,0.09148148148148144,0.4328999999985115],[0.2397916666666667,0.08518518518518518,0.44979999999701903],[0.23406250000000003,0.11074074074074065,0.4687999999970174],[0.2259375000000001,0.14129629629629623,0.48289999999850863],[0.22395833333333334,0.1574074074074074,0.49960000000149307],[0.23697916666666666,0.1735185185185186,0.5162999999970168],[0.25770833333333343,0.17185185185185176,0.5328999999985129],[0.27583333333333326,0.16925925925925922,0.5495000000000019],[0.2860416666666666,0.19222222222222213,0.5664999999999978],[0.29749999999999993,0.19518518518518516,0.58289999999851],[0.31270833333333337,0.16888888888888898,0.6003999999985083],[0.33718750000000003,0.15981481481481474,0.6162000000029835],[0.36479166666666674,0.14148148148148143,0.6332999999970212],[0.3803124999999999,0.11425925925925934,0.6496000000014917],[0.3892708333333334,0.10425925925925918,0.6664999999999992],[0.3944791666666667,0.0772222222222223,0.6846000000014882],[0.3919791666666666,0.06796296296296304,0.7027999999970191],[0.39864583333333337,0.041666666666666664,0.7192999999970198],[0.40645833333333337,0.007037037037036953,0.7368999999985135],[0.40958333333333335,-0.035740740740740656,0.7509999999999977],[0.4092708333333334,-0.02444444444444453,0.7665000000000006],[0.4115624999999999,-0.06407407407407412,0.783200000002978],[0.40770833333333345,-0.09277777777777782,0.8003999999985112],[0.39114583333333336,-0.13851851851851854,0.8162000000029792],[0.375,-0.18703703703703703,0.83289999999851],[0.3210416666666667,-0.1977777777777778,0.8497000000029828],[0.2540625000000001,-0.22611111111111115,0.8662000000029835],[0.1779166666666666,-0.23740740740740737,0.8828999999985072],[0.09822916666666662,-0.24981481481481477,0.9006000000014893],[0.03135416666666669,-0.2542592592592593,0.9162000000029806],[-0.036249999999999956,-0.27018518518518514,0.9328999999985115],[-0.11572916666666669,-0.2524074074074074,0.9495000000000005],[-0.21041666666666667,-0.26592592592592595,0.9662999999970197],[-0.2803125,-0.2535185185185185,0.9828999999985086],[-0.3453125,-0.24666666666666665,0.9996000000014931],[-0.36875,-0.26055555555555554,1.0162999999970168],[-0.3811458333333333,-0.2507407407407407,1.032899999998513],[-0.3935416666666666,-0.24092592592592596,1.0495000000000019],[-0.4023958333333333,-0.22999999999999998,1.0662000000029792],[-0.40812499999999996,-0.2168518518518519,1.08289999999851],[-0.40677083333333336,-0.2168518518518519,1.1004999999999967],[-0.39864583333333337,-0.24648148148148152,1.1204999999999998],[-0.39864583333333337,-0.24648148148148152,1.1373999999985074],[-0.37531249999999994,-0.2381481481481482,1.1562000000029826],[-0.37531249999999994,-0.2381481481481482,1.1662000000029806],[-0.36343749999999997,-0.2361111111111111,1.1828999999985115],[-0.36000000000000004,-0.23333333333333334,1.2033999999985099],[-0.3555208333333333,-0.22629629629629627,1.2166000000014918],[-0.33624999999999994,-0.24537037037037038,1.235299999997018],[-0.31697916666666665,-0.2644444444444445,1.249600000001493],[-0.29750000000000004,-0.24537037037037038,1.2677999999970169],[-0.28927083333333337,-0.22833333333333336,1.282899999998513],[-0.24729166666666663,-0.14444444444444443,1.3002999999970228],[-0.2234375,-0.008703703703703788,1.316299999997021],[-0.1476041666666667,-0.02759259259259255,1.33289999999851],[-0.06864583333333331,-0.03462962962962971,1.3527999999970177],[0.035000000000000024,-0.03944444444444436,1.3662000000029835],[0.13760416666666658,-0.0485185185185186,1.3830000000000027],[0.19833333333333342,-0.0242592592592593,1.4003999999985126],[0.19833333333333342,-0.0242592592592593,1.4162000000029735],[0.2556250000000001,0.009999999999999959,1.4328999999985115],[0.2556250000000001,0.009999999999999959,1.4495000000000005],[0.32666666666666655,0.002962962962963005,1.4662999999970197],[0.3771874999999999,0.025185185185185227,1.487899999998504],[0.3771874999999999,0.025185185185185227,1.499600000001493],[0.39177083333333323,-0.014629629629629588,1.5162999999970168],[0.39177083333333323,-0.014629629629629588,1.5330000000000013],[0.3896874999999999,-0.005370370370370328,1.5494999999999948],[0.3896874999999999,-0.005370370370370328,1.566299999997014],[0.32999999999999996,0.09888888888888885,1.5828999999985172],[0.32999999999999996,0.09888888888888885,1.5996000000014874],[0.2787499999999999,0.20999999999999996,1.6162999999970253],[0.2257291666666667,0.3012962962962964,1.6347000000029794],[0.1727083333333333,0.3925925925925926,1.6496000000014845],[0.15416666666666667,0.4681481481481481,1.6662000000029735],[0.1390625,0.5337037037037038,1.6828999999985115],[0.09385416666666657,0.6188888888888889,1.699600000001496],[0.09385416666666657,0.6188888888888889,1.716200000002985],[0.06645833333333329,0.672037037037037,1.733000000000004],[0.03770833333333338,0.7003703703703704,1.7524999999999977],[0.07604166666666666,0.6824074074074075,1.7663999999985123],[0.11614583333333334,0.6614814814814816,1.7830000000000013],[0.16635416666666672,0.6362962962962964,1.8034999999999997],[0.16635416666666672,0.6362962962962964,1.8163999999985094],[0.21124999999999997,0.5555555555555556,1.8331000000014939],[0.26927083333333335,0.4962962962962963,1.8497000000029828],[0.321875,0.43944444444444436,1.8701000000014858],[0.3134375000000001,0.397037037037037,1.8847999999970142],[0.3211458333333333,0.3381481481481482,1.9028999999985103],[0.34697916666666656,0.27259259259259266,1.9211000000014877],[0.3664583333333333,0.20981481481481473,1.936399999998514],[0.36989583333333326,0.10981481481481473,1.951299999997019],[0.384375,0.04055555555555551,1.9663999999985151],[0.3765625,0.004814814814814857,1.9852999999970251],[0.3519791666666668,-0.001851851851851852,2.003399999998507],[0.3226041666666667,-0.02388888888888885,2.0190000000000055],[0.28250000000000003,-0.052222222222222205,2.0379999999999967],[0.30447916666666663,-0.09592592592592594,2.0526000000014903],[0.3481250000000001,-0.1242592592592593,2.0670000000000073],[0.3763541666666666,-0.14314814814814816,2.083100000001494],[0.42218749999999994,-0.18703703703703703,2.1025000000000063],[0.4178124999999999,-0.18851851851851853,2.1177000000029835],[0.41427083333333337,-0.202962962962963,2.1329999999999956],[0.4180208333333333,-0.28888888888888886,2.14970000000298],[0.41302083333333334,-0.2985185185185185,2.169399999998504],[0.41302083333333334,-0.2985185185185185,2.182799999997016],[0.3967708333333334,-0.32092592592592595,2.199600000001496],[0.3828125,-0.3044444444444444,2.216200000002985],[0.39124999999999993,-0.36074074074074075,2.2356000000014973],[0.3780208333333334,-0.4324074074074074,2.2494999999999976],[0.36479166666666674,-0.504074074074074,2.2663999999985123],[0.32958333333333345,-0.5070370370370371,2.282899999998506],[0.32156250000000003,-0.5401851851851852,2.2996000000014902],[0.2900000000000001,-0.5361111111111111,2.3167999999970164],[0.30187499999999995,-0.571111111111111,2.332899999998517],[0.28854166666666664,-0.615925925925926,2.349500000000006],[0.278125,-0.6181481481481482,2.3662000000029764],[0.25447916666666665,-0.6007407407407407,2.388999999999996],[0.25447916666666665,-0.6007407407407407,2.39970000000298],[0.2146874999999999,-0.5083333333333333,2.4162000000029735],[0.17135416666666667,-0.4492592592592593,2.4328999999985115],[0.12802083333333342,-0.3901851851851852,2.450100000001484],[0.10291666666666661,-0.33648148148148144,2.466200000002985],[0.06833333333333323,-0.2922222222222222,2.483000000000004],[0.044270833333333336,-0.25703703703703706,2.5023999999985165],[-0.0265625,-0.15907407407407403,2.516200000002982],[-0.05770833333333331,-0.10240740740740743,2.532899999998506],[-0.08781249999999995,-0.08148148148148149,2.5494999999999948],[-0.09697916666666669,-0.08851851851851854,2.566200000002979],[-0.13250000000000003,-0.10240740740740743,2.582899999998517],[-0.15635416666666668,-0.10777777777777775,2.60029999999702],[-0.18020833333333333,-0.11314814814814819,2.6162000000029764],[-0.1938541666666667,-0.10888888888888891,2.6328999999985143],[-0.19802083333333337,-0.09518518518518514,2.6495000000000033],[-0.19739583333333333,-0.10499999999999998,2.6662000000029735],[-0.18802083333333333,-0.11148148148148146,2.682799999997016],[-0.18166666666666664,-0.09425925925925922,2.6995000000000005],[-0.19406249999999994,-0.06740740740740736,2.716200000002985],[-0.20572916666666666,-0.06481481481481481,2.7328999999985086],[-0.17177083333333332,-0.08703703703703704,2.7516000000014884],[-0.1486458333333334,-0.08185185185185183,2.766200000002982],[-0.13729166666666662,-0.06555555555555552,2.782899999998506],[-0.13114583333333332,-0.06185185185185181,2.7996000000014902],[-0.1063541666666667,-0.06592592592592597,2.816200000002979],[-0.0938541666666667,-0.06259259259259262,2.8342999999970147],[-0.08197916666666671,-0.05648148148148148,2.849500000000006],[-0.06447916666666664,-0.031111111111111027,2.8700000000000045],[-0.002708333333333357,-0.06796296296296295,2.8837000000029747],[0.049791666666666616,-0.0690740740740741,2.90270000000298],[0.06916666666666677,-0.034074074074074034,2.9162999999970225],[0.08760416666666657,-0.012222222222222264,2.9355000000000047],[0.1375,-0.032407407407407406,2.949600000001496],[0.18302083333333338,-0.04814814814814815,2.968299999997015],[0.20989583333333334,-0.05611111111111113,2.9828999999985086],[0.2419791666666666,-0.08518518518518518,3.0045000000000073],[0.27447916666666666,-0.11833333333333329,3.0197000000029846],[0.2976041666666667,-0.20166666666666663,3.03479999999702],[0.2890625,-0.2212962962962963,3.0494999999999948],[0.2897916666666667,-0.2766666666666666,3.066200000002979],[0.29708333333333337,-0.30759259259259264,3.082899999998517],[0.30802083333333335,-0.327962962962963,3.099700000002983],[0.3063541666666666,-0.3235185185185185,3.118200000002986],[0.29791666666666666,-0.3368518518518518,3.1328999999985143],[0.28916666666666657,-0.3531481481481481,3.152799999997015],[0.2872916666666666,-0.3446296296296297,3.1683999999985133],[0.29958333333333326,-0.3464814814814815,3.1828999999985115],[0.31395833333333345,-0.2927777777777778,3.1995000000000005],[0.3290625000000001,-0.2553703703703703,3.216200000002985],[0.346875,-0.23148148148148148,3.233200000002981],[0.35697916666666674,-0.2161111111111111,3.249600000001493]]","[0,0.019399999998512385,0.03560000000148733,0.04960000000149023,0.06629999999702108,0.08310000000149387,0.09960000000148739,0.1166000000014904,0.13300000000000267,0.14970000000298,0.1683999999985133,0.18289999999851148,0.2036000000014937,0.22020000000298268,0.2364999999999995,0.2497999999970233,0.26620000000298205,0.2828999999985129,0.30049999999999955,0.3167000000029816,0.333299999997017,0.3496000000014874,0.3663999999985066,0.3828999999985072,0.39960000000149165,0.41620000000298063,0.4328999999985115,0.44979999999701903,0.4687999999970174,0.48289999999850863,0.49960000000149307,0.5162999999970168,0.5328999999985129,0.5495000000000019,0.5664999999999978,0.58289999999851,0.6003999999985083,0.6162000000029835,0.6332999999970212,0.6496000000014917,0.6664999999999992,0.6846000000014882,0.7027999999970191,0.7192999999970198,0.7368999999985135,0.7509999999999977,0.7665000000000006,0.783200000002978,0.8003999999985112,0.8162000000029792,0.83289999999851,0.8497000000029828,0.8662000000029835,0.8828999999985072,0.9006000000014893,0.9162000000029806,0.9328999999985115,0.9495000000000005,0.9662999999970197,0.9828999999985086,0.9996000000014931,1.0162999999970168,1.032899999998513,1.0495000000000019,1.0662000000029792,1.08289999999851,1.1004999999999967,1.1204999999999998,1.1373999999985074,1.1562000000029826,1.1662000000029806,1.1828999999985115,1.2033999999985099,1.2166000000014918,1.235299999997018,1.249600000001493,1.2677999999970169,1.282899999998513,1.3002999999970228,1.316299999997021,1.33289999999851,1.3527999999970177,1.3662000000029835,1.3830000000000027,1.4003999999985126,1.4162000000029735,1.4328999999985115,1.4495000000000005,1.4662999999970197,1.487899999998504,1.499600000001493,1.5162999999970168,1.5330000000000013,1.5494999999999948,1.566299999997014,1.5828999999985172,1.5996000000014874,1.6162999999970253,1.6347000000029794,1.6496000000014845,1.6662000000029735,1.6828999999985115,1.699600000001496,1.716200000002985,1.733000000000004,1.7524999999999977,1.7663999999985123,1.7830000000000013,1.8034999999999997,1.8163999999985094,1.8331000000014939,1.8497000000029828,1.8701000000014858,1.8847999999970142,1.9028999999985103,1.9211000000014877,1.936399999998514,1.951299999997019,1.9663999999985151,1.9852999999970251,2.003399999998507,2.0190000000000055,2.0379999999999967,2.0526000000014903,2.0670000000000073,2.083100000001494,2.1025000000000063,2.1177000000029835,2.1329999999999956,2.14970000000298,2.169399999998504,2.182799999997016,2.199600000001496,2.216200000002985,2.2356000000014973,2.2494999999999976,2.2663999999985123,2.282899999998506,2.2996000000014902,2.3167999999970164,2.332899999998517,2.349500000000006,2.3662000000029764,2.388999999999996,2.39970000000298,2.4162000000029735,2.4328999999985115,2.450100000001484,2.466200000002985,2.483000000000004,2.5023999999985165,2.516200000002982,2.532899999998506,2.5494999999999948,2.566200000002979,2.582899999998517,2.60029999999702,2.6162000000029764,2.6328999999985143,2.6495000000000033,2.6662000000029735,2.682799999997016,2.6995000000000005,2.716200000002985,2.7328999999985086,2.7516000000014884,2.766200000002982,2.782899999998506,2.7996000000014902,2.816200000002979,2.8342999999970147,2.849500000000006,2.8700000000000045,2.8837000000029747,2.90270000000298,2.9162999999970225,2.9355000000000047,2.949600000001496,2.968299999997015,2.9828999999985086,3.0045000000000073,3.0197000000029846,3.03479999999702,3.0494999999999948,3.066200000002979,3.082899999998517,3.099700000002983,3.118200000002986,3.1328999999985143,3.152799999997015,3.1683999999985133,3.1828999999985115,3.1995000000000005,3.216200000002985,3.233200000002981,3.249600000001493]","[1733293562245,1733293562264,1733293562280,1733293562294,1733293562311,1733293562328,1733293562344,1733293562361,1733293562378,1733293562394,1733293562413,1733293562427,1733293562448,1733293562465,1733293562481,1733293562494,1733293562511,1733293562527,1733293562545,1733293562561,1733293562578,1733293562594,1733293562611,1733293562628,1733293562644,1733293562661,1733293562678,1733293562694,1733293562713,1733293562727,1733293562744,1733293562761,1733293562778,1733293562794,1733293562811,1733293562827,1733293562845,1733293562861,1733293562878,1733293562894,1733293562911,1733293562929,1733293562947,1733293562964,1733293562981,1733293562996,1733293563011,1733293563028,1733293563045,1733293563061,1733293563078,1733293563094,1733293563111,1733293563127,1733293563145,1733293563161,1733293563178,1733293563194,1733293563211,1733293563227,1733293563244,1733293563261,1733293563277,1733293563294,1733293563311,1733293563327,1733293563345,1733293563365,1733293563382,1733293563401,1733293563411,1733293563428,1733293563448,1733293563461,1733293563480,1733293563494,1733293563512,1733293563528,1733293563545,1733293563561,1733293563578,1733293563597,1733293563611,1733293563628,1733293563645,1733293563661,1733293563678,1733293563694,1733293563711,1733293563733,1733293563744,1733293563761,1733293563778,1733293563794,1733293563811,1733293563828,1733293563844,1733293563861,1733293563879,1733293563894,1733293563911,1733293563927,1733293563944,1733293563961,1733293563978,1733293563997,1733293564011,1733293564028,1733293564048,1733293564061,1733293564078,1733293564094,1733293564115,1733293564129,1733293564147,1733293564166,1733293564181,1733293564196,1733293564211,1733293564230,1733293564248,1733293564264,1733293564283,1733293564297,1733293564312,1733293564328,1733293564347,1733293564362,1733293564378,1733293564394,1733293564414,1733293564427,1733293564444,1733293564461,1733293564480,1733293564494,1733293564511,1733293564528,1733293564544,1733293564561,1733293564577,1733293564594,1733293564611,1733293564634,1733293564644,1733293564661,1733293564677,1733293564695,1733293564711,1733293564728,1733293564747,1733293564761,1733293564778,1733293564794,1733293564811,1733293564827,1733293564845,1733293564861,1733293564878,1733293564894,1733293564911,1733293564927,1733293564944,1733293564961,1733293564978,1733293564996,1733293565011,1733293565027,1733293565044,1733293565061,1733293565079,1733293565094,1733293565115,1733293565128,1733293565147,1733293565161,1733293565180,1733293565194,1733293565213,1733293565227,1733293565249,1733293565264,1733293565279,1733293565294,1733293565311,1733293565327,1733293565344,1733293565363,1733293565377,1733293565397,1733293565413,1733293565428,1733293565444,1733293565461,1733293565478,1733293565494]","[[1163.4,701.9],[1174.9,700.5],[1188.7,693.3],[1202,670.7],[1215.5,656.9],[1230.8,648.5],[1241.8,638.8],[1249.3,635.7],[1260.2,631],[1271.2,632.7],[1282.4,633.5],[1289.3,633.8],[1284.6,648.5],[1281.2,649.2],[1267.5,659.8],[1253.8,670.4],[1240.5,686.2],[1237.1,686.3],[1232,682.4],[1229.2,675.8],[1226.2,670.1],[1205.9,665],[1194.9,651.3],[1185.1,652.1],[1191.9,624.9],[1197.5,608.5],[1198.8,589.4],[1190.2,586],[1184.7,599.8],[1176.9,616.3],[1175,625],[1187.5,633.7],[1207.4,632.8],[1224.8,631.4],[1234.6,643.8],[1245.6,645.4],[1260.2,631.2],[1283.7,626.3],[1310.2,616.4],[1325.1,601.7],[1333.7,596.3],[1338.7,581.7],[1336.3,576.7],[1342.7,562.5],[1350.2,543.8],[1353.2,520.7],[1352.9,526.8],[1355.1,505.4],[1351.4,489.9],[1335.5,465.2],[1320,439],[1268.2,433.2],[1203.9,417.9],[1130.8,411.8],[1054.3,405.1],[990.1,402.7],[925.2,394.1],[848.9,403.7],[758,396.4],[690.9,403.1],[628.5,406.8],[606,399.3],[594.1,404.6],[582.2,409.9],[573.7,415.8],[568.2,422.9],[569.5,422.9],[577.3,406.9],[577.3,406.9],[599.7,411.4],[599.7,411.4],[611.1,412.5],[614.4,414],[618.7,417.8],[637.2,407.5],[655.7,397.2],[674.4,407.5],[682.3,416.7],[722.6,462],[745.5,535.3],[818.3,525.1],[894.1,521.3],[993.6,518.7],[1092.1,513.8],[1150.4,526.9],[1150.4,526.9],[1205.4,545.4],[1205.4,545.4],[1273.6,541.6],[1322.1,553.6],[1322.1,553.6],[1336.1,532.1],[1336.1,532.1],[1334.1,537.1],[1334.1,537.1],[1276.8,593.4],[1276.8,593.4],[1227.6,653.4],[1176.7,702.7],[1125.8,752],[1108,792.8],[1093.5,828.2],[1050.1,874.2],[1050.1,874.2],[1023.8,902.9],[996.2,918.2],[1033,908.5],[1071.5,897.2],[1119.7,883.6],[1119.7,883.6],[1162.8,840],[1218.5,808],[1269,777.3],[1260.9,754.4],[1268.3,722.6],[1293.1,687.2],[1311.8,653.3],[1315.1,599.3],[1329,561.9],[1321.5,542.6],[1297.9,539],[1269.7,527.1],[1231.2,511.8],[1252.3,488.2],[1294.2,472.9],[1321.3,462.7],[1365.3,439],[1361.1,438.2],[1357.7,430.4],[1361.3,384],[1356.5,378.8],[1356.5,378.8],[1340.9,366.7],[1327.5,375.6],[1335.6,345.2],[1322.9,306.5],[1310.2,267.8],[1276.4,266.2],[1268.7,248.3],[1238.4,250.5],[1249.8,231.6],[1237,207.4],[1227,206.2],[1204.3,215.6],[1204.3,215.6],[1166.1,265.5],[1124.5,297.4],[1082.9,329.3],[1058.8,358.3],[1025.6,382.2],[1002.5,401.2],[934.5,454.1],[904.6,484.7],[875.7,496],[866.9,492.2],[832.8,484.7],[809.9,481.8],[787,478.9],[773.9,481.2],[769.9,488.6],[770.5,483.3],[779.5,479.8],[785.6,489.1],[773.7,503.6],[762.5,505],[795.1,493],[817.3,495.8],[828.2,504.6],[834.1,506.6],[857.9,504.4],[869.9,506.2],[881.3,509.5],[898.1,523.2],[957.4,503.3],[1007.8,502.7],[1026.4,521.6],[1044.1,533.4],[1092,522.5],[1135.7,514],[1161.5,509.7],[1192.3,494],[1223.5,476.1],[1245.7,431.1],[1237.5,420.5],[1238.2,390.6],[1245.2,373.9],[1255.7,362.9],[1254.1,365.3],[1246,358.1],[1237.6,349.3],[1235.8,353.9],[1247.6,352.9],[1261.4,381.9],[1275.9,402.1],[1293,415],[1302.7,423.3]]","[0,0.3527331528]","[0.3527331528,0.3527331528]","[-0.3527331528,0]","[-0.3527331528,-0.3527331528]","[0,0]","[0.3527331528,0]","[0,-0.3527331528]","[0.3527331528,-0.3527331528]",0,1,1,1,1,1,Tablet,9,1,11,5
,,,,,,,,,,,,,,,,,,,17,001,2024-12-04_14h25.08.561,Attention_exp_legacy,2023.1.0,Win32,59.88023952,,,,,,,,,,,[0.3385416666666667],[0.31851851851851853],[1],[0],[0],[0.6481000000014916],"[""Option2_label""]",Option2_label,3,1.6635,"[[0.3385416666666667,0.31851851851851853],[0.3385416666666667,0.31851851851851853],[0.3385416666666667,0.31851851851851853],[0.3385416666666667,0.31851851851851853],[0.3385416666666667,0.31851851851851853],[0.3385416666666667,0.31851851851851853],[0.3385416666666667,0.31851851851851853],[0.3385416666666667,0.31851851851851853],[0.3385416666666667,0.31851851851851853],[0.3385416666666667,0.31851851851851853],[0.3385416666666667,0.31851851851851853],[0.3385416666666667,0.31851851851851853],[0.3385416666666667,0.31851851851851853],[0.3385416666666667,0.31851851851851853],[0.3385416666666667,0.31851851851851853],[0.3385416666666667,0.31851851851851853],[0.3385416666666667,0.31851851851851853],[0.3385416666666667,0.31851851851851853],[0.3385416666666667,0.31851851851851853],[0.3385416666666667,0.31851851851851853],[0.3385416666666667,0.31851851851851853],[0.3385416666666667,0.31851851851851853],[0.3385416666666667,0.31851851851851853],[0.3385416666666667,0.31851851851851853],[0.3385416666666667,0.31851851851851853],[0.3385416666666667,0.31851851851851853],[0.3385416666666667,0.31851851851851853],[0.3385416666666667,0.31851851851851853],[0.3385416666666667,0.31851851851851853],[0.3385416666666667,0.31851851851851853],[0.3385416666666667,0.31851851851851853],[0.3385416666666667,0.31851851851851853],[0.3385416666666667,0.31851851851851853],[0.3385416666666667,0.31851851851851853],[0.3385416666666667,0.31851851851851853],[0.3385416666666667,0.31851851851851853],[0.3385416666666667,0.31851851851851853],[0.3385416666666667,0.31851851851851853],[0.3385416666666667,0.31851851851851853],[0.3385416666666667,0.31851851851851853],[0.3385416666666667,0.31851851851851853],[0.3385416666666667,0.31851851851851853],[0.3385416666666667,0.31851851851851853],[0.3385416666666667,0.31851851851851853],[0.3385416666666667,0.31851851851851853],[0.3385416666666667,0.31851851851851853],[0.3385416666666667,0.31851851851851853],[0.3385416666666667,0.31851851851851853],[0.3385416666666667,0.31851851851851853],[0.3385416666666667,0.31851851851851853],[0.3385416666666667,0.31851851851851853],[0.3385416666666667,0.31851851851851853],[0.3385416666666667,0.31851851851851853],[0.3385416666666667,0.31851851851851853],[0.3385416666666667,0.31851851851851853],[0.3385416666666667,0.31851851851851853],[0.3385416666666667,0.31851851851851853],[0.3385416666666667,0.31851851851851853],[0.3385416666666667,0.31851851851851853],[0.3385416666666667,0.31851851851851853],[0.3385416666666667,0.31851851851851853],[0.3385416666666667,0.31851851851851853],[0.3385416666666667,0.31851851851851853],[0.3385416666666667,0.31851851851851853],[0.3385416666666667,0.31851851851851853],[0.3385416666666667,0.31851851851851853],[0.3385416666666667,0.31851851851851853],[0.3385416666666667,0.31851851851851853],[0.3385416666666667,0.31851851851851853],[0.3385416666666667,0.31851851851851853],[0.3385416666666667,0.31851851851851853],[0.3385416666666667,0.31851851851851853],[0.3385416666666667,0.31851851851851853],[0.3385416666666667,0.31851851851851853],[0.3385416666666667,0.31851851851851853],[0.3385416666666667,0.31851851851851853],[0.3385416666666667,0.31851851851851853],[0.3385416666666667,0.31851851851851853],[0.3385416666666667,0.31851851851851853],[0.3385416666666667,0.31851851851851853],[0.3385416666666667,0.31851851851851853],[0.3385416666666667,0.31851851851851853],[0.3385416666666667,0.31851851851851853],[0.3385416666666667,0.31851851851851853],[0.3385416666666667,0.31851851851851853],[0.3385416666666667,0.31851851851851853],[0.3385416666666667,0.31851851851851853],[0.3385416666666667,0.31851851851851853],[0.3385416666666667,0.31851851851851853],[0.3385416666666667,0.31851851851851853],[0.3385416666666667,0.31851851851851853],[0.3385416666666667,0.31851851851851853],[0.3385416666666667,0.31851851851851853],[0.3385416666666667,0.31851851851851853],[0.3385416666666667,0.31851851851851853],[0.3385416666666667,0.31851851851851853],[0.3385416666666667,0.31851851851851853],[0.3385416666666667,0.31851851851851853],[0.3385416666666667,0.31851851851851853],[0.3385416666666667,0.31851851851851853],[0.3385416666666667,0.31851851851851853]]","[[0.2169791666666666,0.02962962962962963],[0.21760416666666677,0.03518518518518519],[0.19416666666666677,0.056296296296296254],[0.17583333333333329,0.08888888888888889],[0.18489583333333334,0.06944444444444445],[0.16802083333333329,0.05222222222222231],[0.15281250000000005,0.01907407407407399],[0.1664583333333333,-0.02370370370370362],[0.16260416666666658,-0.01574074074074074],[0.14572916666666677,-0.008333333333333333],[0.1396874999999999,-0.02444444444444453],[0.1243750000000001,-0.01648148148148144],[0.12645833333333342,-0.015000000000000043],[0.12218749999999995,-0.03851851851851843],[0.11822916666666666,-0.0477777777777777],[0.12687499999999996,-0.0492592592592593],[0.1414583333333333,-0.05611111111111113],[0.1271874999999999,-0.05333333333333336],[0.1304166666666667,-0.04537037037037037],[0.1345833333333334,-0.04296296296296305],[0.14583333333333334,0.01574074074074074],[0.15916666666666662,0.03037037037037033],[0.18718750000000003,0.017592592592592594],[0.21645833333333328,0.018333333333333292],[0.2335416666666667,-0.018888888888888972],[0.24864583333333337,-0.047037037037036995],[0.28229166666666666,-0.06333333333333331],[0.3194791666666667,-0.07796296296296301],[0.3658333333333334,-0.12148148148148152],[0.3858333333333334,-0.1227777777777778],[0.40510416666666677,-0.172037037037037],[0.42208333333333337,-0.19277777777777783],[0.4136458333333332,-0.18888888888888888],[0.41989583333333325,-0.17555555555555558],[0.4357291666666666,-0.17037037037037037],[0.4547916666666666,-0.17370370370370372],[0.45197916666666677,-0.16500000000000004],[0.44562499999999994,-0.15796296296296297],[0.4349999999999999,-0.15703703703703706],[0.44562499999999994,-0.17703703703703708],[0.4375,-0.18203703703703705],[0.42989583333333337,-0.1868518518518518],[0.41531250000000003,-0.1522222222222222],[0.3745833333333332,-0.13277777777777774],[0.32135416666666666,-0.07981481481481485],[0.2681250000000001,-0.026851851851851852],[0.23447916666666657,-0.013518518518518435],[0.20083333333333328,-0.0001851851851852273],[0.15833333333333333,0.020185185185185143],[0.1056250000000001,0.045740740740740825],[0.1056250000000001,0.045740740740740825],[0.10750000000000005,0.0338888888888888],[0.07374999999999995,0.05814814814814811],[0.06312500000000003,0.015000000000000043],[0.06854166666666663,-0.022222222222222223],[0.08458333333333339,-0.059814814814814835],[0.10062499999999991,-0.09740740740740746],[0.10062499999999991,-0.09740740740740746],[0.11479166666666671,-0.05851851851851856],[0.11479166666666671,-0.05851851851851856],[0.14500000000000005,-0.03555555555555564],[0.16302083333333334,0.01907407407407399],[0.19541666666666657,0.04888888888888885],[0.19583333333333333,0.10481481481481486],[0.23989583333333328,0.122037037037037],[0.26927083333333335,0.17388888888888884],[0.28114583333333343,0.19944444444444454],[0.30354166666666677,0.23740740740740748],[0.3125,0.24074074074074073],[0.3414583333333333,0.19611111111111107],[0.3679166666666667,0.13259259259259262],[0.40656249999999994,0.03740740740740749],[0.4410416666666668,-0.03814814814814819],[0.46197916666666666,-0.13351851851851856],[0.4748958333333334,-0.22629629629629627],[0.48802083333333335,-0.31574074074074077],[0.5140625,-0.37907407407407406],[0.5279166666666666,-0.45481481481481484],[0.5552083333333333,-0.49592592592592594],[0.5642708333333334,-0.5572222222222222],[0.5597916666666668,-0.5837037037037037],[0.5597916666666668,-0.5837037037037037],[0.5590625,-0.5896296296296296],[0.5493750000000001,-0.6177777777777779],[0.5493750000000001,-0.6177777777777779],[0.5537499999999999,-0.6212962962962963],[0.5506249999999999,-0.5925925925925926],[0.5506249999999999,-0.5925925925925926],[0.5472916666666667,-0.5672222222222223],[0.5472916666666667,-0.5672222222222223],[0.5425,-0.5575925925925926],[0.5425,-0.5575925925925926],[0.5366666666666667,-0.5274074074074074],[0.5366666666666667,-0.5274074074074074],[0.5315624999999999,-0.5027777777777778],[0.5320833333333332,-0.44370370370370377],[0.5352083333333333,-0.3931481481481482],[0.5104166666666666,-0.3688888888888889],[0.5015625,-0.3103703703703704],[0.5054166666666667,-0.2566666666666667],[0.5167708333333333,-0.2351851851851852]]","[[0.2169791666666666,0.02962962962962963,0],[0.21760416666666677,0.03518518518518519,0.0163000000044633],[0.19416666666666677,0.056296296296296254,0.031800000004466256],[0.17583333333333329,0.08888888888888889,0.04999999999999716],[0.18489583333333334,0.06944444444444445,0.06560000000148136],[0.16802083333333329,0.05222222222222231,0.08010000000149375],[0.15281250000000005,0.01907407407407399,0.09680000000446398],[0.1664583333333333,-0.02370370370370362,0.11350000000000193],[0.16260416666666658,-0.01574074074074074,0.13020000000297216],[0.14572916666666677,-0.008333333333333333,0.14920000000297762],[0.1396874999999999,-0.02444444444444453,0.1656000000014899],[0.1243750000000001,-0.01648148148148144,0.18010000000148807],[0.12645833333333342,-0.015000000000000043,0.1968000000044725],[0.12218749999999995,-0.03851851851851843,0.21349999999999625],[0.11822916666666666,-0.0477777777777777,0.23030000000446194],[0.12687499999999996,-0.0492592592592593,0.2469999999999999],[0.1414583333333333,-0.05611111111111113,0.2634999999999934],[0.1271874999999999,-0.05333333333333336,0.2801000000014824],[0.1304166666666667,-0.04537037037037037,0.29670000000297136],[0.1345833333333334,-0.04296296296296305,0.3133999999985093],[0.14583333333333334,0.01574074074074074,0.3305000000000007],[0.15916666666666662,0.03037037037037033,0.3472000000029709],[0.18718750000000003,0.017592592592592594,0.3633999999985065],[0.21645833333333328,0.018333333333333292,0.3801000000014909],[0.2335416666666667,-0.018888888888888972,0.39680000000446114],[0.24864583333333337,-0.047037037037036995,0.41339999999850363],[0.28229166666666666,-0.06333333333333331,0.43010000000148807],[0.3194791666666667,-0.07796296296296301,0.4474999999999909],[0.3658333333333334,-0.12148148148148152,0.46610000000148943],[0.3858333333333334,-0.1227777777777778,0.482200000002976],[0.40510416666666677,-0.172037037037037,0.498899999998514],[0.42208333333333337,-0.19277777777777783,0.5133999999985122],[0.4136458333333332,-0.18888888888888888,0.5302000000029778],[0.41989583333333325,-0.17555555555555558,0.5468000000044668],[0.4357291666666666,-0.17037037037037037,0.5649999999999977],[0.4547916666666666,-0.17370370370370372,0.5801000000014938],[0.45197916666666677,-0.16500000000000004,0.596800000004464],[0.44562499999999994,-0.15796296296296297,0.6133999999985065],[0.4349999999999999,-0.15703703703703706,0.6302000000029722],[0.44562499999999994,-0.17703703703703708,0.6488000000044707],[0.4375,-0.18203703703703705,0.6642000000029782],[0.42989583333333337,-0.1868518518518518,0.6801000000014881],[0.41531250000000003,-0.1522222222222222,0.6988999999985026],[0.3745833333333332,-0.13277777777777774,0.7133999999985008],[0.32135416666666666,-0.07981481481481485,0.7303000000044619],[0.2681250000000001,-0.026851851851851852,0.748800000004465],[0.23447916666666657,-0.013518518518518435,0.7634999999999934],[0.20083333333333328,-0.0001851851851852273,0.7801000000014824],[0.15833333333333333,0.020185185185185143,0.7967000000029714],[0.1056250000000001,0.045740740740740825,0.8135000000000048],[0.1056250000000001,0.045740740740740825,0.8307000000029774],[0.10750000000000005,0.0338888888888888,0.846800000004464],[0.07374999999999995,0.05814814814814811,0.8633999999985065],[0.06312500000000003,0.015000000000000043,0.8801000000014909],[0.06854166666666663,-0.022222222222222223,0.8968000000044611],[0.08458333333333339,-0.059814814814814835,0.9133999999985036],[0.10062499999999991,-0.09740740740740746,0.9368999999985022],[0.10062499999999991,-0.09740740740740746,0.9548999999985028],[0.11479166666666671,-0.05851851851851856,0.9736000000014826],[0.11479166666666671,-0.05851851851851856,0.9803000000044619],[0.14500000000000005,-0.03555555555555564,0.9968000000044697],[0.16302083333333334,0.01907407407407399,1.0133999999985122],[0.19541666666666657,0.04888888888888885,1.0301000000014824],[0.19583333333333333,0.10481481481481486,1.0467000000029714],[0.23989583333333328,0.122037037037037,1.0633999999985093],[0.26927083333333335,0.17388888888888884,1.0801000000014938],[0.28114583333333343,0.19944444444444454,1.0967000000029827],[0.30354166666666677,0.23740740740740748,1.1133999999985065],[0.3125,0.24074074074074073,1.130100000001491],[0.3414583333333333,0.19611111111111107,1.1468000000044611],[0.3679166666666667,0.13259259259259262,1.163499999999999],[0.40656249999999994,0.03740740740740749,1.1799999999999926],[0.4410416666666668,-0.03814814814814819,1.1968000000044725],[0.46197916666666666,-0.13351851851851856,1.2133999999985008],[0.4748958333333334,-0.22629629629629627,1.2301000000014852],[0.48802083333333335,-0.31574074074074077,1.2467000000029742],[0.5140625,-0.37907407407407406,1.2633999999985122],[0.5279166666666666,-0.45481481481481484,1.2801000000014824],[0.5552083333333333,-0.49592592592592594,1.2968000000044668],[0.5642708333333334,-0.5572222222222222,1.3133999999985093],[0.5597916666666668,-0.5837037037037037,1.3301000000014938],[0.5597916666666668,-0.5837037037037037,1.3467000000029827],[0.5590625,-0.5896296296296296,1.363500000000002],[0.5493750000000001,-0.6177777777777779,1.3867000000029748],[0.5493750000000001,-0.6177777777777779,1.3968000000044611],[0.5537499999999999,-0.6212962962962963,1.4133999999985036],[0.5506249999999999,-0.5925925925925926,1.4376000000014812],[0.5506249999999999,-0.5925925925925926,1.4468000000044725],[0.5472916666666667,-0.5672222222222223,1.4633999999985008],[0.5472916666666667,-0.5672222222222223,1.4801000000014852],[0.5425,-0.5575925925925926,1.4968000000044697],[0.5425,-0.5575925925925926,1.5133999999985122],[0.5366666666666667,-0.5274074074074074,1.5301000000014824],[0.5366666666666667,-0.5274074074074074,1.5468000000044668],[0.5315624999999999,-0.5027777777777778,1.5635000000000048],[0.5320833333333332,-0.44370370370370377,1.5801000000014938],[0.5352083333333333,-0.3931481481481482,1.6007000000029734],[0.5104166666666666,-0.3688888888888889,1.6159999999999997],[0.5015625,-0.3103703703703704,1.630100000001491],[0.5054166666666667,-0.2566666666666667,1.6471000000014868],[0.5167708333333333,-0.2351851851851852,1.663499999999999]]","[0,0.0163000000044633,0.031800000004466256,0.04999999999999716,0.06560000000148136,0.08010000000149375,0.09680000000446398,0.11350000000000193,0.13020000000297216,0.14920000000297762,0.1656000000014899,0.18010000000148807,0.1968000000044725,0.21349999999999625,0.23030000000446194,0.2469999999999999,0.2634999999999934,0.2801000000014824,0.29670000000297136,0.3133999999985093,0.3305000000000007,0.3472000000029709,0.3633999999985065,0.3801000000014909,0.39680000000446114,0.41339999999850363,0.43010000000148807,0.4474999999999909,0.46610000000148943,0.482200000002976,0.498899999998514,0.5133999999985122,0.5302000000029778,0.5468000000044668,0.5649999999999977,0.5801000000014938,0.596800000004464,0.6133999999985065,0.6302000000029722,0.6488000000044707,0.6642000000029782,0.6801000000014881,0.6988999999985026,0.7133999999985008,0.7303000000044619,0.748800000004465,0.7634999999999934,0.7801000000014824,0.7967000000029714,0.8135000000000048,0.8307000000029774,0.846800000004464,0.8633999999985065,0.8801000000014909,0.8968000000044611,0.9133999999985036,0.9368999999985022,0.9548999999985028,0.9736000000014826,0.9803000000044619,0.9968000000044697,1.0133999999985122,1.0301000000014824,1.0467000000029714,1.0633999999985093,1.0801000000014938,1.0967000000029827,1.1133999999985065,1.130100000001491,1.1468000000044611,1.163499999999999,1.1799999999999926,1.1968000000044725,1.2133999999985008,1.2301000000014852,1.2467000000029742,1.2633999999985122,1.2801000000014824,1.2968000000044668,1.3133999999985093,1.3301000000014938,1.3467000000029827,1.363500000000002,1.3867000000029748,1.3968000000044611,1.4133999999985036,1.4376000000014812,1.4468000000044725,1.4633999999985008,1.4801000000014852,1.4968000000044697,1.5133999999985122,1.5301000000014824,1.5468000000044668,1.5635000000000048,1.5801000000014938,1.6007000000029734,1.6159999999999997,1.630100000001491,1.6471000000014868,1.663499999999999]","[1733293566515,1733293566530,1733293566546,1733293566564,1733293566580,1733293566594,1733293566611,1733293566628,1733293566644,1733293566663,1733293566680,1733293566694,1733293566711,1733293566727,1733293566744,1733293566761,1733293566777,1733293566794,1733293566811,1733293566827,1733293566844,1733293566861,1733293566877,1733293566894,1733293566911,1733293566927,1733293566944,1733293566962,1733293566980,1733293566996,1733293567013,1733293567027,1733293567044,1733293567061,1733293567079,1733293567094,1733293567111,1733293567127,1733293567144,1733293567163,1733293567178,1733293567194,1733293567213,1733293567227,1733293567244,1733293567263,1733293567277,1733293567294,1733293567311,1733293567327,1733293567345,1733293567361,1733293567377,1733293567394,1733293567411,1733293567427,1733293567451,1733293567469,1733293567488,1733293567494,1733293567511,1733293567527,1733293567544,1733293567561,1733293567577,1733293567594,1733293567611,1733293567627,1733293567644,1733293567661,1733293567677,1733293567694,1733293567711,1733293567727,1733293567744,1733293567761,1733293567777,1733293567794,1733293567811,1733293567827,1733293567844,1733293567861,1733293567878,1733293567901,1733293567911,1733293567927,1733293567952,1733293567961,1733293567977,1733293567994,1733293568011,1733293568027,1733293568044,1733293568061,1733293568077,1733293568094,1733293568115,1733293568130,1733293568144,1733293568161,1733293568178]","[[1168.3,556],[1168.9,559],[1146.4,570.4],[1128.8,588],[1137.5,577.5],[1121.3,568.2],[1106.7,550.3],[1119.8,527.2],[1116.1,531.5],[1099.9,535.5],[1094.1,526.8],[1079.4,531.1],[1081.4,531.9],[1077.3,519.2],[1073.5,514.2],[1081.8,513.4],[1095.8,509.7],[1082.1,511.2],[1085.2,515.5],[1089.2,516.8],[1100,548.5],[1112.8,556.4],[1139.7,549.5],[1167.8,549.9],[1184.2,529.8],[1198.7,514.6],[1231,505.8],[1266.7,497.9],[1311.2,474.4],[1330.4,473.7],[1348.9,447.1],[1365.2,435.9],[1357.1,438],[1363.1,445.2],[1378.3,448],[1396.6,446.2],[1393.9,450.9],[1387.8,454.7],[1377.6,455.2],[1387.8,444.4],[1380,441.7],[1372.7,439.1],[1358.7,457.8],[1319.6,468.3],[1268.5,496.9],[1217.4,525.5],[1185.1,532.7],[1152.8,539.9],[1112,550.9],[1061.4,564.7],[1061.4,564.7],[1063.2,558.3],[1030.8,571.4],[1020.6,548.1],[1025.8,528],[1041.2,507.7],[1056.6,487.4],[1056.6,487.4],[1070.2,508.4],[1070.2,508.4],[1099.2,520.8],[1116.5,550.3],[1147.6,566.4],[1148,596.6],[1190.3,605.9],[1218.5,633.9],[1229.9,647.7],[1251.4,668.2],[1260,670],[1287.8,645.9],[1313.2,611.6],[1350.3,560.2],[1383.4,519.4],[1403.5,467.9],[1415.9,417.8],[1428.5,369.5],[1453.5,335.3],[1466.8,294.4],[1493,272.2],[1501.7,239.1],[1497.4,224.8],[1497.4,224.8],[1496.7,221.6],[1487.4,206.4],[1487.4,206.4],[1491.6,204.5],[1488.6,220],[1488.6,220],[1485.4,233.7],[1485.4,233.7],[1480.8,238.9],[1480.8,238.9],[1475.2,255.2],[1475.2,255.2],[1470.3,268.5],[1470.8,300.4],[1473.8,327.7],[1450,340.8],[1441.5,372.4],[1445.2,401.4],[1456.1,413]]","[0,0.3527331528]","[0.3527331528,0.3527331528]","[-0.3527331528,0]","[-0.3527331528,-0.3527331528]","[0,0]","[0.3527331528,0]","[0,-0.3527331528]","[0.3527331528,-0.3527331528]",0,2,2,2,1,1,Tablet,5,1,7,3
