inst1_resp.keys,inst1_resp.rt,calibrationMouse.x,calibrationMouse.y,calibrationMouse.leftButton,calibrationMouse.midButton,calibrationMouse.rightButton,calibrationClick.x,calibrationClick.y,calibrationClick.leftButton,calibrationClick.midButton,calibrationClick.rightButton,trialsc.thisRepN,trialsc.thisTrialN,trialsc.thisN,trialsc.thisIndex,trialsc.ran,calibration_x,calibration_y,participant,session,date,expName,psychopyVersion,OS,frameRate,calibrationClick.clicked_name,ScreenRes_pixels,Camera_pixels,mouse_2.x,mouse_2.y,mouse_2.leftButton,mouse_2.midButton,mouse_2.rightButton,mouse_2.time,mouse_2.clicked_name,mouse.x,mouse.y,mouse.leftButton,mouse.midButton,mouse.rightButton,mouse.time,mouse.clicked_name,Choice,Trial,TrialDuration,MOUSE_GAZE,ET_GAZE,ET_GAZE_x_T,time,unixTime,ET_GAZE_NF,Loc_Option1_label,Loc_Option2_label,Loc_Cost_label,Loc_Qual_label,Loc_Option1_cost,Loc_Option2_cost,Loc_Option1_quality,Loc_Option2_quality,trials.thisRepN,trials.thisTrialN,trials.thisN,trials.thisIndex,trials.ran,Block,Device,cost1,qual1,cost2,qual2
space,1.8512,-0.059375,-0.177777778,1,0,0,-0.010416667,0.342592593,1,0,0,0,0,0,12,1,0,0.33,32,001,2024-12-04_14h50.00.527,Attention_exp_legacy,2023.1.0,Win32,59.88023952,,,,,,,,,,,,,,,,,,,,,,,,,,,,,,,,,,,,,,,,,,,,,
,,,,,,,-0.341666667,-0.331481481,1,0,0,0,1,1,5,1,-0.33,-0.33,32,001,2024-12-04_14h50.00.527,Attention_exp_legacy,2023.1.0,Win32,59.88023952,,,,,,,,,,,,,,,,,,,,,,,,,,,,,,,,,,,,,,,,,,,,,
,,,,,,,0.663541667,0.668518519,1,0,0,0,2,2,19,1,0.67,0.67,32,001,2024-12-04_14h50.00.527,Attention_exp_legacy,2023.1.0,Win32,59.88023952,calibration_square,,,,,,,,,,,,,,,,,,,,,,,,,,,,,,,,,,,,,,,,,,,,
,,,,,,,-0.336458333,-0.681481481,1,0,0,0,3,3,4,1,-0.33,-0.67,32,001,2024-12-04_14h50.00.527,Attention_exp_legacy,2023.1.0,Win32,59.88023952,,,,,,,,,,,,,,,,,,,,,,,,,,,,,,,,,,,,,,,,,,,,,
,,,,,,,0.001041667,0,1,0,0,0,4,4,11,1,0,0,32,001,2024-12-04_14h50.00.527,Attention_exp_legacy,2023.1.0,Win32,59.88023952,calibration_square,,,,,,,,,,,,,,,,,,,,,,,,,,,,,,,,,,,,,,,,,,,,
,,,,,,,0.325,0.67962963,1,0,0,0,5,5,18,1,0.33,0.67,32,001,2024-12-04_14h50.00.527,Attention_exp_legacy,2023.1.0,Win32,59.88023952,calibration_square,,,,,,,,,,,,,,,,,,,,,,,,,,,,,,,,,,,,,,,,,,,,
,,,,,,,-0.680208333,0.32962963,1,0,0,0,6,6,3,1,-0.67,0.33,32,001,2024-12-04_14h50.00.527,Attention_exp_legacy,2023.1.0,Win32,59.88023952,,,,,,,,,,,,,,,,,,,,,,,,,,,,,,,,,,,,,,,,,,,,,
,,,,,,,-0.333333333,0.338888889,1,0,0,0,7,7,7,1,-0.33,0.33,32,001,2024-12-04_14h50.00.527,Attention_exp_legacy,2023.1.0,Win32,59.88023952,calibration_square,,,,,,,,,,,,,,,,,,,,,,,,,,,,,,,,,,,,,,,,,,,,
,,,,,,,-0.678125,-0.338888889,1,0,0,0,8,8,1,1,-0.67,-0.33,32,001,2024-12-04_14h50.00.527,Attention_exp_legacy,2023.1.0,Win32,59.88023952,calibration_square,,,,,,,,,,,,,,,,,,,,,,,,,,,,,,,,,,,,,,,,,,,,
,,,,,,,0.328125,-0.322222222,1,0,0,0,9,9,15,1,0.33,-0.33,32,001,2024-12-04_14h50.00.527,Attention_exp_legacy,2023.1.0,Win32,59.88023952,calibration_square,,,,,,,,,,,,,,,,,,,,,,,,,,,,,,,,,,,,,,,,,,,,
,,,,,,,0.327083333,0.351851852,1,0,0,0,10,10,17,1,0.33,0.33,32,001,2024-12-04_14h50.00.527,Attention_exp_legacy,2023.1.0,Win32,59.88023952,,,,,,,,,,,,,,,,,,,,,,,,,,,,,,,,,,,,,,,,,,,,,
,,,,,,,0.658333333,-0.666666667,1,0,0,0,11,11,20,1,0.67,-0.67,32,001,2024-12-04_14h50.00.527,Attention_exp_legacy,2023.1.0,Win32,59.88023952,,,,,,,,,,,,,,,,,,,,,,,,,,,,,,,,,,,,,,,,,,,,,
,,,,,,,-0.68125,0,1,0,0,0,12,12,2,1,-0.67,0,32,001,2024-12-04_14h50.00.527,Attention_exp_legacy,2023.1.0,Win32,59.88023952,,,,,,,,,,,,,,,,,,,,,,,,,,,,,,,,,,,,,,,,,,,,,
,,,,,,,-0.327083333,0.009259259,1,0,0,0,13,13,6,1,-0.33,0,32,001,2024-12-04_14h50.00.527,Attention_exp_legacy,2023.1.0,Win32,59.88023952,calibration_square,,,,,,,,,,,,,,,,,,,,,,,,,,,,,,,,,,,,,,,,,,,,
,,,,,,,0.329166667,0.005555556,1,0,0,0,14,14,16,1,0.33,0,32,001,2024-12-04_14h50.00.527,Attention_exp_legacy,2023.1.0,Win32,59.88023952,calibration_square,,,,,,,,,,,,,,,,,,,,,,,,,,,,,,,,,,,,,,,,,,,,
,,,,,,,-0.002083333,-0.340740741,1,0,0,0,15,15,10,1,0,-0.33,32,001,2024-12-04_14h50.00.527,Attention_exp_legacy,2023.1.0,Win32,59.88023952,,,,,,,,,,,,,,,,,,,,,,,,,,,,,,,,,,,,,,,,,,,,,
,,,,,,,-0.004166667,-0.672222222,1,0,0,0,16,16,9,1,0,-0.67,32,001,2024-12-04_14h50.00.527,Attention_exp_legacy,2023.1.0,Win32,59.88023952,calibration_square,,,,,,,,,,,,,,,,,,,,,,,,,,,,,,,,,,,,,,,,,,,,
,,,,,,,-0.666666667,-0.668518519,1,0,0,0,17,17,0,1,-0.67,-0.67,32,001,2024-12-04_14h50.00.527,Attention_exp_legacy,2023.1.0,Win32,59.88023952,calibration_square,,,,,,,,,,,,,,,,,,,,,,,,,,,,,,,,,,,,,,,,,,,,
,,,,,,,-0.327083333,0.67962963,1,0,0,0,18,18,8,1,-0.33,0.67,32,001,2024-12-04_14h50.00.527,Attention_exp_legacy,2023.1.0,Win32,59.88023952,calibration_square,,,,,,,,,,,,,,,,,,,,,,,,,,,,,,,,,,,,,,,,,,,,
,,,,,,,0.326041667,-0.664814815,1,0,0,0,19,19,14,1,0.33,-0.67,32,001,2024-12-04_14h50.00.527,Attention_exp_legacy,2023.1.0,Win32,59.88023952,calibration_square,,,,,,,,,,,,,,,,,,,,,,,,,,,,,,,,,,,,,,,,,,,,
,,,,,,,-0.002083333,0.661111111,1,0,0,0,20,20,13,1,0,0.67,32,001,2024-12-04_14h50.00.527,Attention_exp_legacy,2023.1.0,Win32,59.88023952,calibration_square,,,,,,,,,,,,,,,,,,,,,,,,,,,,,,,,,,,,,,,,,,,,
,,,,,,,,,,,,,,,,,,,32,001,2024-12-04_14h50.00.527,Attention_exp_legacy,2023.1.0,Win32,59.88023952,,"[1920,1080]","[640,480]",[0.008333333333333333],[-0.48333333333333334],[1],[0],[0],[1.14670000000298],"[""StartButton""]",[0.014583333333333334],[0.3074074074074074],[1],[0],[0],[5.121000000000002],"[""Option1_label""]",Option1_label,1,6.1451,"[[0.053125,-0.027777777777777776],[0.053125,-0.027777777777777776],[0.053125,-0.027777777777777776],[0.053125,-0.027777777777777776],[0.053125,-0.027777777777777776],[0.053125,-0.027777777777777776],[0.053125,-0.027777777777777776],[0.053125,-0.027777777777777776],[0.053125,-0.027777777777777776],[0.053125,-0.027777777777777776],[0.053125,-0.027777777777777776],[0.053125,-0.027777777777777776],[0.053125,-0.027777777777777776],[0.053125,-0.027777777777777776],[0.053125,-0.027777777777777776],[0.053125,-0.027777777777777776],[0.053125,-0.027777777777777776],[0.053125,-0.027777777777777776],[0.053125,-0.027777777777777776],[0.053125,-0.027777777777777776],[0.053125,-0.027777777777777776],[0.053125,-0.027777777777777776],[0.053125,-0.027777777777777776],[0.053125,-0.027777777777777776],[0.053125,-0.027777777777777776],[0.053125,-0.027777777777777776],[0.053125,-0.027777777777777776],[0.053125,-0.027777777777777776],[0.053125,-0.027777777777777776],[0.053125,-0.027777777777777776],[0.053125,-0.027777777777777776],[0.053125,-0.027777777777777776],[0.053125,-0.027777777777777776],[0.053125,-0.027777777777777776],[0.053125,-0.027777777777777776],[0.053125,-0.027777777777777776],[0.053125,-0.027777777777777776],[0.053125,-0.027777777777777776],[0.053125,-0.027777777777777776],[0.053125,-0.027777777777777776],[0.053125,-0.027777777777777776],[0.053125,-0.027777777777777776],[0.053125,-0.027777777777777776],[0.053125,-0.027777777777777776],[0.053125,-0.027777777777777776],[0.053125,-0.027777777777777776],[0.053125,-0.027777777777777776],[0.053125,-0.027777777777777776],[0.053125,-0.027777777777777776],[0.053125,-0.027777777777777776],[0.053125,-0.027777777777777776],[0.053125,-0.027777777777777776],[0.053125,-0.027777777777777776],[0.053125,-0.027777777777777776],[0.053125,-0.027777777777777776],[0.053125,-0.027777777777777776],[0.053125,-0.027777777777777776],[0.053125,-0.027777777777777776],[0.053125,-0.027777777777777776],[0.053125,-0.027777777777777776],[0.053125,-0.027777777777777776],[0.053125,-0.027777777777777776],[0.053125,-0.027777777777777776],[0.053125,-0.027777777777777776],[0.053125,-0.027777777777777776],[0.053125,-0.027777777777777776],[0.053125,-0.027777777777777776],[0.053125,-0.027777777777777776],[0.053125,-0.027777777777777776],[0.053125,-0.027777777777777776],[0.053125,-0.027777777777777776],[0.053125,-0.027777777777777776],[0.053125,-0.027777777777777776],[0.053125,-0.027777777777777776],[0.053125,-0.027777777777777776],[0.053125,-0.027777777777777776],[0.053125,-0.027777777777777776],[0.053125,-0.027777777777777776],[0.053125,-0.027777777777777776],[0.053125,-0.027777777777777776],[0.053125,-0.027777777777777776],[0.053125,-0.027777777777777776],[0.053125,-0.027777777777777776],[0.053125,-0.027777777777777776],[0.053125,-0.027777777777777776],[0.053125,-0.027777777777777776],[0.053125,-0.027777777777777776],[0.053125,-0.027777777777777776],[0.053125,-0.027777777777777776],[0.053125,-0.027777777777777776],[0.053125,-0.027777777777777776],[0.053125,-0.027777777777777776],[0.053125,-0.027777777777777776],[0.053125,-0.027777777777777776],[0.053125,-0.027777777777777776],[0.053125,-0.027777777777777776],[0.053125,-0.027777777777777776],[0.053125,-0.027777777777777776],[0.053125,-0.027777777777777776],[0.053125,-0.027777777777777776],[0.053125,-0.027777777777777776],[0.053125,-0.027777777777777776],[0.053125,-0.027777777777777776],[0.053125,-0.027777777777777776],[0.053125,-0.027777777777777776],[0.053125,-0.027777777777777776],[0.053125,-0.027777777777777776],[0.053125,-0.027777777777777776],[0.053125,-0.02962962962962963],[0.053125,-0.04259259259259259],[0.053125,-0.06111111111111111],[0.053125,-0.09444444444444444],[0.053125,-0.13518518518518519],[0.053125,-0.15925925925925927],[0.052083333333333336,-0.17407407407407408],[0.051041666666666666,-0.19074074074074074],[0.046875,-0.2074074074074074],[0.04583333333333333,-0.2222222222222222],[0.04375,-0.2351851851851852],[0.041666666666666664,-0.2537037037037037],[0.0375,-0.2759259259259259],[0.03229166666666667,-0.3037037037037037],[0.028125,-0.3333333333333333],[0.025,-0.35555555555555557],[0.021875,-0.37962962962962965],[0.020833333333333332,-0.3907407407407407],[0.020833333333333332,-0.4],[0.020833333333333332,-0.40370370370370373],[0.01875,-0.4074074074074074],[0.01875,-0.4111111111111111],[0.01875,-0.412962962962963],[0.01875,-0.4148148148148148],[0.01875,-0.4148148148148148],[0.01875,-0.4148148148148148],[0.01875,-0.4148148148148148],[0.01875,-0.4148148148148148],[0.01875,-0.4148148148148148],[0.01875,-0.4148148148148148],[0.01875,-0.4148148148148148],[0.01875,-0.4148148148148148],[0.01875,-0.4148148148148148],[0.017708333333333333,-0.412962962962963],[0.014583333333333334,-0.39444444444444443],[0.011458333333333333,-0.3611111111111111],[0.0020833333333333333,-0.31666666666666665],[-0.004166666666666667,-0.2740740740740741],[-0.010416666666666666,-0.2351851851851852],[-0.0125,-0.20925925925925926],[-0.013541666666666667,-0.1925925925925926],[-0.013541666666666667,-0.18333333333333332],[-0.014583333333333334,-0.17407407407407408],[-0.014583333333333334,-0.1648148148148148],[-0.014583333333333334,-0.1537037037037037],[-0.014583333333333334,-0.1388888888888889],[-0.014583333333333334,-0.1259259259259259],[-0.014583333333333334,-0.11666666666666667],[-0.014583333333333334,-0.1111111111111111],[-0.014583333333333334,-0.0962962962962963],[-0.014583333333333334,-0.08888888888888889],[-0.014583333333333334,-0.07777777777777778],[-0.014583333333333334,-0.07037037037037037],[-0.014583333333333334,-0.06111111111111111],[-0.014583333333333334,-0.05740740740740741],[-0.014583333333333334,-0.05555555555555555],[-0.014583333333333334,-0.05185185185185185],[-0.013541666666666667,-0.05],[-0.013541666666666667,-0.046296296296296294],[-0.013541666666666667,-0.046296296296296294],[-0.013541666666666667,-0.04259259259259259],[-0.0125,-0.040740740740740744],[-0.0125,-0.03888888888888889],[-0.0125,-0.037037037037037035],[-0.011458333333333333,-0.03518518518518519],[-0.011458333333333333,-0.03518518518518519],[-0.011458333333333333,-0.03518518518518519],[-0.011458333333333333,-0.03518518518518519],[-0.011458333333333333,-0.03518518518518519],[-0.011458333333333333,-0.03518518518518519],[-0.011458333333333333,-0.03518518518518519],[-0.011458333333333333,-0.03518518518518519],[-0.011458333333333333,-0.03518518518518519],[-0.011458333333333333,-0.03518518518518519],[-0.011458333333333333,-0.03518518518518519],[-0.011458333333333333,-0.03518518518518519],[-0.011458333333333333,-0.03518518518518519],[-0.011458333333333333,-0.03518518518518519],[-0.011458333333333333,-0.03518518518518519],[-0.011458333333333333,-0.03518518518518519],[-0.011458333333333333,-0.03518518518518519],[-0.011458333333333333,-0.03518518518518519],[-0.011458333333333333,-0.03518518518518519],[-0.011458333333333333,-0.03518518518518519],[-0.011458333333333333,-0.03518518518518519],[-0.011458333333333333,-0.03518518518518519],[-0.011458333333333333,-0.03518518518518519],[-0.011458333333333333,-0.03518518518518519],[-0.011458333333333333,-0.03518518518518519],[-0.011458333333333333,-0.03518518518518519],[-0.011458333333333333,-0.03518518518518519],[-0.011458333333333333,-0.03518518518518519],[-0.011458333333333333,-0.03333333333333333],[-0.011458333333333333,-0.03333333333333333],[-0.011458333333333333,-0.03333333333333333],[-0.011458333333333333,-0.03333333333333333],[-0.011458333333333333,-0.03333333333333333],[-0.011458333333333333,-0.03333333333333333],[-0.011458333333333333,-0.03333333333333333],[-0.011458333333333333,-0.03333333333333333],[-0.011458333333333333,-0.03333333333333333],[-0.011458333333333333,-0.03333333333333333],[-0.011458333333333333,-0.03333333333333333],[-0.011458333333333333,-0.03333333333333333],[-0.011458333333333333,-0.03333333333333333],[-0.011458333333333333,-0.03333333333333333],[-0.011458333333333333,-0.03333333333333333],[-0.011458333333333333,-0.03333333333333333],[-0.011458333333333333,-0.03333333333333333],[-0.011458333333333333,-0.03333333333333333],[-0.011458333333333333,-0.03333333333333333],[-0.011458333333333333,-0.03333333333333333],[-0.011458333333333333,-0.03333333333333333],[-0.011458333333333333,-0.03333333333333333],[-0.011458333333333333,-0.03333333333333333],[-0.011458333333333333,-0.03333333333333333],[-0.011458333333333333,-0.03333333333333333],[-0.011458333333333333,-0.03333333333333333],[-0.011458333333333333,-0.03333333333333333],[-0.011458333333333333,-0.02962962962962963],[-0.010416666666666666,-0.024074074074074074],[-0.010416666666666666,-0.024074074074074074],[-0.010416666666666666,-0.024074074074074074],[-0.010416666666666666,-0.024074074074074074],[-0.010416666666666666,-0.024074074074074074],[-0.010416666666666666,-0.022222222222222223],[-0.010416666666666666,-0.022222222222222223],[-0.010416666666666666,-0.020370370370370372],[-0.009375,-0.016666666666666666],[-0.009375,-0.016666666666666666],[-0.009375,-0.016666666666666666],[-0.008333333333333333,-0.014814814814814815],[-0.008333333333333333,-0.014814814814814815],[-0.007291666666666667,-0.012962962962962963],[-0.007291666666666667,-0.012962962962962963],[-0.007291666666666667,-0.012962962962962963],[-0.007291666666666667,-0.012962962962962963],[-0.007291666666666667,-0.012962962962962963],[-0.007291666666666667,-0.012962962962962963],[-0.007291666666666667,-0.012962962962962963],[-0.007291666666666667,-0.012962962962962963],[-0.007291666666666667,-0.012962962962962963],[-0.007291666666666667,-0.012962962962962963],[-0.007291666666666667,-0.012962962962962963],[-0.007291666666666667,-0.012962962962962963],[-0.007291666666666667,-0.012962962962962963],[-0.007291666666666667,-0.012962962962962963],[-0.007291666666666667,-0.012962962962962963],[-0.007291666666666667,-0.012962962962962963],[-0.007291666666666667,-0.012962962962962963],[-0.007291666666666667,-0.012962962962962963],[-0.007291666666666667,-0.012962962962962963],[-0.007291666666666667,-0.012962962962962963],[-0.007291666666666667,-0.012962962962962963],[-0.007291666666666667,-0.012962962962962963],[-0.007291666666666667,-0.012962962962962963],[-0.007291666666666667,-0.012962962962962963],[-0.007291666666666667,-0.012962962962962963],[-0.007291666666666667,-0.012962962962962963],[-0.007291666666666667,-0.012962962962962963],[-0.007291666666666667,-0.012962962962962963],[-0.007291666666666667,-0.012962962962962963],[-0.007291666666666667,-0.012962962962962963],[-0.007291666666666667,-0.012962962962962963],[-0.007291666666666667,-0.012962962962962963],[-0.007291666666666667,-0.012962962962962963],[-0.007291666666666667,-0.012962962962962963],[-0.007291666666666667,-0.012962962962962963],[-0.007291666666666667,-0.012962962962962963],[-0.007291666666666667,-0.012962962962962963],[-0.007291666666666667,-0.012962962962962963],[-0.007291666666666667,-0.012962962962962963],[-0.007291666666666667,-0.012962962962962963],[-0.007291666666666667,-0.012962962962962963],[-0.007291666666666667,-0.012962962962962963],[-0.007291666666666667,-0.012962962962962963],[-0.007291666666666667,-0.012962962962962963],[-0.007291666666666667,-0.012962962962962963],[0,0.02962962962962963],[0.005208333333333333,0.07222222222222222],[0.005208333333333333,0.1111111111111111],[0.005208333333333333,0.1814814814814815],[0.008333333333333333,0.22777777777777777],[0.009375,0.24814814814814815],[0.0125,0.2796296296296296],[0.013541666666666667,0.29444444444444445],[0.013541666666666667,0.3],[0.013541666666666667,0.3],[0.013541666666666667,0.3],[0.014583333333333334,0.30185185185185187],[0.014583333333333334,0.3037037037037037],[0.014583333333333334,0.3074074074074074],[0.014583333333333334,0.3074074074074074],[0.014583333333333334,0.3074074074074074],[0.014583333333333334,0.3074074074074074],[0.014583333333333334,0.3074074074074074],[0.014583333333333334,0.3074074074074074],[0.014583333333333334,0.3074074074074074],[0.014583333333333334,0.3074074074074074],[0.014583333333333334,0.3074074074074074],[0.014583333333333334,0.3074074074074074],[0.014583333333333334,0.3074074074074074],[0.014583333333333334,0.3074074074074074],[0.014583333333333334,0.3074074074074074],[0.014583333333333334,0.3074074074074074],[0.014583333333333334,0.3074074074074074],[0.014583333333333334,0.3074074074074074],[0.014583333333333334,0.3074074074074074],[0.014583333333333334,0.3074074074074074],[0.014583333333333334,0.3074074074074074],[0.014583333333333334,0.3074074074074074],[0.014583333333333334,0.3074074074074074],[0.014583333333333334,0.3074074074074074],[0.014583333333333334,0.3074074074074074],[0.014583333333333334,0.3074074074074074],[0.014583333333333334,0.3074074074074074],[0.014583333333333334,0.3074074074074074],[0.014583333333333334,0.3074074074074074],[0.014583333333333334,0.3074074074074074],[0.014583333333333334,0.3074074074074074],[0.014583333333333334,0.3074074074074074],[0.014583333333333334,0.3074074074074074],[0.014583333333333334,0.3074074074074074],[0.014583333333333334,0.3074074074074074],[0.014583333333333334,0.3074074074074074],[0.014583333333333334,0.3074074074074074],[0.014583333333333334,0.3074074074074074],[0.014583333333333334,0.3074074074074074],[0.014583333333333334,0.3074074074074074],[0.014583333333333334,0.3074074074074074],[0.014583333333333334,0.3074074074074074],[0.014583333333333334,0.3074074074074074],[0.014583333333333334,0.3074074074074074],[0.014583333333333334,0.3074074074074074],[0.014583333333333334,0.3074074074074074],[0.014583333333333334,0.3074074074074074],[0.014583333333333334,0.3074074074074074],[0.014583333333333334,0.3074074074074074],[0.014583333333333334,0.3074074074074074],[0.014583333333333334,0.3074074074074074],[0.014583333333333334,0.3074074074074074],[0.014583333333333334,0.3074074074074074],[0.014583333333333334,0.3074074074074074],[0.014583333333333334,0.3074074074074074],[0.014583333333333334,0.3074074074074074],[0.014583333333333334,0.3074074074074074],[0.014583333333333334,0.3074074074074074],[0.014583333333333334,0.3074074074074074],[0.014583333333333334,0.3074074074074074],[0.014583333333333334,0.3074074074074074],[0.014583333333333334,0.3074074074074074],[0.014583333333333334,0.3074074074074074],[0.014583333333333334,0.3074074074074074],[0.014583333333333334,0.3074074074074074],[0.014583333333333334,0.3074074074074074],[0.014583333333333334,0.3074074074074074],[0.014583333333333334,0.3074074074074074],[0.014583333333333334,0.3074074074074074],[0.014583333333333334,0.3074074074074074],[0.014583333333333334,0.3074074074074074],[0.014583333333333334,0.3074074074074074]]","[[0.28406250000000005,0.03611111111111111],[0.28406250000000005,0.03611111111111111],[0.29093749999999996,0.020740740740740823],[0.3081249999999999,-0.010740740740740657],[0.3243750000000001,-0.0544444444444444],[0.3546875,-0.05962962962962961],[0.3342708333333334,-0.10703703703703706],[0.32802083333333343,-0.10555555555555556],[0.30364583333333334,-0.12148148148148152],[0.27843749999999995,-0.1455555555555556],[0.23447916666666657,-0.13944444444444445],[0.22583333333333327,-0.16129629629629633],[0.203125,-0.14018518518518516],[0.17260416666666673,-0.12740740740740744],[0.17260416666666673,-0.12740740740740744],[0.14583333333333334,-0.15388888888888894],[0.13624999999999995,-0.17185185185185187],[0.15635416666666657,-0.1853703703703704],[0.1618750000000001,-0.20666666666666672],[0.1658333333333334,-0.2059259259259259],[0.18385416666666668,-0.24444444444444444],[0.20187499999999994,-0.28296296296296297],[0.20520833333333333,-0.2844444444444445],[0.22885416666666672,-0.3229629629629629],[0.23364583333333327,-0.34740740740740744],[0.24864583333333337,-0.3257407407407407],[0.23302083333333337,-0.32518518518518524],[0.21739583333333337,-0.32462962962962966],[0.20187499999999994,-0.3194444444444444],[0.20187499999999994,-0.3194444444444444],[0.1944791666666667,-0.327962962962963],[0.1944791666666667,-0.327962962962963],[0.19854166666666656,-0.2794444444444444],[0.20968749999999994,-0.2455555555555556],[0.20968749999999994,-0.2455555555555556],[0.20614583333333342,-0.23111111111111113],[0.21729166666666658,-0.2338888888888889],[0.21729166666666658,-0.2338888888888889],[0.24729166666666677,-0.2507407407407407],[0.22979166666666656,-0.2690740740740741],[0.22979166666666656,-0.2690740740740741],[0.20906250000000004,-0.27611111111111114],[0.20572916666666666,-0.2735185185185185],[0.2103125000000001,-0.27611111111111114],[0.20604166666666662,-0.305],[0.18427083333333344,-0.35833333333333334],[0.15260416666666668,-0.3905555555555555],[0.121875,-0.42611111111111116],[0.07583333333333328,-0.40777777777777774],[0.029791666666666692,-0.3894444444444445],[0.024479166666666666,-0.377962962962963],[0.03583333333333331,-0.36518518518518517],[0.03260416666666662,-0.3744444444444444],[0.029375000000000047,-0.38370370370370366],[0.04010416666666667,-0.36648148148148146],[0.050833333333333286,-0.3492592592592593],[0.06437499999999995,-0.33851851851851855],[0.08052083333333329,-0.32981481481481484],[0.09729166666666676,-0.35777777777777775],[0.09447916666666671,-0.39037037037037037],[0.08541666666666667,-0.40925925925925927],[0.04562499999999995,-0.4227777777777778],[0.012395833333333309,-0.39351851851851855],[-0.020833333333333332,-0.3642592592592592],[-0.020833333333333332,-0.3642592592592592],[-0.0640625,-0.3303703703703703],[-0.10010416666666669,-0.30462962962962964],[-0.13614583333333338,-0.2788888888888889],[-0.17833333333333337,-0.27444444444444444],[-0.22010416666666663,-0.3001851851851852],[-0.23374999999999999,-0.2948148148148148],[-0.25322916666666667,-0.2814814814814815],[-0.24406249999999996,-0.2559259259259259],[-0.22385416666666663,-0.2537037037037037],[-0.22697916666666665,-0.24351851851851852],[-0.22520833333333337,-0.2381481481481482],[-0.22697916666666665,-0.2542592592592593],[-0.22875000000000004,-0.27037037037037037],[-0.22791666666666663,-0.267037037037037],[-0.22749999999999998,-0.23351851851851857],[-0.23562500000000006,-0.2264814814814815],[-0.2265625,-0.22018518518518515],[-0.21541666666666662,-0.23148148148148148],[-0.22927083333333337,-0.2351851851851852],[-0.21979166666666666,-0.24685185185185188],[-0.22208333333333338,-0.2433333333333333],[-0.22208333333333338,-0.2433333333333333],[-0.24104166666666665,-0.21722222222222223],[-0.24739583333333334,-0.19185185185185188],[-0.25281250000000005,-0.16259259259259262],[-0.2627083333333334,-0.15629629629629627],[-0.2726041666666667,-0.15],[-0.28552083333333333,-0.12740740740740744],[-0.2984375,-0.10481481481481486],[-0.3069791666666667,-0.0940740740740741],[-0.3182291666666667,-0.0933333333333333],[-0.29104166666666664,-0.08222222222222218],[-0.2508333333333333,-0.06407407407407412],[-0.2029166666666666,-0.03888888888888889],[-0.14270833333333333,-0.020370370370370372],[-0.14270833333333333,-0.020370370370370372],[-0.08343750000000003,0.03537037037037041],[-0.02312500000000005,0.06222222222222226],[0.028854166666666715,0.06555555555555552],[0.08083333333333324,0.06888888888888897],[0.13416666666666663,0.0868518518518518],[0.2009375000000001,0.13851851851851843],[0.23822916666666671,0.15111111111111114],[0.2724999999999999,0.14425925925925923],[0.27010416666666665,0.10314814814814824],[0.27197916666666655,0.0816666666666667],[0.2787499999999999,0.03351851851851856],[0.26447916666666677,0.05648148148148148],[0.25239583333333326,0.0977777777777777],[0.2556250000000001,0.1111111111111111],[0.23479166666666676,0.1124074074074075],[0.20979166666666677,0.09092592592592597],[0.18395833333333325,0.08000000000000008],[0.17041666666666658,0.07370370370370362],[0.17395833333333333,0.09370370370370375],[0.15677083333333333,0.12388888888888884],[0.14010416666666667,0.16648148148148145],[0.1423958333333334,0.17537037037037045],[0.13135416666666658,0.16222222222222227],[0.12322916666666663,0.15018518518518523],[0.14562499999999995,0.14740740740740746],[0.13947916666666677,0.1675925925925926],[0.13697916666666668,0.19074074074074074],[0.1252083333333334,0.22870370370370371],[0.15197916666666675,0.2485185185185186],[0.1570833333333333,0.2551851851851851],[0.16531250000000006,0.26796296296296307],[0.17458333333333323,0.2722222222222222],[0.19208333333333344,0.2740740740740741],[0.19208333333333344,0.306111111111111],[0.18447916666666658,0.3235185185185186],[0.1929166666666667,0.3138888888888889],[0.2013541666666666,0.3042592592592592],[0.19802083333333323,0.2881481481481482],[0.1478125000000001,0.2972222222222222],[0.12979166666666658,0.30240740740740735],[0.10864583333333329,0.3014814814814814],[0.058229166666666644,0.2857407407407407],[0.041458333333333285,0.28462962962962973],[-0.0006250000000000236,0.2825925925925926],[-0.02312500000000005,0.2727777777777777],[-0.0203125,0.3081481481481481],[-0.017499999999999953,0.3435185185185185],[-0.03687499999999998,0.331111111111111],[-0.03687499999999998,0.331111111111111],[-0.04635416666666667,0.33425925925925926],[-0.04635416666666667,0.33425925925925926],[-0.08552083333333335,0.3207407407407408],[-0.08552083333333335,0.3207407407407408],[-0.090625,0.3418518518518519],[-0.090625,0.3418518518518519],[-0.07072916666666665,0.36074074074074064],[-0.10114583333333335,0.33796296296296297],[-0.10114583333333335,0.33796296296296297],[-0.10031249999999996,0.35796296296296287],[-0.10031249999999996,0.35796296296296287],[-0.09322916666666667,0.36277777777777775],[-0.10104166666666667,0.3168518518518519],[-0.12354166666666669,0.24444444444444444],[-0.08510416666666672,0.19759259259259268],[-0.07781250000000005,0.1685185185185185],[-0.05281250000000005,0.12166666666666676],[-0.05281250000000005,0.12166666666666676],[-0.05385416666666672,0.0772222222222223],[-0.043020833333333286,0.07314814814814814],[-0.046875,0.105925925925926],[-0.026979166666666644,0.059999999999999956],[-0.06479166666666672,0.059999999999999956],[-0.10708333333333328,0.06870370370370374],[-0.12864583333333332,0.09018518518518527],[-0.17718750000000003,0.14037037037037028],[-0.196875,0.15185185185185185],[-0.23562500000000006,0.1801851851851851],[-0.28239583333333335,0.1714814814814815],[-0.3216666666666666,0.11425925925925934],[-0.31437499999999996,0.069074074074074],[-0.33322916666666663,0.0992592592592593],[-0.2655208333333333,0.06333333333333342],[-0.2078125,0.030740740740740784],[-0.13333333333333333,0.013333333333333417],[-0.07291666666666667,-0.03259259259259263],[-0.00791666666666669,-0.038703703703703664],[0.08177083333333333,-0.03333333333333333],[0.18468749999999995,-0.057777777777777754],[0.2711458333333333,-0.05555555555555555],[0.2711458333333333,-0.05555555555555555],[0.3320833333333333,-0.0668518518518519],[0.38468749999999996,-0.1235185185185185],[0.38260416666666663,-0.13703703703703704],[0.3910416666666668,-0.14518518518518514],[0.3766666666666666,-0.15481481481481485],[0.37447916666666664,-0.12518518518518523],[0.36770833333333336,-0.13537037037037042],[0.3538541666666667,-0.14629629629629629],[0.32541666666666674,-0.12296296296296293],[0.29833333333333345,-0.10111111111111115],[0.2882291666666667,-0.09370370370370375],[0.2787499999999999,-0.08277777777777776],[0.26416666666666655,-0.08129629629629626],[0.24604166666666671,-0.09722222222222222],[0.22791666666666663,-0.11314814814814819],[0.22302083333333325,-0.127962962962963],[0.22302083333333325,-0.127962962962963],[0.2181250000000001,-0.1427777777777778],[0.19812500000000005,-0.1574074074074074],[0.15166666666666656,-0.19166666666666668],[0.10520833333333333,-0.22592592592592592],[0.05770833333333331,-0.2294444444444444],[0.04093749999999995,-0.20092592592592592],[0.020937500000000022,-0.16277777777777774],[0.003958333333333286,-0.11592592592592597],[0.003958333333333286,-0.11592592592592597],[-0.0046875,-0.05648148148148148],[-0.028958333333333287,-0.0653703703703704],[-0.057604166666666616,-0.059999999999999956],[-0.06104166666666669,-0.02444444444444453],[-0.0421875,0.02555555555555547],[-0.02677083333333338,0.04518518518518514],[-0.011666666666666714,0.04129629629629621],[-0.011041666666666691,0.008888888888888804],[-0.004375000000000047,-0.019444444444444445],[0.002291666666666714,-0.0477777777777777],[0.015208333333333357,-0.05962962962962961],[-0.005937500000000048,-0.04296296296296305],[-0.022708333333333285,-0.04055555555555551],[-0.03208333333333328,-0.04277777777777782],[-0.03187500000000002,-0.0448148148148149],[-0.008020833333333382,-0.04018518518518527],[0.013437499999999976,-0.030555555555555555],[-0.013333333333333286,-0.021481481481481525],[-0.028854166666666715,-0.005555555555555556],[-0.04729166666666664,0.027037037037037078],[-0.06739583333333338,0.010925925925925884],[-0.051250000000000046,0.044999999999999915],[-0.035104166666666714,0.07907407407407416],[-0.05302083333333331,0.04425925925925922],[-0.075,0.009999999999999959],[-0.11145833333333334,0.012222222222222264],[-0.14791666666666667,0.01444444444444436],[-0.140625,0.008148148148148106],[-0.14229166666666668,-0.009259259259259259],[-0.13218749999999999,-0.032037037037036954],[-0.15354166666666663,-0.027037037037037078],[-0.17281249999999998,-0.04425925925925922],[-0.17906249999999999,-0.0507407407407407],[-0.1616666666666667,-0.013333333333333417],[-0.16395833333333332,0.007777777777777862],[-0.16343749999999999,0.019444444444444445],[-0.16291666666666665,0.031111111111111027],[-0.1486458333333334,0.05129629629629638],[-0.13229166666666667,0.06537037037037029],[-0.09500000000000004,0.07166666666666675],[-0.03916666666666669,0.0698148148148149],[0.018124999999999978,0.0507407407407407],[0.06239583333333331,0.02092592592592584],[0.09989583333333343,-0.0455555555555556],[0.16958333333333328,-0.07629629629629628],[0.22729166666666673,-0.05],[0.28250000000000003,-0.03851851851851843],[0.3003124999999999,-0.0035185185185184764],[0.30499999999999994,0.0011111111111111532],[0.2894791666666668,-0.04870370370370362],[0.27395833333333336,-0.09851851851851849],[0.25885416666666666,-0.11074074074074076],[0.25885416666666666,-0.11074074074074076],[0.24375,-0.12296296296296293],[0.24375,-0.12296296296296293],[0.21989583333333323,-0.08703703703703704],[0.21989583333333323,-0.08703703703703704],[0.18291666666666656,-0.009444444444444486],[0.18291666666666656,-0.009444444444444486],[0.15125000000000005,0.02092592592592584],[0.1196875000000001,0.04537037037037037],[0.1196875000000001,0.04537037037037037],[0.09343750000000005,0.011296296296296339],[0.09343750000000005,0.011296296296296339],[0.09562499999999995,-0.009444444444444486],[0.07781250000000005,0.020370370370370372],[0.05302083333333331,0.03925925925925934],[0.024270833333333287,0.0477777777777777],[-0.004479166666666619,0.056296296296296254],[-0.00010416666666669035,0.027222222222222307],[-0.0037500000000000237,-0.02388888888888885],[-0.002916666666666619,-0.11666666666666667],[-0.010312499999999976,-0.18592592592592588],[-0.011562500000000024,-0.1983333333333334],[-0.019375000000000024,-0.19888888888888884],[-0.033645833333333285,-0.1853703703703704],[-0.04093749999999995,-0.1609259259259259],[-0.025312499999999953,-0.1948148148148148],[-0.009687499999999953,-0.22870370370370371],[-0.011666666666666714,-0.23648148148148146],[-0.0032291666666666905,-0.2337037037037037],[-0.008124999999999953,-0.2322222222222222],[-0.00635416666666669,-0.23962962962962958],[-0.0010416666666666667,-0.2646296296296296],[0.005520833333333286,-0.2807407407407408],[0.01072916666666662,-0.3066666666666667],[0.021145833333333287,-0.3235185185185185],[0.0203125,-0.322037037037037],[0.0010416666666666667,-0.29685185185185187],[0.00791666666666669,-0.29870370370370375],[0.013020833333333334,-0.3501851851851852],[0.027291666666666714,-0.35999999999999993],[0.035625000000000046,-0.36018518518518516],[0.035625000000000046,-0.36018518518518516],[0.036249999999999956,-0.35555555555555557],[0.019687499999999976,-0.35],[0.015416666666666618,-0.35111111111111115],[0.005624999999999976,-0.3688888888888889],[-0.013750000000000047,-0.3566666666666667],[-0.0016666666666666904,-0.3638888888888889],[-0.009687499999999953,-0.36203703703703705],[-0.034166666666666616,-0.30833333333333335],[-0.06083333333333331,-0.26648148148148143],[-0.07760416666666667,-0.22814814814814813],[-0.08322916666666665,-0.21574074074074073],[-0.0625,-0.24148148148148144],[-0.03583333333333331,-0.2644444444444445],[-0.020624999999999952,-0.2553703703703703],[-0.005416666666666714,-0.2462962962962963],[0.0002083333333333807,-0.23074074074074077],[-0.0002083333333333807,-0.19722222222222222],[0.04385416666666669,-0.24129629629629631],[0.07989583333333337,-0.2572222222222222],[0.11520833333333323,-0.2946296296296297],[0.14708333333333337,-0.29203703703703704],[0.1408333333333334,-0.23537037037037042],[0.11916666666666677,-0.18555555555555553],[0.10656249999999995,-0.14018518518518516],[0.09395833333333338,-0.0948148148148148],[0.06520833333333335,-0.08148148148148149],[0.036458333333333336,-0.06814814814814817],[-0.0034374999999999527,-0.03722222222222227],[-0.035312499999999976,-0.034444444444444486],[-0.06312500000000003,0.00851851851851856],[-0.0967708333333333,0.01185185185185181],[-0.10416666666666667,0.01777777777777782],[-0.09614583333333329,0.030555555555555555],[-0.08541666666666667,0.023333333333333376],[-0.07864583333333333,0.016111111111111194],[-0.07864583333333333,0.016111111111111194],[-0.05260416666666667,0.019259259259259216],[-0.014687500000000023,0.010925925925925884],[0.00635416666666669,0.010740740740740657],[0.014374999999999952,-0.0001851851851852273],[0.01906249999999995,-0.029814814814814856],[0.021249999999999977,-0.0485185185185186],[0.0140625,-0.08425925925925926],[0.007500000000000047,-0.14055555555555552],[0.0010416666666666667,-0.16444444444444448],[0.009895833333333333,-0.17740740740740743],[0.012187500000000047,-0.1794444444444444],[0.012187500000000047,-0.1794444444444444],[0.018020833333333285,-0.1646296296296296],[0.002395833333333286,-0.2161111111111111],[-0.0002083333333333807,-0.25685185185185183],[0.0009374999999999763,-0.22185185185185188],[0.01072916666666662,-0.18425925925925926],[0.022291666666666644,-0.13037037037037033],[0.03822916666666672,-0.01777777777777782],[0.05604166666666662,-0.005555555555555556],[0.0625,-0.004259259259259175],[0.06895833333333339,-0.002962962962963005]]","[[0.28406250000000005,0.03611111111111111,0.00030000000447216735],[0.28406250000000005,0.03611111111111111,0.03790000000596194],[0.29093749999999996,0.020740740740740823,0.04810000000149017],[0.3081249999999999,-0.010740740740740657,0.06200000000000472],[0.3243750000000001,-0.0544444444444444,0.07850000000000534],[0.3546875,-0.05962962962962961,0.09510000000149432],[0.3342708333333334,-0.10703703703703706,0.11200000000000188],[0.32802083333333343,-0.10555555555555556,0.1285000000000025],[0.30364583333333334,-0.12148148148148152,0.14520000000297983],[0.27843749999999995,-0.1455555555555556,0.16180000000447592],[0.23447916666666657,-0.13944444444444445,0.17849999999999966],[0.22583333333333327,-0.16129629629629633,0.1952000000029841],[0.203125,-0.14018518518518516,0.21190000000596143],[0.17260416666666673,-0.12740740740740744,0.22850000000000392],[0.17260416666666673,-0.12740740740740744,0.24520000000298126],[0.14583333333333334,-0.15388888888888894,0.2619000000059657],[0.13624999999999995,-0.17185185185185187,0.27860000000148943],[0.15635416666666657,-0.1853703703703704,0.2952000000029855],[0.1618750000000001,-0.20666666666666672,0.3118000000044745],[0.1658333333333334,-0.2059259259259259,0.32850000000000534],[0.18385416666666668,-0.24444444444444444,0.3452000000029827],[0.20187499999999994,-0.28296296296296297,0.36180000000447166],[0.20520833333333333,-0.2844444444444445,0.3785000000000025],[0.22885416666666672,-0.3229629629629629,0.39520000000297983],[0.23364583333333327,-0.34740740740740744,0.4118000000044759],[0.24864583333333337,-0.3257407407407407,0.42849999999999966],[0.23302083333333337,-0.32518518518518524,0.4452000000029841],[0.21739583333333337,-0.32462962962962966,0.46190000000596143],[0.20187499999999994,-0.3194444444444444,0.4785000000000039],[0.20187499999999994,-0.3194444444444444,0.49520000000298126],[0.1944791666666667,-0.327962962962963,0.5118000000044702],[0.1944791666666667,-0.327962962962963,0.5285000000000011],[0.19854166666666656,-0.2794444444444444,0.5452000000029855],[0.20968749999999994,-0.2455555555555556,0.5659000000059606],[0.20968749999999994,-0.2455555555555556,0.5785000000000053],[0.20614583333333342,-0.23111111111111113,0.5952000000029827],[0.21729166666666658,-0.2338888888888889,0.6178000000044719],[0.21729166666666658,-0.2338888888888889,0.6287000000029863],[0.24729166666666677,-0.2507407407407407,0.6452000000029798],[0.22979166666666656,-0.2690740740740741,0.667500000000004],[0.22979166666666656,-0.2690740740740741,0.6784999999999997],[0.20906250000000004,-0.27611111111111114,0.6952000000029841],[0.20572916666666666,-0.2735185185185185,0.7124000000059638],[0.2103125000000001,-0.27611111111111114,0.7285000000000039],[0.20604166666666662,-0.305,0.7483000000044697],[0.18427083333333344,-0.35833333333333334,0.7621000000014959],[0.15260416666666668,-0.3905555555555555,0.7784000000059663],[0.121875,-0.42611111111111116,0.7952000000029855],[0.07583333333333328,-0.40777777777777774,0.8118000000044745],[0.029791666666666692,-0.3894444444444445,0.8285000000000053],[0.024479166666666666,-0.377962962962963,0.8452000000029827],[0.03583333333333331,-0.36518518518518517,0.8617000000029833],[0.03260416666666662,-0.3744444444444444,0.8785000000000025],[0.029375000000000047,-0.38370370370370366,0.8952000000029798],[0.04010416666666667,-0.36648148148148146,0.913300000004476],[0.050833333333333286,-0.3492592592592593,0.9284999999999997],[0.06437499999999995,-0.33851851851851855,0.9451000000014957],[0.08052083333333329,-0.32981481481481484,0.9618000000044731],[0.09729166666666676,-0.35777777777777775,0.9788000000044761],[0.09447916666666671,-0.39037037037037037,0.9952000000029813],[0.08541666666666667,-0.40925925925925927,1.0118000000044702],[0.04562499999999995,-0.4227777777777778,1.028500000000001],[0.012395833333333309,-0.39351851851851855,1.0452000000029855],[-0.020833333333333332,-0.3642592592592592,1.0627000000029838],[-0.020833333333333332,-0.3642592592592592,1.0786000000014937],[-0.0640625,-0.3303703703703703,1.0952000000029827],[-0.10010416666666669,-0.30462962962962964,1.1133000000044717],[-0.13614583333333338,-0.2788888888888889,1.1285000000000025],[-0.17833333333333337,-0.27444444444444444,1.1458000000044706],[-0.22010416666666663,-0.3001851851851852,1.161800000004476],[-0.23374999999999999,-0.2948148148148148,1.1784999999999997],[-0.25322916666666667,-0.2814814814814815,1.195200000002984],[-0.24406249999999996,-0.2559259259259259,1.211800000004473],[-0.22385416666666663,-0.2537037037037037,1.228500000000004],[-0.22697916666666665,-0.24351851851851852,1.2452000000029813],[-0.22520833333333337,-0.2381481481481482,1.2618000000044702],[-0.22697916666666665,-0.2542592592592593,1.278700000002985],[-0.22875000000000004,-0.27037037037037037,1.2989999999999995],[-0.22791666666666663,-0.267037037037037,1.3143000000044722],[-0.22749999999999998,-0.23351851851851857,1.3284000000059635],[-0.23562500000000006,-0.2264814814814815,1.3452000000029827],[-0.2265625,-0.22018518518518515,1.3618000000044717],[-0.21541666666666662,-0.23148148148148148,1.3810000000000002],[-0.22927083333333337,-0.2351851851851852,1.3951000000014915],[-0.21979166666666666,-0.24685185185185188,1.411800000004476],[-0.22208333333333338,-0.2433333333333333,1.432200000002986],[-0.22208333333333338,-0.2433333333333333,1.4470000000000027],[-0.24104166666666665,-0.21722222222222223,1.461800000004473],[-0.24739583333333334,-0.19185185185185188,1.478800000004476],[-0.25281250000000005,-0.16259259259259262,1.4952000000029813],[-0.2627083333333334,-0.15629629629629627,1.5118000000044702],[-0.2726041666666667,-0.15,1.528500000000001],[-0.28552083333333333,-0.12740740740740744,1.5452000000029855],[-0.2984375,-0.10481481481481486,1.5618000000044745],[-0.3069791666666667,-0.0940740740740741,1.5812000000029798],[-0.3182291666666667,-0.0933333333333333,1.5952000000029827],[-0.29104166666666664,-0.08222222222222218,1.6118000000044717],[-0.2508333333333333,-0.06407407407407412,1.6285000000000025],[-0.2029166666666666,-0.03888888888888889,1.6454000000059636],[-0.14270833333333333,-0.020370370370370372,1.6620000000000061],[-0.14270833333333333,-0.020370370370370372,1.6784999999999997],[-0.08343750000000003,0.03537037037037041,1.695200000002984],[-0.02312500000000005,0.06222222222222226,1.7119000000059614],[0.028854166666666715,0.06555555555555552,1.728500000000004],[0.08083333333333324,0.06888888888888897,1.7452000000029813],[0.13416666666666663,0.0868518518518518,1.7618000000044702],[0.2009375000000001,0.13851851851851843,1.778500000000001],[0.23822916666666671,0.15111111111111114,1.79510000000149],[0.2724999999999999,0.14425925925925923,1.8145000000000024],[0.27010416666666665,0.10314814814814824,1.8288000000044704],[0.27197916666666655,0.0816666666666667,1.845300000004471],[0.2787499999999999,0.03351851851851856,1.8656000000014927],[0.26447916666666677,0.05648148148148148,1.881200000002984],[0.25239583333333326,0.0977777777777777,1.8953000000044753],[0.2556250000000001,0.1111111111111111,1.9141000000014898],[0.23479166666666676,0.1124074074074075,1.9286000000014951],[0.20979166666666677,0.09092592592592597,1.9453000000044725],[0.18395833333333325,0.08000000000000008,1.9650000000000034],[0.17041666666666658,0.07370370370370362,1.9810000000000016],[0.17395833333333333,0.09370370370370375,1.9953000000044696],[0.15677083333333333,0.12388888888888884,2.0119000000059657],[0.14010416666666667,0.16648148148148145,2.0320000000000036],[0.1423958333333334,0.17537037037037045,2.0456000000014924],[0.13135416666666658,0.16222222222222227,2.0620000000000047],[0.12322916666666663,0.15018518518518523,2.083500000000001],[0.14562499999999995,0.14740740740740746,2.097800000004476],[0.13947916666666677,0.1675925925925926,2.1124000000059624],[0.13697916666666668,0.19074074074074074,2.128600000001491],[0.1252083333333334,0.22870370370370371,2.1477000000029847],[0.15197916666666675,0.2485185185185186,2.1619000000059643],[0.1570833333333333,0.2551851851851851,2.180100000001495],[0.16531250000000006,0.26796296296296307,2.195200000002984],[0.17458333333333323,0.2722222222222222,2.211800000004473],[0.19208333333333344,0.2740740740740741,2.228500000000004],[0.19208333333333344,0.306111111111111,2.2452000000029813],[0.18447916666666658,0.3235185185185186,2.2618000000044702],[0.1929166666666667,0.3138888888888889,2.2803000000044733],[0.2013541666666666,0.3042592592592592,2.29510000000149],[0.19802083333333323,0.2881481481481482,2.311700000002986],[0.1478125000000001,0.2972222222222222,2.3284000000059635],[0.12979166666666658,0.30240740740740735,2.3454000000059665],[0.10864583333333329,0.3014814814814814,2.3647000000029834],[0.058229166666666644,0.2857407407407407,2.37930000000447],[0.041458333333333285,0.28462962962962973,2.3953000000044753],[-0.0006250000000000236,0.2825925925925926,2.4119000000059643],[-0.02312500000000005,0.2727777777777777,2.431400000005965],[-0.0203125,0.3081481481481481,2.446900000005961],[-0.017499999999999953,0.3435185185185185,2.4619000000059614],[-0.03687499999999998,0.331111111111111,2.483600000001495],[-0.03687499999999998,0.331111111111111,2.4952000000029813],[-0.04635416666666667,0.33425925925925926,2.5119000000059657],[-0.04635416666666667,0.33425925925925926,2.528700000002985],[-0.08552083333333335,0.3207407407407408,2.5507000000029834],[-0.08552083333333335,0.3207407407407408,2.5620000000000047],[-0.090625,0.3418518518518519,2.5788000000044704],[-0.090625,0.3418518518518519,2.602300000004476],[-0.07072916666666665,0.36074074074074064,2.612000000000002],[-0.10114583333333335,0.33796296296296297,2.6351000000014935],[-0.10114583333333335,0.33796296296296297,2.6453000000044753],[-0.10031249999999996,0.35796296296296287,2.6666000000014947],[-0.10031249999999996,0.35796296296296287,2.6787000000029835],[-0.09322916666666667,0.36277777777777775,2.6953000000044725],[-0.10104166666666667,0.3168518518518519,2.71520000000298],[-0.12354166666666669,0.24444444444444444,2.7289000000059644],[-0.08510416666666672,0.19759259259259268,2.745400000005965],[-0.07781250000000005,0.1685185185185185,2.7620000000000005],[-0.05281250000000005,0.12166666666666676,2.7823000000044757],[-0.05281250000000005,0.12166666666666676,2.79510000000149],[-0.05385416666666672,0.0772222222222223,2.812100000001493],[-0.043020833333333286,0.07314814814814814,2.8286000000014937],[-0.046875,0.105925925925926,2.847900000005964],[-0.026979166666666644,0.059999999999999956,2.862300000004474],[-0.06479166666666672,0.059999999999999956,2.8803000000044747],[-0.10708333333333328,0.06870370370370374,2.89520000000298],[-0.12864583333333332,0.09018518518518527,2.911800000004476],[-0.17718750000000003,0.14037037037037028,2.928400000005965],[-0.196875,0.15185185185185185,2.9451000000014957],[-0.23562500000000006,0.1801851851851851,2.9617000000029847],[-0.28239583333333335,0.1714814814814815,2.978400000005962],[-0.3216666666666666,0.11425925925925934,2.995100000001493],[-0.31437499999999996,0.069074074074074,3.011700000002982],[-0.33322916666666663,0.0992592592592593,3.0284000000059663],[-0.2655208333333333,0.06333333333333342,3.04510000000149],[-0.2078125,0.030740740740740784,3.0618000000044745],[-0.13333333333333333,0.013333333333333417,3.0812000000029798],[-0.07291666666666667,-0.03259259259259263,3.0951000000014943],[-0.00791666666666669,-0.038703703703703664,3.1118000000044717],[0.08177083333333333,-0.03333333333333333,3.1284000000059606],[0.18468749999999995,-0.057777777777777754,3.14670000000298],[0.2711458333333333,-0.05555555555555555,3.161800000004476],[0.2711458333333333,-0.05555555555555555,3.1784999999999997],[0.3320833333333333,-0.0668518518518519,3.1951000000014957],[0.38468749999999996,-0.1235185185185185,3.2119000000059614],[0.38260416666666663,-0.13703703703703704,3.228500000000004],[0.3910416666666668,-0.14518518518518514,3.2452000000029813],[0.3766666666666666,-0.15481481481481485,3.2618000000044702],[0.37447916666666664,-0.12518518518518523,3.2807000000029802],[0.36770833333333336,-0.13537037037037042,3.29510000000149],[0.3538541666666667,-0.14629629629629629,3.3124000000059652],[0.32541666666666674,-0.12296296296296293,3.3285000000000053],[0.29833333333333345,-0.10111111111111115,3.3481000000014944],[0.2882291666666667,-0.09370370370370375,3.3617000000029833],[0.2787499999999999,-0.08277777777777776,3.3784000000059606],[0.26416666666666655,-0.08129629629629626,3.3951000000014915],[0.24604166666666671,-0.09722222222222222,3.4119000000059643],[0.22791666666666663,-0.11314814814814819,3.4284999999999997],[0.22302083333333325,-0.127962962962963,3.4491000000014935],[0.22302083333333325,-0.127962962962963,3.4642000000029824],[0.2181250000000001,-0.1427777777777778,3.478500000000004],[0.19812500000000005,-0.1574074074074074,3.495100000001493],[0.15166666666666656,-0.19166666666666668,3.511700000002982],[0.10520833333333333,-0.22592592592592592,3.528500000000001],[0.05770833333333331,-0.2294444444444444,3.54510000000149],[0.04093749999999995,-0.20092592592592592,3.5618000000044745],[0.020937500000000022,-0.16277777777777774,3.5784000000059635],[0.003958333333333286,-0.11592592592592597,3.5952000000029827],[0.003958333333333286,-0.11592592592592597,3.6118000000044717],[-0.0046875,-0.05648148148148148,3.6284000000059606],[-0.028958333333333287,-0.0653703703703704,3.6451000000014915],[-0.057604166666666616,-0.059999999999999956,3.6617000000029805],[-0.06104166666666669,-0.02444444444444453,3.678800000004472],[-0.0421875,0.02555555555555547,3.6951000000014957],[-0.02677083333333338,0.04518518518518514,3.711800000004473],[-0.011666666666666714,0.04129629629629621,3.728500000000004],[-0.011041666666666691,0.008888888888888804,3.745100000001493],[-0.004375000000000047,-0.019444444444444445,3.7619000000059657],[0.002291666666666714,-0.0477777777777777,3.7784000000059663],[0.015208333333333357,-0.05962962962962961,3.7982000000029856],[-0.005937500000000048,-0.04296296296296305,3.811900000005963],[-0.022708333333333285,-0.04055555555555551,3.829300000004473],[-0.03208333333333328,-0.04277777777777782,3.8452000000029827],[-0.03187500000000002,-0.0448148148148149,3.8617000000029833],[-0.008020833333333382,-0.04018518518518527,3.8800000000000026],[0.013437499999999976,-0.030555555555555555,3.8977000000029847],[-0.013333333333333286,-0.021481481481481525,3.911800000004476],[-0.028854166666666715,-0.005555555555555556,3.9287000000029835],[-0.04729166666666664,0.027037037037037078,3.948500000000003],[-0.06739583333333338,0.010925925925925884,3.9621000000014917],[-0.051250000000000046,0.044999999999999915,3.978500000000004],[-0.035104166666666714,0.07907407407407416,3.9976000000014906],[-0.05302083333333331,0.04425925925925922,4.012200000002984],[-0.075,0.009999999999999959,4.028600000001489],[-0.11145833333333334,0.012222222222222264,4.04510000000149],[-0.14791666666666667,0.01444444444444436,4.0618000000044745],[-0.140625,0.008148148148148106,4.0784000000059635],[-0.14229166666666668,-0.009259259259259259,4.095100000001494],[-0.13218749999999999,-0.032037037037036954,4.111800000004472],[-0.15354166666666663,-0.027037037037037078,4.128400000005961],[-0.17281249999999998,-0.04425925925925922,4.1451000000014915],[-0.17906249999999999,-0.0507407407407407,4.161800000004476],[-0.1616666666666667,-0.013333333333333417,4.178800000004472],[-0.16395833333333332,0.007777777777777862,4.195100000001496],[-0.16343749999999999,0.019444444444444445,4.211700000002985],[-0.16291666666666665,0.031111111111111027,4.228600000001492],[-0.1486458333333334,0.05129629629629638,4.246600000001493],[-0.13229166666666667,0.06537037037037029,4.26180000000447],[-0.09500000000000004,0.07166666666666675,4.278500000000001],[-0.03916666666666669,0.0698148148148149,4.29510000000149],[0.018124999999999978,0.0507407407407407,4.311700000002986],[0.06239583333333331,0.02092592592592584,4.3284000000059635],[0.09989583333333343,-0.0455555555555556,4.345100000001494],[0.16958333333333328,-0.07629629629629628,4.361800000004472],[0.22729166666666673,-0.05,4.3785000000000025],[0.28250000000000003,-0.03851851851851843,4.395000000000003],[0.3003124999999999,-0.0035185185185184764,4.411800000004476],[0.30499999999999994,0.0011111111111111532,4.428400000005965],[0.2894791666666668,-0.04870370370370362,4.445100000001496],[0.27395833333333336,-0.09851851851851849,4.461800000004473],[0.25885416666666666,-0.11074074074074076,4.478500000000004],[0.25885416666666666,-0.11074074074074076,4.495200000002981],[0.24375,-0.12296296296296293,4.51180000000447],[0.24375,-0.12296296296296293,4.528500000000001],[0.21989583333333323,-0.08703703703703704,4.54510000000149],[0.21989583333333323,-0.08703703703703704,4.561700000002986],[0.18291666666666656,-0.009444444444444486,4.578500000000005],[0.18291666666666656,-0.009444444444444486,4.595100000001494],[0.15125000000000005,0.02092592592592584,4.611800000004472],[0.1196875000000001,0.04537037037037037,4.634],[0.1196875000000001,0.04537037037037037,4.6451000000014915],[0.09343750000000005,0.011296296296296339,4.661800000004476],[0.09343750000000005,0.011296296296296339,4.678400000005965],[0.09562499999999995,-0.009444444444444486,4.695200000002984],[0.07781250000000005,0.020370370370370372,4.711800000004473],[0.05302083333333331,0.03925925925925934,4.728500000000004],[0.024270833333333287,0.0477777777777777,4.745100000001493],[-0.004479166666666619,0.056296296296296254,4.761700000002982],[-0.00010416666666669035,0.027222222222222307,4.781700000002985],[-0.0037500000000000237,-0.02388888888888885,4.795300000004474],[-0.002916666666666619,-0.11666666666666667,4.811900000005963],[-0.010312499999999976,-0.18592592592592588,4.834300000004475],[-0.011562500000000024,-0.1983333333333334,4.848100000001494],[-0.019375000000000024,-0.19888888888888884,4.862300000004474],[-0.033645833333333285,-0.1853703703703704,4.878900000005963],[-0.04093749999999995,-0.1609259259259259,4.899900000005964],[-0.025312499999999953,-0.1948148148148148,4.914800000004476],[-0.009687499999999953,-0.22870370370370371,4.9287000000029835],[-0.011666666666666714,-0.23648148148148146,4.945100000001496],[-0.0032291666666666905,-0.2337037037037037,4.964400000005966],[-0.008124999999999953,-0.2322222222222222,4.98110000000149],[-0.00635416666666669,-0.23962962962962958,4.995200000002981],[-0.0010416666666666667,-0.2646296296296296,5.011700000002982],[0.005520833333333286,-0.2807407407407408,5.028600000001489],[0.01072916666666662,-0.3066666666666667,5.047499999999999],[0.021145833333333287,-0.3235185185185185,5.0618000000044745],[0.0203125,-0.322037037037037,5.080000000000005],[0.0010416666666666667,-0.29685185185185187,5.0954000000059665],[0.00791666666666669,-0.29870370370370375,5.112200000002986],[0.013020833333333334,-0.3501851851851852,5.1285000000000025],[0.027291666666666714,-0.35999999999999993,5.147800000004473],[0.035625000000000046,-0.36018518518518516,5.169499999999999],[0.035625000000000046,-0.36018518518518516,5.184800000004472],[0.036249999999999956,-0.35555555555555557,5.195100000001496],[0.019687499999999976,-0.35,5.211800000004473],[0.015416666666666618,-0.35111111111111115,5.228500000000004],[0.005624999999999976,-0.3688888888888889,5.245100000001493],[-0.013750000000000047,-0.3566666666666667,5.26180000000447],[-0.0016666666666666904,-0.3638888888888889,5.278600000001489],[-0.009687499999999953,-0.36203703703703705,5.298700000002981],[-0.034166666666666616,-0.30833333333333335,5.314900000005963],[-0.06083333333333331,-0.26648148148148143,5.328600000001494],[-0.07760416666666667,-0.22814814814814813,5.345200000002983],[-0.08322916666666665,-0.21574074074074073,5.36510000000149],[-0.0625,-0.24148148148148144,5.381600000001491],[-0.03583333333333331,-0.2644444444444445,5.39520000000298],[-0.020624999999999952,-0.2553703703703703,5.4117000000029805],[-0.005416666666666714,-0.2462962962962963,5.428600000001495],[0.0002083333333333807,-0.23074074074074077,5.4476000000014935],[-0.0002083333333333807,-0.19722222222222222,5.461700000002985],[0.04385416666666669,-0.24129629629629631,5.478400000005962],[0.07989583333333337,-0.2572222222222222,5.4950000000000045],[0.11520833333333323,-0.2946296296296297,5.511700000002982],[0.14708333333333337,-0.29203703703703704,5.528500000000001],[0.1408333333333334,-0.23537037037037042,5.548700000002981],[0.11916666666666677,-0.18555555555555553,5.561700000002986],[0.10656249999999995,-0.14018518518518516,5.580100000001494],[0.09395833333333338,-0.0948148148148148,5.595100000001494],[0.06520833333333335,-0.08148148148148149,5.614800000004472],[0.036458333333333336,-0.06814814814814817,5.628400000005961],[-0.0034374999999999527,-0.03722222222222227,5.6466000000014915],[-0.035312499999999976,-0.034444444444444486,5.6617000000029805],[-0.06312500000000003,0.00851851851851856,5.67910000000149],[-0.0967708333333333,0.01185185185185181,5.695100000001496],[-0.10416666666666667,0.01777777777777782,5.711800000004473],[-0.09614583333333329,0.030555555555555555,5.728500000000004],[-0.08541666666666667,0.023333333333333376,5.745100000001493],[-0.07864583333333333,0.016111111111111194,5.761700000002982],[-0.07864583333333333,0.016111111111111194,5.778500000000001],[-0.05260416666666667,0.019259259259259216,5.79510000000149],[-0.014687500000000023,0.010925925925925884,5.811700000002986],[0.00635416666666669,0.010740740740740657,5.828500000000005],[0.014374999999999952,-0.0001851851851852273,5.845200000002983],[0.01906249999999995,-0.029814814814814856,5.861800000004472],[0.021249999999999977,-0.0485185185185186,5.881],[0.0140625,-0.08425925925925926,5.8951000000014915],[0.007500000000000047,-0.14055555555555552,5.911800000004476],[0.0010416666666666667,-0.16444444444444448,5.9283000000044765],[0.009895833333333333,-0.17740740740740743,5.945100000001496],[0.012187500000000047,-0.1794444444444444,5.961800000004473],[0.012187500000000047,-0.1794444444444444,5.978500000000004],[0.018020833333333285,-0.1646296296296296,5.995100000001493],[0.002395833333333286,-0.2161111111111111,6.011700000002982],[-0.0002083333333333807,-0.25685185185185183,6.028400000005966],[0.0009374999999999763,-0.22185185185185188,6.04510000000149],[0.01072916666666662,-0.18425925925925926,6.061700000002986],[0.022291666666666644,-0.13037037037037033,6.0799000000059635],[0.03822916666666672,-0.01777777777777782,6.095000000000006],[0.05604166666666662,-0.005555555555555556,6.111700000002983],[0.0625,-0.004259259259259175,6.128400000005961],[0.06895833333333339,-0.002962962962963005,6.1451000000014915]]","[0.00030000000447216735,0.03790000000596194,0.04810000000149017,0.06200000000000472,0.07850000000000534,0.09510000000149432,0.11200000000000188,0.1285000000000025,0.14520000000297983,0.16180000000447592,0.17849999999999966,0.1952000000029841,0.21190000000596143,0.22850000000000392,0.24520000000298126,0.2619000000059657,0.27860000000148943,0.2952000000029855,0.3118000000044745,0.32850000000000534,0.3452000000029827,0.36180000000447166,0.3785000000000025,0.39520000000297983,0.4118000000044759,0.42849999999999966,0.4452000000029841,0.46190000000596143,0.4785000000000039,0.49520000000298126,0.5118000000044702,0.5285000000000011,0.5452000000029855,0.5659000000059606,0.5785000000000053,0.5952000000029827,0.6178000000044719,0.6287000000029863,0.6452000000029798,0.667500000000004,0.6784999999999997,0.6952000000029841,0.7124000000059638,0.7285000000000039,0.7483000000044697,0.7621000000014959,0.7784000000059663,0.7952000000029855,0.8118000000044745,0.8285000000000053,0.8452000000029827,0.8617000000029833,0.8785000000000025,0.8952000000029798,0.913300000004476,0.9284999999999997,0.9451000000014957,0.9618000000044731,0.9788000000044761,0.9952000000029813,1.0118000000044702,1.028500000000001,1.0452000000029855,1.0627000000029838,1.0786000000014937,1.0952000000029827,1.1133000000044717,1.1285000000000025,1.1458000000044706,1.161800000004476,1.1784999999999997,1.195200000002984,1.211800000004473,1.228500000000004,1.2452000000029813,1.2618000000044702,1.278700000002985,1.2989999999999995,1.3143000000044722,1.3284000000059635,1.3452000000029827,1.3618000000044717,1.3810000000000002,1.3951000000014915,1.411800000004476,1.432200000002986,1.4470000000000027,1.461800000004473,1.478800000004476,1.4952000000029813,1.5118000000044702,1.528500000000001,1.5452000000029855,1.5618000000044745,1.5812000000029798,1.5952000000029827,1.6118000000044717,1.6285000000000025,1.6454000000059636,1.6620000000000061,1.6784999999999997,1.695200000002984,1.7119000000059614,1.728500000000004,1.7452000000029813,1.7618000000044702,1.778500000000001,1.79510000000149,1.8145000000000024,1.8288000000044704,1.845300000004471,1.8656000000014927,1.881200000002984,1.8953000000044753,1.9141000000014898,1.9286000000014951,1.9453000000044725,1.9650000000000034,1.9810000000000016,1.9953000000044696,2.0119000000059657,2.0320000000000036,2.0456000000014924,2.0620000000000047,2.083500000000001,2.097800000004476,2.1124000000059624,2.128600000001491,2.1477000000029847,2.1619000000059643,2.180100000001495,2.195200000002984,2.211800000004473,2.228500000000004,2.2452000000029813,2.2618000000044702,2.2803000000044733,2.29510000000149,2.311700000002986,2.3284000000059635,2.3454000000059665,2.3647000000029834,2.37930000000447,2.3953000000044753,2.4119000000059643,2.431400000005965,2.446900000005961,2.4619000000059614,2.483600000001495,2.4952000000029813,2.5119000000059657,2.528700000002985,2.5507000000029834,2.5620000000000047,2.5788000000044704,2.602300000004476,2.612000000000002,2.6351000000014935,2.6453000000044753,2.6666000000014947,2.6787000000029835,2.6953000000044725,2.71520000000298,2.7289000000059644,2.745400000005965,2.7620000000000005,2.7823000000044757,2.79510000000149,2.812100000001493,2.8286000000014937,2.847900000005964,2.862300000004474,2.8803000000044747,2.89520000000298,2.911800000004476,2.928400000005965,2.9451000000014957,2.9617000000029847,2.978400000005962,2.995100000001493,3.011700000002982,3.0284000000059663,3.04510000000149,3.0618000000044745,3.0812000000029798,3.0951000000014943,3.1118000000044717,3.1284000000059606,3.14670000000298,3.161800000004476,3.1784999999999997,3.1951000000014957,3.2119000000059614,3.228500000000004,3.2452000000029813,3.2618000000044702,3.2807000000029802,3.29510000000149,3.3124000000059652,3.3285000000000053,3.3481000000014944,3.3617000000029833,3.3784000000059606,3.3951000000014915,3.4119000000059643,3.4284999999999997,3.4491000000014935,3.4642000000029824,3.478500000000004,3.495100000001493,3.511700000002982,3.528500000000001,3.54510000000149,3.5618000000044745,3.5784000000059635,3.5952000000029827,3.6118000000044717,3.6284000000059606,3.6451000000014915,3.6617000000029805,3.678800000004472,3.6951000000014957,3.711800000004473,3.728500000000004,3.745100000001493,3.7619000000059657,3.7784000000059663,3.7982000000029856,3.811900000005963,3.829300000004473,3.8452000000029827,3.8617000000029833,3.8800000000000026,3.8977000000029847,3.911800000004476,3.9287000000029835,3.948500000000003,3.9621000000014917,3.978500000000004,3.9976000000014906,4.012200000002984,4.028600000001489,4.04510000000149,4.0618000000044745,4.0784000000059635,4.095100000001494,4.111800000004472,4.128400000005961,4.1451000000014915,4.161800000004476,4.178800000004472,4.195100000001496,4.211700000002985,4.228600000001492,4.246600000001493,4.26180000000447,4.278500000000001,4.29510000000149,4.311700000002986,4.3284000000059635,4.345100000001494,4.361800000004472,4.3785000000000025,4.395000000000003,4.411800000004476,4.428400000005965,4.445100000001496,4.461800000004473,4.478500000000004,4.495200000002981,4.51180000000447,4.528500000000001,4.54510000000149,4.561700000002986,4.578500000000005,4.595100000001494,4.611800000004472,4.634,4.6451000000014915,4.661800000004476,4.678400000005965,4.695200000002984,4.711800000004473,4.728500000000004,4.745100000001493,4.761700000002982,4.781700000002985,4.795300000004474,4.811900000005963,4.834300000004475,4.848100000001494,4.862300000004474,4.878900000005963,4.899900000005964,4.914800000004476,4.9287000000029835,4.945100000001496,4.964400000005966,4.98110000000149,4.995200000002981,5.011700000002982,5.028600000001489,5.047499999999999,5.0618000000044745,5.080000000000005,5.0954000000059665,5.112200000002986,5.1285000000000025,5.147800000004473,5.169499999999999,5.184800000004472,5.195100000001496,5.211800000004473,5.228500000000004,5.245100000001493,5.26180000000447,5.278600000001489,5.298700000002981,5.314900000005963,5.328600000001494,5.345200000002983,5.36510000000149,5.381600000001491,5.39520000000298,5.4117000000029805,5.428600000001495,5.4476000000014935,5.461700000002985,5.478400000005962,5.4950000000000045,5.511700000002982,5.528500000000001,5.548700000002981,5.561700000002986,5.580100000001494,5.595100000001494,5.614800000004472,5.628400000005961,5.6466000000014915,5.6617000000029805,5.67910000000149,5.695100000001496,5.711800000004473,5.728500000000004,5.745100000001493,5.761700000002982,5.778500000000001,5.79510000000149,5.811700000002986,5.828500000000005,5.845200000002983,5.861800000004472,5.881,5.8951000000014915,5.911800000004476,5.9283000000044765,5.945100000001496,5.961800000004473,5.978500000000004,5.995100000001493,6.011700000002982,6.028400000005966,6.04510000000149,6.061700000002986,6.0799000000059635,6.095000000000006,6.111700000002983,6.128400000005961,6.1451000000014915]","[1733295044305,1733295044335,1733295044345,1733295044359,1733295044376,1733295044392,1733295044409,1733295044426,1733295044442,1733295044459,1733295044476,1733295044492,1733295044509,1733295044526,1733295044542,1733295044559,1733295044576,1733295044592,1733295044609,1733295044626,1733295044642,1733295044659,1733295044676,1733295044692,1733295044709,1733295044726,1733295044742,1733295044759,1733295044776,1733295044792,1733295044809,1733295044826,1733295044842,1733295044863,1733295044876,1733295044892,1733295044915,1733295044926,1733295044942,1733295044965,1733295044976,1733295044993,1733295045010,1733295045026,1733295045046,1733295045060,1733295045076,1733295045093,1733295045110,1733295045126,1733295045143,1733295045160,1733295045176,1733295045193,1733295045211,1733295045226,1733295045243,1733295045260,1733295045277,1733295045293,1733295045310,1733295045326,1733295045343,1733295045360,1733295045376,1733295045393,1733295045411,1733295045426,1733295045443,1733295045460,1733295045476,1733295045493,1733295045510,1733295045526,1733295045543,1733295045560,1733295045576,1733295045597,1733295045612,1733295045626,1733295045643,1733295045660,1733295045679,1733295045693,1733295045710,1733295045730,1733295045745,1733295045760,1733295045777,1733295045793,1733295045810,1733295045826,1733295045843,1733295045860,1733295045879,1733295045893,1733295045910,1733295045926,1733295045943,1733295045960,1733295045976,1733295045993,1733295046010,1733295046026,1733295046043,1733295046060,1733295046076,1733295046093,1733295046112,1733295046127,1733295046143,1733295046163,1733295046179,1733295046193,1733295046212,1733295046226,1733295046243,1733295046263,1733295046279,1733295046293,1733295046310,1733295046330,1733295046343,1733295046360,1733295046381,1733295046396,1733295046410,1733295046426,1733295046445,1733295046460,1733295046478,1733295046493,1733295046510,1733295046526,1733295046543,1733295046560,1733295046578,1733295046593,1733295046610,1733295046626,1733295046643,1733295046662,1733295046677,1733295046693,1733295046710,1733295046729,1733295046745,1733295046760,1733295046781,1733295046793,1733295046810,1733295046826,1733295046848,1733295046860,1733295046877,1733295046900,1733295046910,1733295046933,1733295046943,1733295046964,1733295046976,1733295046993,1733295047013,1733295047027,1733295047043,1733295047060,1733295047080,1733295047093,1733295047110,1733295047126,1733295047146,1733295047160,1733295047178,1733295047193,1733295047210,1733295047226,1733295047243,1733295047260,1733295047276,1733295047293,1733295047309,1733295047326,1733295047343,1733295047360,1733295047379,1733295047393,1733295047410,1733295047426,1733295047444,1733295047460,1733295047476,1733295047493,1733295047510,1733295047526,1733295047543,1733295047560,1733295047578,1733295047593,1733295047610,1733295047626,1733295047646,1733295047659,1733295047676,1733295047693,1733295047710,1733295047726,1733295047747,1733295047762,1733295047776,1733295047793,1733295047809,1733295047826,1733295047843,1733295047859,1733295047876,1733295047893,1733295047910,1733295047926,1733295047943,1733295047959,1733295047977,1733295047993,1733295048010,1733295048026,1733295048043,1733295048060,1733295048076,1733295048096,1733295048110,1733295048127,1733295048143,1733295048159,1733295048178,1733295048195,1733295048210,1733295048226,1733295048246,1733295048260,1733295048276,1733295048295,1733295048310,1733295048326,1733295048343,1733295048360,1733295048376,1733295048393,1733295048410,1733295048426,1733295048443,1733295048459,1733295048477,1733295048493,1733295048509,1733295048526,1733295048544,1733295048560,1733295048576,1733295048593,1733295048610,1733295048626,1733295048643,1733295048659,1733295048676,1733295048693,1733295048709,1733295048726,1733295048743,1733295048760,1733295048776,1733295048793,1733295048810,1733295048826,1733295048843,1733295048860,1733295048876,1733295048893,1733295048910,1733295048932,1733295048943,1733295048959,1733295048976,1733295048993,1733295049010,1733295049026,1733295049043,1733295049059,1733295049079,1733295049093,1733295049110,1733295049132,1733295049146,1733295049160,1733295049177,1733295049198,1733295049213,1733295049226,1733295049243,1733295049262,1733295049279,1733295049293,1733295049309,1733295049326,1733295049345,1733295049359,1733295049378,1733295049393,1733295049410,1733295049426,1733295049446,1733295049467,1733295049482,1733295049493,1733295049509,1733295049526,1733295049543,1733295049560,1733295049576,1733295049596,1733295049613,1733295049626,1733295049643,1733295049663,1733295049679,1733295049693,1733295049709,1733295049726,1733295049745,1733295049759,1733295049776,1733295049793,1733295049809,1733295049826,1733295049846,1733295049859,1733295049878,1733295049893,1733295049913,1733295049926,1733295049944,1733295049959,1733295049977,1733295049993,1733295050010,1733295050026,1733295050043,1733295050059,1733295050076,1733295050093,1733295050109,1733295050126,1733295050143,1733295050159,1733295050179,1733295050193,1733295050209,1733295050226,1733295050243,1733295050259,1733295050276,1733295050293,1733295050309,1733295050326,1733295050343,1733295050360,1733295050378,1733295050393,1733295050409,1733295050426,1733295050443]","[[1232.7,559.5],[1232.7,559.5],[1239.3,551.2],[1255.8,534.2],[1271.4,510.6],[1300.5,507.8],[1280.9,482.2],[1274.9,483],[1251.5,474.4],[1227.3,461.4],[1185.1,464.7],[1176.8,452.9],[1155,464.3],[1125.7,471.2],[1125.7,471.2],[1100,456.9],[1090.8,447.2],[1110.1,439.9],[1115.4,428.4],[1119.2,428.8],[1136.5,408],[1153.8,387.2],[1157,386.4],[1179.7,365.6],[1184.3,352.4],[1198.7,364.1],[1183.7,364.4],[1168.7,364.7],[1153.8,367.5],[1153.8,367.5],[1146.7,362.9],[1146.7,362.9],[1150.6,389.1],[1161.3,407.4],[1161.3,407.4],[1157.9,415.2],[1168.6,413.7],[1168.6,413.7],[1197.4,404.6],[1180.6,394.7],[1180.6,394.7],[1160.7,390.9],[1157.5,392.3],[1161.9,390.9],[1157.8,375.3],[1136.9,346.5],[1106.5,329.1],[1077,309.9],[1032.8,319.8],[988.6,329.7],[983.5,335.9],[994.4,342.8],[991.3,337.8],[988.2,332.8],[998.5,342.1],[1008.8,351.4],[1021.8,357.2],[1037.3,361.9],[1053.4,346.8],[1050.7,329.2],[1042,319],[1003.8,311.7],[971.9,327.5],[940,343.3],[940,343.3],[898.5,361.6],[863.9,375.5],[829.3,389.4],[788.8,391.8],[748.7,377.9],[735.6,380.8],[716.9,388],[725.7,401.8],[745.1,403],[742.1,408.5],[743.8,411.4],[742.1,402.7],[740.4,394],[741.2,395.8],[741.6,413.9],[733.8,417.7],[742.5,421.1],[753.2,415],[739.9,413],[749,406.7],[746.8,408.6],[746.8,408.6],[728.6,422.7],[722.5,436.4],[717.3,452.2],[707.8,455.6],[698.3,459],[685.9,471.2],[673.5,483.4],[665.3,489.2],[654.5,489.6],[680.6,495.6],[719.2,505.4],[765.2,519],[823,529],[823,529],[879.9,559.1],[937.8,573.6],[987.7,575.4],[1037.6,577.2],[1088.8,586.9],[1152.9,614.8],[1188.7,621.6],[1221.6,617.9],[1219.3,595.7],[1221.1,584.1],[1227.6,558.1],[1213.9,570.5],[1202.3,592.8],[1205.4,600],[1185.4,600.7],[1161.4,589.1],[1136.6,583.2],[1123.6,579.8],[1127,590.6],[1110.5,606.9],[1094.5,629.9],[1096.7,634.7],[1086.1,627.6],[1078.3,621.1],[1099.8,619.6],[1093.9,630.5],[1091.5,643],[1080.2,663.5],[1105.9,674.2],[1110.8,677.8],[1118.7,684.7],[1127.6,687],[1144.4,688],[1144.4,705.3],[1137.1,714.7],[1145.2,709.5],[1153.3,704.3],[1150.1,695.6],[1101.9,700.5],[1084.6,703.3],[1064.3,702.8],[1015.9,694.3],[999.8,693.7],[959.4,692.6],[937.8,687.3],[940.5,706.4],[943.2,725.5],[924.6,718.8],[924.6,718.8],[915.5,720.5],[915.5,720.5],[877.9,713.2],[877.9,713.2],[873,724.6],[873,724.6],[892.1,734.8],[862.9,722.5],[862.9,722.5],[863.7,733.3],[863.7,733.3],[870.5,735.9],[863,711.1],[841.4,672],[878.3,646.7],[885.3,631],[909.3,605.7],[909.3,605.7],[908.3,581.7],[918.7,579.5],[915,597.2],[934.1,572.4],[897.8,572.4],[857.2,577.1],[836.5,588.7],[789.9,615.8],[771,622],[733.8,637.3],[688.9,632.6],[651.2,601.7],[658.2,577.3],[640.1,593.6],[705.1,574.2],[760.5,556.6],[832,547.2],[890,522.4],[952.4,519.1],[1038.5,522],[1137.3,508.8],[1220.3,510],[1220.3,510],[1278.8,503.9],[1329.3,473.3],[1327.3,466],[1335.4,461.6],[1321.6,456.4],[1319.5,472.4],[1313,466.9],[1299.7,461],[1272.4,473.6],[1246.4,485.4],[1236.7,489.4],[1227.6,495.3],[1213.6,496.1],[1196.2,487.5],[1178.8,478.9],[1174.1,470.9],[1174.1,470.9],[1169.4,462.9],[1150.2,455],[1105.6,436.5],[1061,418],[1015.4,416.1],[999.3,431.5],[980.1,452.1],[963.8,477.4],[963.8,477.4],[955.5,509.5],[932.2,504.7],[904.7,507.6],[901.4,526.8],[919.5,553.8],[934.3,564.4],[948.8,562.3],[949.4,544.8],[955.8,529.5],[962.2,514.2],[974.6,507.8],[954.3,516.8],[938.2,518.1],[929.2,516.9],[929.4,515.8],[952.3,518.3],[972.9,523.5],[947.2,528.4],[932.3,537],[914.6,554.6],[895.3,545.9],[910.8,564.3],[926.3,582.7],[909.1,563.9],[888,545.4],[853,546.6],[818,547.8],[825,544.4],[823.4,535],[833.1,522.7],[812.6,525.4],[794.1,516.1],[788.1,512.6],[804.8,532.8],[802.6,544.2],[803.1,550.5],[803.6,556.8],[817.3,567.7],[833,575.3],[868.8,578.7],[922.4,577.7],[977.4,567.4],[1019.9,551.3],[1055.9,515.4],[1122.8,498.8],[1178.2,513],[1231.2,519.2],[1248.3,538.1],[1252.8,540.6],[1237.9,513.7],[1223,486.8],[1208.5,480.2],[1208.5,480.2],[1194,473.6],[1194,473.6],[1171.1,493],[1171.1,493],[1135.6,534.9],[1135.6,534.9],[1105.2,551.3],[1074.9,564.5],[1074.9,564.5],[1049.7,546.1],[1049.7,546.1],[1051.8,534.9],[1034.7,551],[1010.9,561.2],[983.3,565.8],[955.7,570.4],[959.9,554.7],[956.4,527.1],[957.2,477],[950.1,439.6],[948.9,432.9],[941.4,432.6],[927.7,439.9],[920.7,453.1],[935.7,434.8],[950.7,416.5],[948.8,412.3],[956.9,413.8],[952.2,414.6],[953.9,410.6],[959,397.1],[965.3,388.4],[970.3,374.4],[980.3,365.3],[979.5,366.1],[961,379.7],[967.6,378.7],[972.5,350.9],[986.2,345.6],[994.2,345.5],[994.2,345.5],[994.8,348],[978.9,351],[974.8,350.4],[965.4,340.8],[946.8,347.4],[958.4,343.5],[950.7,344.5],[927.2,373.5],[901.6,396.1],[885.5,416.8],[880.1,423.5],[900,409.6],[925.6,397.2],[940.2,402.1],[954.8,407],[960.2,415.4],[959.8,433.5],[1002.1,409.7],[1036.7,401.1],[1070.6,380.9],[1101.2,382.3],[1095.2,412.9],[1074.4,439.8],[1062.3,464.3],[1050.2,488.8],[1022.6,496],[995,503.2],[956.7,519.9],[926.1,521.4],[899.4,544.6],[867.1,546.4],[860,549.6],[867.7,556.5],[878,552.6],[884.5,548.7],[884.5,548.7],[909.5,550.4],[945.9,545.9],[966.1,545.8],[973.8,539.9],[978.3,523.9],[980.4,513.8],[973.5,494.5],[967.2,464.1],[961,451.2],[969.5,444.2],[971.7,443.1],[971.7,443.1],[977.3,451.1],[962.3,423.3],[959.8,401.3],[960.9,420.2],[970.3,440.5],[981.4,469.6],[996.7,530.4],[1013.8,537],[1020,537.7],[1026.2,538.4]]","[0,0.3527331528]","[0.3527331528,0.3527331528]","[-0.3527331528,0]","[-0.3527331528,-0.3527331528]","[0,0]","[0.3527331528,0]","[0,-0.3527331528]","[0.3527331528,-0.3527331528]",0,0,0,0,1,1,Tablet,7,7,15,9
