inst1_resp.keys,inst1_resp.rt,calibrationMouse.x,calibrationMouse.y,calibrationMouse.leftButton,calibrationMouse.midButton,calibrationMouse.rightButton,calibrationClick.x,calibrationClick.y,calibrationClick.leftButton,calibrationClick.midButton,calibrationClick.rightButton,calibrationClick.clicked_name,trialsc.thisRepN,trialsc.thisTrialN,trialsc.thisN,trialsc.thisIndex,trialsc.ran,calibration_x,calibration_y,participant,session,date,expName,psychopyVersion,OS,frameRate,ScreenRes_pixels,Camera_pixels,mouse_2.x,mouse_2.y,mouse_2.leftButton,mouse_2.midButton,mouse_2.rightButton,mouse_2.time,mouse_2.clicked_name,mouse.x,mouse.y,mouse.leftButton,mouse.midButton,mouse.rightButton,mouse.time,mouse.clicked_name,Choice,Trial,TrialDuration,MOUSE_GAZE,ET_GAZE,ET_GAZE_x_T,time,unixTime,ET_GAZE_NF,Loc_Option1_label,Loc_Option2_label,Loc_Cost_label,Loc_Qual_label,Loc_Option1_cost,Loc_Option2_cost,Loc_Option1_quality,Loc_Option2_quality,trials.thisRepN,trials.thisTrialN,trials.thisN,trials.thisIndex,trials.ran,Block,Device,cost1,qual1,cost2,qual2
space,0.9084,0.270833333,-0.031481481,1,0,0,0.329166667,-0.677777778,1,0,0,calibration_square,0,0,0,14,1,0.33,-0.67,39,001,2024-11-28_14h35.38.522,Attention_exp_legacy,2023.1.0,Win32,59.52380952,,,,,,,,,,,,,,,,,,,,,,,,,,,,,,,,,,,,,,,,,,,,
,,,,,,,0.669791667,0.664814815,1,0,0,calibration_square,0,1,1,19,1,0.67,0.67,39,001,2024-11-28_14h35.38.522,Attention_exp_legacy,2023.1.0,Win32,59.52380952,,,,,,,,,,,,,,,,,,,,,,,,,,,,,,,,,,,,,,,,,,,,
,,,,,,,0.005208333,0.338888889,1,0,0,calibration_square,0,2,2,12,1,0,0.33,39,001,2024-11-28_14h35.38.522,Attention_exp_legacy,2023.1.0,Win32,59.52380952,,,,,,,,,,,,,,,,,,,,,,,,,,,,,,,,,,,,,,,,,,,,
,,,,,,,0.333333333,-0.337037037,1,0,0,calibration_square,0,3,3,15,1,0.33,-0.33,39,001,2024-11-28_14h35.38.522,Attention_exp_legacy,2023.1.0,Win32,59.52380952,,,,,,,,,,,,,,,,,,,,,,,,,,,,,,,,,,,,,,,,,,,,
,,,,,,,-0.007291667,-0.337037037,1,0,0,calibration_square,0,4,4,10,1,0,-0.33,39,001,2024-11-28_14h35.38.522,Attention_exp_legacy,2023.1.0,Win32,59.52380952,,,,,,,,,,,,,,,,,,,,,,,,,,,,,,,,,,,,,,,,,,,,
,,,,,,,0.0125,0.674074074,1,0,0,,0,5,5,13,1,0,0.67,39,001,2024-11-28_14h35.38.522,Attention_exp_legacy,2023.1.0,Win32,59.52380952,,,,,,,,,,,,,,,,,,,,,,,,,,,,,,,,,,,,,,,,,,,,
,,,,,,,0.3375,-0.007407407,1,0,0,calibration_square,0,6,6,16,1,0.33,0,39,001,2024-11-28_14h35.38.522,Attention_exp_legacy,2023.1.0,Win32,59.52380952,,,,,,,,,,,,,,,,,,,,,,,,,,,,,,,,,,,,,,,,,,,,
,,,,,,,-0.665625,-0.668518519,1,0,0,calibration_square,0,7,7,0,1,-0.67,-0.67,39,001,2024-11-28_14h35.38.522,Attention_exp_legacy,2023.1.0,Win32,59.52380952,,,,,,,,,,,,,,,,,,,,,,,,,,,,,,,,,,,,,,,,,,,,
,,,,,,,-0.328125,-0.677777778,1,0,0,calibration_square,0,8,8,4,1,-0.33,-0.67,39,001,2024-11-28_14h35.38.522,Attention_exp_legacy,2023.1.0,Win32,59.52380952,,,,,,,,,,,,,,,,,,,,,,,,,,,,,,,,,,,,,,,,,,,,
,,,,,,,0.003125,0.005555556,1,0,0,calibration_square,0,9,9,11,1,0,0,39,001,2024-11-28_14h35.38.522,Attention_exp_legacy,2023.1.0,Win32,59.52380952,,,,,,,,,,,,,,,,,,,,,,,,,,,,,,,,,,,,,,,,,,,,
,,,,,,,-0.336458333,0.337037037,1,0,0,calibration_square,0,10,10,7,1,-0.33,0.33,39,001,2024-11-28_14h35.38.522,Attention_exp_legacy,2023.1.0,Win32,59.52380952,,,,,,,,,,,,,,,,,,,,,,,,,,,,,,,,,,,,,,,,,,,,
,,,,,,,-0.333333333,-0.322222222,1,0,0,calibration_square,0,11,11,5,1,-0.33,-0.33,39,001,2024-11-28_14h35.38.522,Attention_exp_legacy,2023.1.0,Win32,59.52380952,,,,,,,,,,,,,,,,,,,,,,,,,,,,,,,,,,,,,,,,,,,,
,,,,,,,0.323958333,0.335185185,1,0,0,calibration_square,0,12,12,17,1,0.33,0.33,39,001,2024-11-28_14h35.38.522,Attention_exp_legacy,2023.1.0,Win32,59.52380952,,,,,,,,,,,,,,,,,,,,,,,,,,,,,,,,,,,,,,,,,,,,
,,,,,,,-0.3375,0.681481481,1,0,0,,0,13,13,8,1,-0.33,0.67,39,001,2024-11-28_14h35.38.522,Attention_exp_legacy,2023.1.0,Win32,59.52380952,,,,,,,,,,,,,,,,,,,,,,,,,,,,,,,,,,,,,,,,,,,,
,,,,,,,-0.002083333,-0.67037037,1,0,0,calibration_square,0,14,14,9,1,0,-0.67,39,001,2024-11-28_14h35.38.522,Attention_exp_legacy,2023.1.0,Win32,59.52380952,,,,,,,,,,,,,,,,,,,,,,,,,,,,,,,,,,,,,,,,,,,,
,,,,,,,-0.663541667,0.012962963,1,0,0,,0,15,15,2,1,-0.67,0,39,001,2024-11-28_14h35.38.522,Attention_exp_legacy,2023.1.0,Win32,59.52380952,,,,,,,,,,,,,,,,,,,,,,,,,,,,,,,,,,,,,,,,,,,,
,,,,,,,-0.31875,-0.014814815,1,0,0,,0,16,16,6,1,-0.33,0,39,001,2024-11-28_14h35.38.522,Attention_exp_legacy,2023.1.0,Win32,59.52380952,,,,,,,,,,,,,,,,,,,,,,,,,,,,,,,,,,,,,,,,,,,,
,,,,,,,-0.671875,0.327777778,1,0,0,calibration_square,0,17,17,3,1,-0.67,0.33,39,001,2024-11-28_14h35.38.522,Attention_exp_legacy,2023.1.0,Win32,59.52380952,,,,,,,,,,,,,,,,,,,,,,,,,,,,,,,,,,,,,,,,,,,,
,,,,,,,0.338541667,0.67962963,1,0,0,calibration_square,0,18,18,18,1,0.33,0.67,39,001,2024-11-28_14h35.38.522,Attention_exp_legacy,2023.1.0,Win32,59.52380952,,,,,,,,,,,,,,,,,,,,,,,,,,,,,,,,,,,,,,,,,,,,
,,,,,,,-0.679166667,-0.325925926,1,0,0,calibration_square,0,19,19,1,1,-0.67,-0.33,39,001,2024-11-28_14h35.38.522,Attention_exp_legacy,2023.1.0,Win32,59.52380952,,,,,,,,,,,,,,,,,,,,,,,,,,,,,,,,,,,,,,,,,,,,
,,,,,,,0.68125,-0.662962963,1,0,0,,0,20,20,20,1,0.67,-0.67,39,001,2024-11-28_14h35.38.522,Attention_exp_legacy,2023.1.0,Win32,59.52380952,,,,,,,,,,,,,,,,,,,,,,,,,,,,,,,,,,,,,,,,,,,,
,,,,,,,,,,,,,,,,,,,,39,001,2024-11-28_14h35.38.522,Attention_exp_legacy,2023.1.0,Win32,59.52380952,"[1920,1080]","[640,480]",[-0.04583333333333333],[-0.47962962962962963],[1],[0],[0],[3.0322000000178804],"[""StartButton""]",[0.371875],[0.32037037037037036],[1],[0],[0],[3.0696999999880745],"[""Option2_label""]",Option2_label,1,4.0771,"[[0.44895833333333335,0.5203703703703704],[0.44895833333333335,0.5203703703703704],[0.44895833333333335,0.5203703703703704],[0.4510416666666667,0.5203703703703704],[0.4552083333333333,0.5222222222222223],[0.4583333333333333,0.524074074074074],[0.459375,0.524074074074074],[0.4625,0.524074074074074],[0.4635416666666667,0.524074074074074],[0.4635416666666667,0.524074074074074],[0.4635416666666667,0.524074074074074],[0.4635416666666667,0.524074074074074],[0.4635416666666667,0.524074074074074],[0.4635416666666667,0.524074074074074],[0.4635416666666667,0.524074074074074],[0.4635416666666667,0.524074074074074],[0.4635416666666667,0.524074074074074],[0.4635416666666667,0.524074074074074],[0.4635416666666667,0.524074074074074],[0.4635416666666667,0.524074074074074],[0.4635416666666667,0.524074074074074],[0.4635416666666667,0.524074074074074],[0.4635416666666667,0.524074074074074],[0.4635416666666667,0.524074074074074],[0.46458333333333335,0.5259259259259259],[0.46770833333333334,0.5314814814814814],[0.4708333333333333,0.5407407407407407],[0.47291666666666665,0.5462962962962963],[0.47708333333333336,0.5574074074074075],[0.4791666666666667,0.5611111111111111],[0.4875,0.5703703703703704],[0.503125,0.587037037037037],[0.5395833333333333,0.6074074074074074],[0.5697916666666667,0.6203703703703703],[0.5979166666666667,0.6314814814814815],[0.615625,0.6370370370370371],[0.634375,0.6370370370370371],[0.65,0.6351851851851852],[0.665625,0.6240740740740741],[0.69375,0.5925925925925926],[0.709375,0.5648148148148148],[0.7177083333333333,0.55],[0.7302083333333333,0.512962962962963],[0.7427083333333333,0.4648148148148148],[0.74375,0.44814814814814813],[0.74375,0.42777777777777776],[0.7416666666666667,0.40925925925925927],[0.7354166666666667,0.3814814814814815],[0.7270833333333333,0.35],[0.71875,0.32037037037037036],[0.70625,0.28888888888888886],[0.6916666666666667,0.24814814814814815],[0.6645833333333333,0.1925925925925926],[0.6416666666666667,0.1574074074074074],[0.6197916666666666,0.12962962962962962],[0.5958333333333333,0.10185185185185185],[0.5739583333333333,0.08148148148148149],[0.55625,0.06851851851851852],[0.540625,0.05740740740740741],[0.521875,0.04814814814814815],[0.49583333333333335,0.03333333333333333],[0.46770833333333334,0.018518518518518517],[0.428125,0.003703703703703704],[0.37916666666666665,-0.003703703703703704],[0.35625,-0.003703703703703704],[0.24895833333333334,-0.003703703703703704],[0.19375,0],[0.1625,0.003703703703703704],[0.134375,0.007407407407407408],[0.11145833333333334,0.011111111111111112],[0.09375,0.018518518518518517],[0.08229166666666667,0.020370370370370372],[0.075,0.022222222222222223],[0.06770833333333333,0.024074074074074074],[0.06458333333333334,0.027777777777777776],[0.06354166666666666,0.027777777777777776],[0.06041666666666667,0.02962962962962963],[0.057291666666666664,0.02962962962962963],[0.05416666666666667,0.02962962962962963],[0.05,0.02962962962962963],[0.04375,0.03333333333333333],[0.04375,0.03333333333333333],[0.04375,0.03333333333333333],[0.04375,0.03333333333333333],[0.04375,0.03333333333333333],[0.04375,0.03333333333333333],[0.058333333333333334,0.03333333333333333],[0.08854166666666667,0.03333333333333333],[0.15416666666666667,0.03333333333333333],[0.30416666666666664,0.03333333333333333],[0.41354166666666664,0.03333333333333333],[0.46979166666666666,0.03333333333333333],[0.6,0.03333333333333333],[0.6479166666666667,0.03333333333333333],[0.671875,0.03333333333333333],[0.6802083333333333,0.03333333333333333],[0.6822916666666666,0.03333333333333333],[0.6822916666666666,0.03333333333333333],[0.6822916666666666,0.03333333333333333],[0.6822916666666666,0.03333333333333333],[0.6822916666666666,0.03333333333333333],[0.6822916666666666,0.03333333333333333],[0.6822916666666666,0.03333333333333333],[0.6760416666666667,0.03333333333333333],[0.6510416666666666,0.046296296296296294],[0.628125,0.06851851851851852],[0.5927083333333333,0.1037037037037037],[0.553125,0.14629629629629629],[0.50625,0.2111111111111111],[0.496875,0.22777777777777777],[0.48541666666666666,0.26296296296296295],[0.48020833333333335,0.2962962962962963],[0.4739583333333333,0.3296296296296296],[0.46770833333333334,0.3888888888888889],[0.4635416666666667,0.4074074074074074],[0.46041666666666664,0.42592592592592593],[0.45625,0.4388888888888889],[0.45416666666666666,0.4425925925925926],[0.453125,0.4444444444444444],[0.453125,0.4444444444444444],[0.453125,0.4444444444444444],[0.453125,0.4444444444444444],[0.453125,0.4444444444444444],[0.4510416666666667,0.44074074074074077],[0.446875,0.43333333333333335],[0.440625,0.4203703703703704],[0.4322916666666667,0.4111111111111111],[0.4114583333333333,0.39444444444444443],[0.32395833333333335,0.3592592592592593],[0.24479166666666666,0.3388888888888889],[0.165625,0.3388888888888889],[0.12291666666666666,0.3388888888888889],[0.10416666666666667,0.34444444444444444],[0.1,0.34629629629629627],[0.1,0.34629629629629627],[0.09895833333333333,0.34814814814814815],[0.09895833333333333,0.34814814814814815],[0.09895833333333333,0.34814814814814815],[0.09895833333333333,0.34814814814814815],[0.09895833333333333,0.34814814814814815],[0.09895833333333333,0.34814814814814815],[0.09895833333333333,0.34814814814814815],[0.10208333333333333,0.34814814814814815],[0.12604166666666666,0.34814814814814815],[0.19375,0.34814814814814815],[0.29791666666666666,0.32037037037037036],[0.403125,0.31851851851851853],[0.47708333333333336,0.3111111111111111],[0.50625,0.3037037037037037],[0.5135416666666667,0.30185185185185187],[0.5135416666666667,0.30185185185185187],[0.5135416666666667,0.30185185185185187],[0.5135416666666667,0.30185185185185187],[0.5135416666666667,0.30185185185185187],[0.5135416666666667,0.30185185185185187],[0.5135416666666667,0.30185185185185187],[0.509375,0.30185185185185187],[0.49270833333333336,0.3055555555555556],[0.46770833333333334,0.3111111111111111],[0.43645833333333334,0.31666666666666665],[0.403125,0.32037037037037036],[0.3770833333333333,0.32037037037037036],[0.371875,0.32037037037037036],[0.371875,0.32037037037037036],[0.371875,0.32037037037037036],[0.371875,0.32037037037037036],[0.371875,0.32037037037037036],[0.371875,0.32037037037037036],[0.371875,0.32037037037037036],[0.371875,0.32037037037037036],[0.371875,0.32037037037037036],[0.371875,0.32037037037037036],[0.371875,0.32037037037037036],[0.371875,0.32037037037037036],[0.371875,0.32037037037037036],[0.371875,0.32037037037037036],[0.371875,0.32037037037037036],[0.371875,0.32037037037037036],[0.371875,0.32037037037037036],[0.371875,0.32037037037037036],[0.371875,0.32037037037037036],[0.371875,0.32037037037037036],[0.371875,0.32037037037037036],[0.371875,0.32037037037037036],[0.371875,0.32037037037037036],[0.371875,0.32037037037037036],[0.371875,0.32037037037037036],[0.371875,0.32037037037037036],[0.371875,0.32037037037037036],[0.371875,0.32037037037037036],[0.371875,0.32037037037037036],[0.371875,0.32037037037037036],[0.371875,0.32037037037037036],[0.371875,0.32037037037037036],[0.371875,0.32037037037037036],[0.371875,0.32037037037037036],[0.371875,0.32037037037037036],[0.371875,0.32037037037037036],[0.371875,0.32037037037037036],[0.371875,0.32037037037037036],[0.371875,0.32037037037037036],[0.371875,0.32037037037037036],[0.371875,0.32037037037037036],[0.371875,0.32037037037037036],[0.371875,0.32037037037037036],[0.371875,0.32037037037037036],[0.371875,0.32037037037037036],[0.371875,0.32037037037037036],[0.371875,0.32037037037037036],[0.371875,0.32037037037037036],[0.371875,0.32037037037037036],[0.371875,0.32037037037037036],[0.371875,0.32037037037037036],[0.371875,0.32037037037037036],[0.371875,0.32037037037037036],[0.371875,0.32037037037037036],[0.371875,0.32037037037037036],[0.371875,0.32037037037037036],[0.371875,0.32037037037037036],[0.371875,0.32037037037037036],[0.371875,0.32037037037037036],[0.371875,0.32037037037037036],[0.371875,0.32037037037037036],[0.371875,0.32037037037037036],[0.371875,0.32037037037037036],[0.371875,0.32037037037037036],[0.371875,0.32037037037037036],[0.371875,0.32037037037037036],[0.371875,0.32037037037037036],[0.371875,0.32037037037037036],[0.371875,0.32037037037037036],[0.371875,0.32037037037037036],[0.371875,0.32037037037037036],[0.371875,0.32037037037037036],[0.371875,0.32037037037037036],[0.371875,0.32037037037037036],[0.371875,0.32037037037037036],[0.371875,0.32037037037037036],[0.371875,0.32037037037037036],[0.371875,0.32037037037037036],[0.371875,0.32037037037037036],[0.371875,0.32037037037037036],[0.371875,0.32037037037037036],[0.371875,0.32037037037037036],[0.371875,0.32037037037037036]]","[[0.1460416666666667,-0.13203703703703706],[0.1460416666666667,-0.13203703703703706],[0.1460416666666667,-0.13203703703703706],[0.165625,-0.1537037037037037],[0.19874999999999995,-0.1544444444444444],[0.2326041666666666,-0.19148148148148145],[0.2476041666666667,-0.22407407407407406],[0.2900000000000001,-0.30388888888888893],[0.3115624999999999,-0.3290740740740741],[0.3507291666666667,-0.38333333333333336],[0.4002083333333334,-0.47851851851851845],[0.41875,-0.5483333333333333],[0.440625,-0.5764814814814815],[0.4626041666666666,-0.5768518518518518],[0.47145833333333326,-0.5988888888888888],[0.4799999999999999,-0.654074074074074],[0.5002083333333334,-0.6837037037037037],[0.4609375,-0.6672222222222223],[0.49979166666666663,-0.6575925925925926],[0.5210416666666667,-0.6188888888888888],[0.5402083333333333,-0.5587037037037037],[0.5467708333333334,-0.4861111111111111],[0.5490624999999999,-0.3653703703703704],[0.5619791666666667,-0.2874074074074074],[0.5955208333333334,-0.27166666666666667],[0.5941666666666667,-0.2479629629629629],[0.6365624999999999,-0.21944444444444444],[0.6838541666666667,-0.18703703703703703],[0.6224999999999999,-0.16722222222222224],[0.6224999999999999,-0.16722222222222224],[0.5611458333333333,-0.14740740740740746],[0.5611458333333333,-0.14740740740740746],[0.5256249999999999,-0.18981481481481483],[0.4321875000000001,-0.2116666666666667],[0.3734375,-0.26666666666666666],[0.3145833333333333,-0.32166666666666666],[0.23468749999999997,-0.31370370370370365],[0.18979166666666672,-0.2838888888888889],[0.1474999999999999,-0.29740740740740745],[0.10520833333333333,-0.3109259259259259],[0.13312499999999997,-0.3501851851851852],[0.13312499999999997,-0.3501851851851852],[0.1929166666666667,-0.38925925925925925],[0.20322916666666657,-0.3816666666666667],[0.2594791666666666,-0.4262962962962963],[0.2594791666666666,-0.4262962962962963],[0.3319791666666667,-0.45185185185185184],[0.39000000000000007,-0.5105555555555555],[0.41041666666666665,-0.5537037037037037],[0.4666666666666667,-0.5727777777777778],[0.4427083333333333,-0.5605555555555556],[0.41875,-0.5483333333333333],[0.38552083333333326,-0.5362962962962964],[0.3558333333333332,-0.5205555555555555],[0.3381249999999999,-0.5116666666666667],[0.3945833333333333,-0.4703703703703704],[0.39906249999999993,-0.4746296296296296],[0.4201041666666666,-0.48222222222222216],[0.4201041666666666,-0.48222222222222216],[0.46864583333333343,-0.4468518518518519],[0.48468749999999994,-0.4242592592592593],[0.5452083333333334,-0.40611111111111114],[0.5733333333333335,-0.3822222222222222],[0.6234375,-0.3925925925925926],[0.6607291666666666,-0.38203703703703706],[0.6742708333333333,-0.3229629629629629],[0.6111458333333334,-0.2862962962962963],[0.5533333333333333,-0.2381481481481482],[0.49968750000000006,-0.16592592592592598],[0.4561458333333334,-0.1522222222222222],[0.39375,-0.1440740740740741],[0.3351041666666667,-0.1440740740740741],[0.3098958333333333,-0.14592592592592596],[0.3082291666666668,-0.07999999999999997],[0.2900000000000001,-0.09314814814814817],[0.2900000000000001,-0.09314814814814817],[0.26104166666666656,-0.11666666666666667],[0.27885416666666674,-0.13648148148148145],[0.27885416666666674,-0.13648148148148145],[0.2618750000000001,-0.12999999999999998],[0.2696875000000001,-0.12240740740740745],[0.2775000000000001,-0.11481481481481481],[0.2872916666666666,-0.12166666666666665],[0.2928124999999999,-0.11740740740740736],[0.2972916666666668,-0.11703703703703702],[0.23708333333333323,-0.10314814814814813],[0.1955208333333334,-0.0653703703703704],[0.1955208333333334,-0.0653703703703704],[0.19666666666666663,-0.059999999999999956],[0.22072916666666675,-0.048333333333333374],[0.22072916666666675,-0.048333333333333374],[0.2864583333333333,-0.05592592592592591],[0.2864583333333333,-0.05592592592592591],[0.3258333333333333,-0.06555555555555552],[0.35916666666666663,-0.07833333333333335],[0.40625,-0.07907407407407405],[0.4839583333333332,-0.0514814814814814],[0.5309375000000001,-0.03685185185185181],[0.5879166666666668,-0.06018518518518518],[0.6291666666666667,-0.05907407407407403],[0.73625,-0.08499999999999996],[0.73625,-0.08499999999999996],[0.7881249999999999,-0.0992592592592593],[0.7881249999999999,-0.0992592592592593],[0.7587500000000001,-0.12481481481481477],[0.7587500000000001,-0.12481481481481477],[0.7378125,-0.09962962962962965],[0.7378125,-0.09962962962962965],[0.7057291666666666,-0.09796296296296292],[0.7057291666666666,-0.09796296296296292],[0.71375,-0.1359259259259259],[0.71375,-0.1359259259259259],[0.6681250000000001,-0.19759259259259257],[0.6420833333333335,-0.23277777777777775],[0.634375,-0.3098148148148148],[0.6177083333333333,-0.3809259259259259],[0.5506249999999999,-0.4322222222222222],[0.48416666666666663,-0.47481481481481475],[0.5130208333333334,-0.48759259259259263],[0.5287499999999999,-0.5377777777777777],[0.5421875,-0.5844444444444444],[0.5421875,-0.5844444444444444],[0.5155208333333334,-0.5914814814814814],[0.5155208333333334,-0.5914814814814814],[0.5357291666666666,-0.577962962962963],[0.5113541666666668,-0.6042592592592593],[0.47802083333333345,-0.5675925925925925],[0.47802083333333345,-0.5675925925925925],[0.4758333333333333,-0.5312962962962963],[0.4758333333333333,-0.5312962962962963],[0.4461458333333333,-0.5331481481481481],[0.4461458333333333,-0.5331481481481481],[0.4310416666666666,-0.5072222222222221],[0.35520833333333335,-0.4722222222222222],[0.3212500000000001,-0.47740740740740745],[0.3212500000000001,-0.47740740740740745],[0.3189583333333334,-0.45981481481481484],[0.2763541666666666,-0.4372222222222223],[0.21729166666666658,-0.4059259259259259],[0.20906250000000004,-0.3448148148148148],[0.21229166666666663,-0.3424074074074074],[0.184375,-0.3396296296296296],[0.21510416666666668,-0.2972222222222222],[0.1921875,-0.29203703703703704],[0.1990624999999999,-0.32759259259259255],[0.17322916666666663,-0.3124074074074074],[0.17322916666666663,-0.3124074074074074],[0.1944791666666667,-0.2861111111111111],[0.1944791666666667,-0.2861111111111111],[0.2795833333333334,-0.28203703703703703],[0.2795833333333334,-0.28203703703703703],[0.3497916666666666,-0.3162962962962963],[0.3497916666666666,-0.3162962962962963],[0.3997916666666666,-0.3248148148148148],[0.3997916666666666,-0.3248148148148148],[0.45427083333333323,-0.32],[0.5113541666666668,-0.32629629629629625],[0.5229166666666667,-0.31444444444444447],[0.5229166666666667,-0.31444444444444447],[0.5746875,-0.3188888888888889],[0.5746875,-0.3188888888888889],[0.5684375,-0.25203703703703706],[0.5684375,-0.25203703703703706],[0.6097916666666667,-0.24000000000000005],[0.6097916666666667,-0.24000000000000005],[0.5795833333333335,-0.23851851851851855],[0.5795833333333335,-0.23851851851851855],[0.5508333333333333,-0.24074074074074073],[0.5508333333333333,-0.24074074074074073],[0.5058333333333332,-0.19944444444444442],[0.5058333333333332,-0.19944444444444442],[0.46427083333333335,-0.2146296296296296],[0.46427083333333335,-0.2146296296296296],[0.44072916666666656,-0.21203703703703702],[0.4099999999999999,-0.1507407407407407],[0.3892708333333334,-0.10999999999999996],[0.35479166666666656,-0.07851851851851847],[0.3862499999999999,-0.11425925925925924],[0.41083333333333344,-0.09592592592592594],[0.44770833333333326,-0.07777777777777778],[0.4595833333333334,-0.038703703703703664],[0.4540625000000001,-0.049629629629629544],[0.4900000000000001,-0.05185185185185185],[0.5161458333333333,-0.032777777777777864],[0.49104166666666677,-0.06981481481481479],[0.46593749999999995,-0.10685185185185184],[0.4091666666666666,-0.09833333333333337],[0.3544791666666666,-0.08777777777777773],[0.2525000000000001,-0.08148148148148149],[0.21427083333333338,-0.11333333333333331],[0.15989583333333332,-0.1388888888888889],[0.14614583333333328,-0.1544444444444444],[0.0787499999999999,-0.1403703703703704],[-0.03270833333333331,-0.13148148148148148],[-0.0484375,-0.1492592592592593],[-0.06416666666666669,-0.167037037037037],[-0.06124999999999995,-0.1618518518518518],[-0.022916666666666665,-0.16425925925925924],[-0.03302083333333338,-0.1712962962962963],[-0.10687500000000003,-0.14018518518518516],[-0.1710416666666667,-0.12777777777777777],[-0.209375,-0.11648148148148144],[-0.2061458333333333,-0.11222222222222226],[-0.1828125,-0.12611111111111115],[-0.18979166666666672,-0.10351851851851848],[-0.18260416666666662,-0.09907407407407408],[-0.14979166666666663,-0.0992592592592593],[-0.15281250000000005,-0.12259259259259257],[-0.11041666666666666,-0.11814814814814817],[-0.044375000000000026,-0.09259259259259259],[-0.0015625,-0.09833333333333337],[0.01593749999999995,-0.10203703703703708],[0.01593749999999995,-0.10203703703703708],[0.03156249999999995,-0.09962962962962965],[0.03927083333333338,-0.08296296296296299],[0.03895833333333331,-0.07592592592592592],[0.10864583333333329,-0.07370370370370373],[0.18083333333333323,-0.11259259259259262],[0.24364583333333342,-0.11148148148148146],[0.3068749999999999,-0.13907407407407413],[0.3703125,-0.18981481481481483],[0.4658333333333334,-0.1948148148148148],[0.5408333333333334,-0.19092592592592597],[0.6099999999999999,-0.19722222222222222],[0.690625,-0.2074074074074074],[0.7701041666666666,-0.22981481481481486],[0.7845833333333334,-0.18888888888888888],[0.7959374999999999,-0.14444444444444443],[0.8170833333333334,-0.10925925925925926],[0.8273958333333333,-0.07981481481481485],[0.7956249999999999,-0.05333333333333336],[0.7614583333333333,-0.028888888888888933],[0.7188541666666666,-0.0242592592592593],[0.67625,-0.01962962962962967],[0.6344791666666666,-0.010740740740740657],[0.5958333333333333,0.008148148148148106],[0.5681250000000001,-0.0764814814814815],[0.5404166666666667,-0.16111111111111112],[0.5189583333333334,-0.20907407407407402],[0.5083333333333333,-0.2512962962962963],[0.4799999999999999,-0.2838888888888889],[0.45166666666666655,-0.3164814814814814],[0.49239583333333337,-0.34],[0.533125,-0.3635185185185185],[0.5367708333333333,-0.3888888888888889]]","[[0.1460416666666667,-0.13203703703703706,0.0001999999880837322],[0.1460416666666667,-0.13203703703703706,0.03879999998211758],[0.1460416666666667,-0.13203703703703706,0.043299999982117754],[0.165625,-0.1537037037037037,0.06429999998211855],[0.19874999999999995,-0.1544444444444444,0.07939999997616098],[0.2326041666666666,-0.19148148148148145,0.09579999998211974],[0.2476041666666667,-0.22407407407407406,0.1133999999761599],[0.2900000000000001,-0.30388888888888893,0.13000000000000256],[0.3115624999999999,-0.3290740740740741,0.14400000000000546],[0.3507291666666667,-0.38333333333333336,0.16100000000000136],[0.4002083333333334,-0.47851851851851845,0.1769999999999996],[0.41875,-0.5483333333333333,0.19329999998212344],[0.440625,-0.5764814814814815,0.21000000000000085],[0.4626041666666666,-0.5768518518518518,0.22709999999403863],[0.47145833333333326,-0.5988888888888888,0.24339999997616246],[0.4799999999999999,-0.654074074074074,0.2618999999761584],[0.5002083333333334,-0.6837037037037037,0.27719999998808476],[0.4609375,-0.6672222222222223,0.2933999999761596],[0.49979166666666663,-0.6575925925925926,0.3100000000000023],[0.5210416666666667,-0.6188888888888888,0.3271999999880819],[0.5402083333333333,-0.5587037037037037,0.3433999999761639],[0.5467708333333334,-0.4861111111111111,0.3602999999821179],[0.5490624999999999,-0.3653703703703704,0.3765999999940419],[0.5619791666666667,-0.2874074074074074,0.39339999997616104],[0.5955208333333334,-0.27166666666666667,0.4125999999940433],[0.5941666666666667,-0.2479629629629629,0.4268999999761576],[0.6365624999999999,-0.21944444444444444,0.4435000000000002],[0.6838541666666667,-0.18703703703703703,0.46369999998808],[0.6224999999999999,-0.16722222222222224,0.4808999999761596],[0.6224999999999999,-0.16722222222222224,0.49359999999403925],[0.5611458333333333,-0.14740740740740746,0.5146999999880819],[0.5611458333333333,-0.14740740740740746,0.526899999976159],[0.5256249999999999,-0.18981481481481483,0.5435999999940435],[0.4321875000000001,-0.2116666666666667,0.5646999999880791],[0.3734375,-0.26666666666666666,0.5795999999940449],[0.3145833333333333,-0.32166666666666666,0.5940999999940431],[0.23468749999999997,-0.31370370370370365,0.6100999999940413],[0.18979166666666672,-0.2838888888888889,0.6307999999821234],[0.1474999999999999,-0.29740740740740745,0.6450000000000031],[0.10520833333333333,-0.3109259259259259,0.6640000000000015],[0.13312499999999997,-0.3501851851851852,0.6840999999940394],[0.13312499999999997,-0.3501851851851852,0.6938999999761606],[0.1929166666666667,-0.38925925925925925,0.7102999999821193],[0.20322916666666657,-0.3816666666666667,0.730000000000004],[0.2594791666666666,-0.4262962962962963,0.7511999999880814],[0.2594791666666666,-0.4262962962962963,0.7602999999821236],[0.3319791666666667,-0.45185185185185184,0.776899999976159],[0.39000000000000007,-0.5105555555555555,0.7935000000000016],[0.41041666666666665,-0.5537037037037037,0.8127999999821185],[0.4666666666666667,-0.5727777777777778,0.8290999999940425],[0.4427083333333333,-0.5605555555555556,0.845000000000006],[0.41875,-0.5483333333333333,0.8642999999821228],[0.38552083333333326,-0.5362962962962964,0.879599999994042],[0.3558333333333332,-0.5205555555555555,0.8961999999880845],[0.3381249999999999,-0.5116666666666667,0.913599999994041],[0.3945833333333333,-0.4703703703703704,0.9310000000000045],[0.39906249999999993,-0.4746296296296296,0.9461999999880817],[0.4201041666666666,-0.48222222222222216,0.9662999999821196],[0.4201041666666666,-0.48222222222222216,0.9768999999761618],[0.46864583333333343,-0.4468518518518519,0.9936999999880811],[0.48468749999999994,-0.4242592592592593,1.0101999999880817],[0.5452083333333334,-0.40611111111111114,1.0311999999880825],[0.5733333333333335,-0.3822222222222222,1.0463999999761597],[0.6234375,-0.3925925925925926,1.064099999994042],[0.6607291666666666,-0.38203703703703706,1.0815999999940402],[0.6742708333333333,-0.3229629629629629,1.0972999999821198],[0.6111458333333334,-0.2862962962962963,1.112599999994039],[0.5533333333333333,-0.2381481481481482,1.1315999999940445],[0.49968750000000006,-0.16592592592592598,1.1461999999880845],[0.4561458333333334,-0.1522222222222222,1.1628999999761618],[0.39375,-0.1440740740740741,1.1787999999821182],[0.3351041666666667,-0.1440740740740741,1.1972999999821212],[0.3098958333333333,-0.14592592592592596,1.2120000000000033],[0.3082291666666668,-0.07999999999999997,1.2268999999761618],[0.2900000000000001,-0.09314814814814817,1.2462999999821207],[0.2900000000000001,-0.09314814814814817,1.2601999999880817],[0.26104166666666656,-0.11666666666666667,1.277000000000001],[0.27885416666666674,-0.13648148148148145,1.2998999999761622],[0.27885416666666674,-0.13648148148148145,1.3102999999821208],[0.2618750000000001,-0.12999999999999998,1.3268999999761633],[0.2696875000000001,-0.12240740740740745,1.3450999999940407],[0.2775000000000001,-0.11481481481481481,1.3605999999940437],[0.2872916666666666,-0.12166666666666665,1.3785999999940444],[0.2928124999999999,-0.11740740740740736,1.3958999999761588],[0.2972916666666668,-0.11703703703703702,1.4125999999940433],[0.23708333333333323,-0.10314814814814813,1.4287999999821182],[0.1955208333333334,-0.0653703703703704,1.4486999999880794],[0.1955208333333334,-0.0653703703703704,1.4603999999761612],[0.19666666666666663,-0.059999999999999956,1.4770999999940386],[0.22072916666666675,-0.048333333333333374,1.5020000000000024],[0.22072916666666675,-0.048333333333333374,1.5151999999880843],[0.2864583333333333,-0.05592592592592591,1.52769999998808],[0.2864583333333333,-0.05592592592592591,1.5433999999761596],[0.3258333333333333,-0.06555555555555552,1.5652999999821233],[0.35916666666666663,-0.07833333333333335,1.5805000000000007],[0.40625,-0.07907407407407405,1.5975999999940385],[0.4839583333333332,-0.0514814814814814,1.6152999999821205],[0.5309375000000001,-0.03685185185185181,1.6315000000000026],[0.5879166666666668,-0.06018518518518518,1.6476999999880846],[0.6291666666666667,-0.05907407407407403,1.6645999999940386],[0.73625,-0.08499999999999996,1.679799999982123],[0.73625,-0.08499999999999996,1.6935000000000002],[0.7881249999999999,-0.0992592592592593,1.7100999999940427],[0.7881249999999999,-0.0992592592592593,1.7302999999821225],[0.7587500000000001,-0.12481481481481477,1.7433999999761625],[0.7587500000000001,-0.12481481481481477,1.7605999999940423],[0.7378125,-0.09962962962962965,1.7815000000000012],[0.7378125,-0.09962962962962965,1.7935999999940435],[0.7057291666666666,-0.09796296296296292,1.8165000000000049],[0.7057291666666666,-0.09796296296296292,1.8350999999940427],[0.71375,-0.1359259259259259,1.8435999999940407],[0.71375,-0.1359259259259259,1.860299999982118],[0.6681250000000001,-0.19759259259259257,1.8767999999821185],[0.6420833333333335,-0.23277777777777775,1.8966999999880798],[0.634375,-0.3098148148148148,1.9147999999821224],[0.6177083333333333,-0.3809259259259259,1.9298999999761577],[0.5506249999999999,-0.4322222222222222,1.9471999999880794],[0.48416666666666663,-0.47481481481481475,1.9635000000000034],[0.5130208333333334,-0.48759259259259263,1.9801999999880806],[0.5287499999999999,-0.5377777777777777,1.9965000000000046],[0.5421875,-0.5844444444444444,2.0132999999821237],[0.5421875,-0.5844444444444444,2.0266999999880824],[0.5155208333333334,-0.5914814814814814,2.0433999999761596],[0.5155208333333334,-0.5914814814814814,2.064099999994042],[0.5357291666666666,-0.577962962962963,2.0768999999761633],[0.5113541666666668,-0.6042592592592593,2.093399999976164],[0.47802083333333345,-0.5675925925925925,2.1100999999940413],[0.47802083333333345,-0.5675925925925925,2.130199999988079],[0.4758333333333333,-0.5312962962962963,2.143500000000003],[0.4758333333333333,-0.5312962962962963,2.1600999999940385],[0.4461458333333333,-0.5331481481481481,2.180500000000002],[0.4461458333333333,-0.5331481481481481,2.1935000000000002],[0.4310416666666666,-0.5072222222222221,2.2101999999880846],[0.35520833333333335,-0.4722222222222222,2.2307999999821178],[0.3212500000000001,-0.47740740740740745,2.2465999999940394],[0.3212500000000001,-0.47740740740740745,2.2601999999880817],[0.3189583333333334,-0.45981481481481484,2.2766999999880824],[0.2763541666666666,-0.4372222222222223,2.2967999999821203],[0.21729166666666658,-0.4059259259259259,2.3105999999940394],[0.20906250000000004,-0.3448148148148148,2.331799999982124],[0.21229166666666663,-0.3424074074074074,2.3466999999880827],[0.184375,-0.3396296296296296,2.3631999999880833],[0.21510416666666668,-0.2972222222222222,2.380399999976163],[0.1921875,-0.29203703703703704,2.3943999999761587],[0.1990624999999999,-0.32759259259259255,2.4110000000000014],[0.17322916666666663,-0.3124074074074074,2.426799999982123],[0.17322916666666663,-0.3124074074074074,2.4463999999761583],[0.1944791666666667,-0.2861111111111111,2.4602999999821193],[0.1944791666666667,-0.2861111111111111,2.477000000000004],[0.2795833333333334,-0.28203703703703703,2.4987999999821184],[0.2795833333333334,-0.28203703703703703,2.5112999999821213],[0.3497916666666666,-0.3162962962962963,2.5266999999880824],[0.3497916666666666,-0.3162962962962963,2.5432999999821178],[0.3997916666666666,-0.3248148148148148,2.5600000000000023],[0.3997916666666666,-0.3248148148148148,2.5766999999880795],[0.45427083333333323,-0.32,2.593399999976164],[0.5113541666666668,-0.32629629629629625,2.61339999997616],[0.5229166666666667,-0.31444444444444447,2.629699999988084],[0.5229166666666667,-0.31444444444444447,2.643599999994045],[0.5746875,-0.3188888888888889,2.660299999982122],[0.5746875,-0.3188888888888889,2.680299999982118],[0.5684375,-0.25203703703703706,2.693699999988084],[0.5684375,-0.25203703703703706,2.7101999999880846],[0.6097916666666667,-0.24000000000000005,2.7265999999940433],[0.6097916666666667,-0.24000000000000005,2.7433999999761625],[0.5795833333333335,-0.23851851851851855,2.760000000000005],[0.5795833333333335,-0.23851851851851855,2.7765999999940405],[0.5508333333333333,-0.24074074074074073,2.7932999999821178],[0.5508333333333333,-0.24074074074074073,2.8098999999761602],[0.5058333333333332,-0.19944444444444442,2.8266999999880795],[0.5058333333333332,-0.19944444444444442,2.843399999976164],[0.46427083333333335,-0.2146296296296296,2.8600999999940413],[0.46427083333333335,-0.2146296296296296,2.8768999999761604],[0.44072916666666656,-0.21203703703703702,2.8968999999761635],[0.4099999999999999,-0.1507407407407407,2.91429999998212],[0.3892708333333334,-0.10999999999999996,2.9298999999761577],[0.35479166666666656,-0.07851851851851847,2.945099999994042],[0.3862499999999999,-0.11425925925925924,2.9600999999940427],[0.41083333333333344,-0.09592592592592594,2.977000000000004],[0.44770833333333326,-0.07777777777777778,2.9932999999821206],[0.4595833333333334,-0.038703703703703664,3.010000000000005],[0.4540625000000001,-0.049629629629629544,3.0265999999940405],[0.4900000000000001,-0.05185185185185185,3.0432999999821178],[0.5161458333333333,-0.032777777777777864,3.060199999988079],[0.49104166666666677,-0.06981481481481479,3.0766999999880795],[0.46593749999999995,-0.10685185185185184,3.093299999982122],[0.4091666666666666,-0.09833333333333337,3.1098999999761574],[0.3544791666666666,-0.08777777777777773,3.126599999994042],[0.2525000000000001,-0.08148148148148149,3.143299999982119],[0.21427083333333338,-0.11333333333333331,3.1625000000000014],[0.15989583333333332,-0.1388888888888889,3.176699999988081],[0.14614583333333328,-0.1544444444444444,3.1931999999880816],[0.0787499999999999,-0.1403703703703704,3.210000000000001],[-0.03270833333333331,-0.13148148148148148,3.2265999999940433],[-0.0484375,-0.1492592592592593,3.2431999999880787],[-0.06416666666666669,-0.167037037037037,3.260000000000005],[-0.06124999999999995,-0.1618518518518518,3.2765999999940405],[-0.022916666666666665,-0.16425925925925924,3.293199999988083],[-0.03302083333333338,-0.1712962962962963,3.3098999999761602],[-0.10687500000000003,-0.14018518518518516,3.3265999999940448],[-0.1710416666666667,-0.12777777777777777,3.343299999982122],[-0.209375,-0.11648148148148144,3.3605999999940437],[-0.2061458333333333,-0.11222222222222226,3.376599999994042],[-0.1828125,-0.12611111111111115,3.394199999988082],[-0.18979166666666672,-0.10351851851851848,3.4100000000000037],[-0.18260416666666662,-0.09907407407407408,3.426699999988081],[-0.14979166666666663,-0.0992592592592593,3.4431999999880816],[-0.15281250000000005,-0.12259259259259257,3.4601999999880846],[-0.11041666666666666,-0.11814814814814817,3.4765999999940433],[-0.044375000000000026,-0.09259259259259259,3.497699999988079],[-0.0015625,-0.09833333333333337,3.5141999999880795],[0.01593749999999995,-0.10203703703703708,3.530899999976164],[0.01593749999999995,-0.10203703703703708,3.5432999999821178],[0.03156249999999995,-0.09962962962962965,3.560099999994044],[0.03927083333333338,-0.08296296296296299,3.5766999999880795],[0.03895833333333331,-0.07592592592592592,3.593299999982122],[0.10864583333333329,-0.07370370370370373,3.6098999999761574],[0.18083333333333323,-0.11259259259259262,3.6290999999940396],[0.24364583333333342,-0.11148148148148146,3.645000000000003],[0.3068749999999999,-0.13907407407407413,3.6600999999940385],[0.3703125,-0.18981481481481483,3.6769999999999996],[0.4658333333333334,-0.1948148148148148,3.6932999999821234],[0.5408333333333334,-0.19092592592592597,3.710000000000001],[0.6099999999999999,-0.19722222222222222,3.726699999988078],[0.690625,-0.2074074074074074,3.7433999999761625],[0.7701041666666666,-0.22981481481481486,3.761699999988082],[0.7845833333333334,-0.18888888888888888,3.7782999999821243],[0.7959374999999999,-0.14444444444444443,3.795500000000004],[0.8170833333333334,-0.10925925925925926,3.8100000000000023],[0.8273958333333333,-0.07981481481481485,3.8288999999761586],[0.7956249999999999,-0.05333333333333336,3.8437999999821244],[0.7614583333333333,-0.028888888888888933,3.86339999997616],[0.7188541666666666,-0.0242592592592593,3.878799999982121],[0.67625,-0.01962962962962967,3.895000000000003],[0.6344791666666666,-0.010740740740740657,3.9100000000000037],[0.5958333333333333,0.008148148148148106,3.926599999994039],[0.5681250000000001,-0.0764814814814815,3.9432999999821234],[0.5404166666666667,-0.16111111111111112,3.963799999982122],[0.5189583333333334,-0.20907407407407402,3.980599999994041],[0.5083333333333333,-0.2512962962962963,3.9965999999940394],[0.4799999999999999,-0.2838888888888889,4.010599999994042],[0.45166666666666655,-0.3164814814814814,4.026699999988082],[0.49239583333333337,-0.34,4.043299999982118],[0.533125,-0.3635185185185185,4.060500000000005],[0.5367708333333333,-0.3888888888888889,4.07709999999404]]","[0.0001999999880837322,0.03879999998211758,0.043299999982117754,0.06429999998211855,0.07939999997616098,0.09579999998211974,0.1133999999761599,0.13000000000000256,0.14400000000000546,0.16100000000000136,0.1769999999999996,0.19329999998212344,0.21000000000000085,0.22709999999403863,0.24339999997616246,0.2618999999761584,0.27719999998808476,0.2933999999761596,0.3100000000000023,0.3271999999880819,0.3433999999761639,0.3602999999821179,0.3765999999940419,0.39339999997616104,0.4125999999940433,0.4268999999761576,0.4435000000000002,0.46369999998808,0.4808999999761596,0.49359999999403925,0.5146999999880819,0.526899999976159,0.5435999999940435,0.5646999999880791,0.5795999999940449,0.5940999999940431,0.6100999999940413,0.6307999999821234,0.6450000000000031,0.6640000000000015,0.6840999999940394,0.6938999999761606,0.7102999999821193,0.730000000000004,0.7511999999880814,0.7602999999821236,0.776899999976159,0.7935000000000016,0.8127999999821185,0.8290999999940425,0.845000000000006,0.8642999999821228,0.879599999994042,0.8961999999880845,0.913599999994041,0.9310000000000045,0.9461999999880817,0.9662999999821196,0.9768999999761618,0.9936999999880811,1.0101999999880817,1.0311999999880825,1.0463999999761597,1.064099999994042,1.0815999999940402,1.0972999999821198,1.112599999994039,1.1315999999940445,1.1461999999880845,1.1628999999761618,1.1787999999821182,1.1972999999821212,1.2120000000000033,1.2268999999761618,1.2462999999821207,1.2601999999880817,1.277000000000001,1.2998999999761622,1.3102999999821208,1.3268999999761633,1.3450999999940407,1.3605999999940437,1.3785999999940444,1.3958999999761588,1.4125999999940433,1.4287999999821182,1.4486999999880794,1.4603999999761612,1.4770999999940386,1.5020000000000024,1.5151999999880843,1.52769999998808,1.5433999999761596,1.5652999999821233,1.5805000000000007,1.5975999999940385,1.6152999999821205,1.6315000000000026,1.6476999999880846,1.6645999999940386,1.679799999982123,1.6935000000000002,1.7100999999940427,1.7302999999821225,1.7433999999761625,1.7605999999940423,1.7815000000000012,1.7935999999940435,1.8165000000000049,1.8350999999940427,1.8435999999940407,1.860299999982118,1.8767999999821185,1.8966999999880798,1.9147999999821224,1.9298999999761577,1.9471999999880794,1.9635000000000034,1.9801999999880806,1.9965000000000046,2.0132999999821237,2.0266999999880824,2.0433999999761596,2.064099999994042,2.0768999999761633,2.093399999976164,2.1100999999940413,2.130199999988079,2.143500000000003,2.1600999999940385,2.180500000000002,2.1935000000000002,2.2101999999880846,2.2307999999821178,2.2465999999940394,2.2601999999880817,2.2766999999880824,2.2967999999821203,2.3105999999940394,2.331799999982124,2.3466999999880827,2.3631999999880833,2.380399999976163,2.3943999999761587,2.4110000000000014,2.426799999982123,2.4463999999761583,2.4602999999821193,2.477000000000004,2.4987999999821184,2.5112999999821213,2.5266999999880824,2.5432999999821178,2.5600000000000023,2.5766999999880795,2.593399999976164,2.61339999997616,2.629699999988084,2.643599999994045,2.660299999982122,2.680299999982118,2.693699999988084,2.7101999999880846,2.7265999999940433,2.7433999999761625,2.760000000000005,2.7765999999940405,2.7932999999821178,2.8098999999761602,2.8266999999880795,2.843399999976164,2.8600999999940413,2.8768999999761604,2.8968999999761635,2.91429999998212,2.9298999999761577,2.945099999994042,2.9600999999940427,2.977000000000004,2.9932999999821206,3.010000000000005,3.0265999999940405,3.0432999999821178,3.060199999988079,3.0766999999880795,3.093299999982122,3.1098999999761574,3.126599999994042,3.143299999982119,3.1625000000000014,3.176699999988081,3.1931999999880816,3.210000000000001,3.2265999999940433,3.2431999999880787,3.260000000000005,3.2765999999940405,3.293199999988083,3.3098999999761602,3.3265999999940448,3.343299999982122,3.3605999999940437,3.376599999994042,3.394199999988082,3.4100000000000037,3.426699999988081,3.4431999999880816,3.4601999999880846,3.4765999999940433,3.497699999988079,3.5141999999880795,3.530899999976164,3.5432999999821178,3.560099999994044,3.5766999999880795,3.593299999982122,3.6098999999761574,3.6290999999940396,3.645000000000003,3.6600999999940385,3.6769999999999996,3.6932999999821234,3.710000000000001,3.726699999988078,3.7433999999761625,3.761699999988082,3.7782999999821243,3.795500000000004,3.8100000000000023,3.8288999999761586,3.8437999999821244,3.86339999997616,3.878799999982121,3.895000000000003,3.9100000000000037,3.926599999994039,3.9432999999821234,3.963799999982122,3.980599999994041,3.9965999999940394,4.010599999994042,4.026699999988082,4.043299999982118,4.060500000000005,4.07709999999404]","[1732775779916,1732775779948,1732775779952,1732775779973,1732775779989,1732775780005,1732775780023,1732775780039,1732775780053,1732775780070,1732775780086,1732775780102,1732775780119,1732775780136,1732775780152,1732775780171,1732775780186,1732775780203,1732775780219,1732775780236,1732775780253,1732775780270,1732775780286,1732775780303,1732775780322,1732775780336,1732775780353,1732775780373,1732775780390,1732775780403,1732775780424,1732775780436,1732775780453,1732775780474,1732775780489,1732775780503,1732775780519,1732775780540,1732775780554,1732775780573,1732775780593,1732775780603,1732775780619,1732775780639,1732775780660,1732775780669,1732775780686,1732775780703,1732775780722,1732775780738,1732775780754,1732775780774,1732775780789,1732775780805,1732775780823,1732775780840,1732775780855,1732775780875,1732775780886,1732775780903,1732775780919,1732775780940,1732775780956,1732775780973,1732775780991,1732775781006,1732775781022,1732775781041,1732775781055,1732775781072,1732775781088,1732775781106,1732775781121,1732775781136,1732775781155,1732775781169,1732775781186,1732775781209,1732775781219,1732775781236,1732775781254,1732775781270,1732775781288,1732775781305,1732775781322,1732775781338,1732775781358,1732775781370,1732775781386,1732775781411,1732775781424,1732775781437,1732775781453,1732775781474,1732775781490,1732775781507,1732775781524,1732775781541,1732775781557,1732775781574,1732775781589,1732775781603,1732775781619,1732775781639,1732775781653,1732775781670,1732775781691,1732775781703,1732775781726,1732775781744,1732775781753,1732775781771,1732775781788,1732775781808,1732775781826,1732775781841,1732775781858,1732775781874,1732775781891,1732775781907,1732775781924,1732775781938,1732775781954,1732775781975,1732775781988,1732775782004,1732775782021,1732775782041,1732775782054,1732775782071,1732775782091,1732775782104,1732775782121,1732775782142,1732775782157,1732775782171,1732775782188,1732775782208,1732775782221,1732775782243,1732775782258,1732775782274,1732775782291,1732775782305,1732775782322,1732775782338,1732775782357,1732775782371,1732775782388,1732775782410,1732775782422,1732775782438,1732775782454,1732775782471,1732775782488,1732775782504,1732775782524,1732775782541,1732775782554,1732775782571,1732775782591,1732775782605,1732775782621,1732775782638,1732775782654,1732775782671,1732775782688,1732775782704,1732775782721,1732775782738,1732775782754,1732775782771,1732775782788,1732775782808,1732775782825,1732775782841,1732775782856,1732775782871,1732775782888,1732775782904,1732775782921,1732775782938,1732775782954,1732775782971,1732775782988,1732775783004,1732775783021,1732775783037,1732775783054,1732775783073,1732775783088,1732775783104,1732775783121,1732775783138,1732775783154,1732775783171,1732775783187,1732775783204,1732775783221,1732775783238,1732775783254,1732775783272,1732775783288,1732775783305,1732775783321,1732775783338,1732775783354,1732775783371,1732775783388,1732775783409,1732775783425,1732775783442,1732775783454,1732775783471,1732775783488,1732775783504,1732775783521,1732775783540,1732775783556,1732775783571,1732775783588,1732775783604,1732775783621,1732775783638,1732775783654,1732775783673,1732775783689,1732775783706,1732775783721,1732775783740,1732775783755,1732775783774,1732775783790,1732775783806,1732775783821,1732775783838,1732775783854,1732775783875,1732775783892,1732775783907,1732775783921,1732775783937,1732775783954,1732775783971,1732775783988]","[[1100.2,468.7],[1100.2,468.7],[1100.2,468.7],[1119,457],[1150.8,456.6],[1183.3,436.6],[1197.7,419],[1238.4,375.9],[1259.1,362.3],[1296.7,333],[1344.2,281.6],[1362,243.9],[1383,228.7],[1404.1,228.5],[1412.6,216.6],[1420.8,186.8],[1440.2,170.8],[1402.5,179.7],[1439.8,184.9],[1460.2,205.8],[1478.6,238.3],[1484.9,277.5],[1487.1,342.7],[1499.5,384.8],[1531.7,393.3],[1530.4,406.1],[1571.1,421.5],[1616.5,439],[1557.6,449.7],[1557.6,449.7],[1498.7,460.4],[1498.7,460.4],[1464.6,437.5],[1374.9,425.7],[1318.5,396],[1262,366.3],[1185.3,370.6],[1142.2,386.7],[1101.6,379.4],[1061,372.1],[1087.8,350.9],[1087.8,350.9],[1145.2,329.8],[1155.1,333.9],[1209.1,309.8],[1209.1,309.8],[1278.7,296],[1334.4,264.3],[1354,241],[1408,230.7],[1385,237.3],[1362,243.9],[1330.1,250.4],[1301.6,258.9],[1284.6,263.7],[1338.8,286],[1343.1,283.7],[1363.3,279.6],[1363.3,279.6],[1409.9,298.7],[1425.3,310.9],[1483.4,320.7],[1510.4,333.6],[1558.5,328],[1594.3,333.7],[1607.3,365.6],[1546.7,385.4],[1491.2,411.4],[1439.7,450.4],[1397.9,457.8],[1338,462.2],[1281.7,462.2],[1257.5,461.2],[1255.9,496.8],[1238.4,489.7],[1238.4,489.7],[1210.6,477],[1227.7,466.3],[1227.7,466.3],[1211.4,469.8],[1218.9,473.9],[1226.4,478],[1235.8,474.3],[1241.1,476.6],[1245.4,476.8],[1187.6,484.3],[1147.7,504.7],[1147.7,504.7],[1148.8,507.6],[1171.9,513.9],[1171.9,513.9],[1235,509.8],[1235,509.8],[1272.8,504.6],[1304.8,497.7],[1350,497.3],[1424.6,512.2],[1469.7,520.1],[1524.4,507.5],[1564,508.1],[1666.8,494.1],[1666.8,494.1],[1716.6,486.4],[1716.6,486.4],[1688.4,472.6],[1688.4,472.6],[1668.3,486.2],[1668.3,486.2],[1637.5,487.1],[1637.5,487.1],[1645.2,466.6],[1645.2,466.6],[1601.4,433.3],[1576.4,414.3],[1569,372.7],[1553,334.3],[1488.6,306.6],[1424.8,283.6],[1452.5,276.7],[1467.6,249.6],[1480.5,224.4],[1480.5,224.4],[1454.9,220.6],[1454.9,220.6],[1474.3,227.9],[1450.9,213.7],[1418.9,233.5],[1418.9,233.5],[1416.8,253.1],[1416.8,253.1],[1388.3,252.1],[1388.3,252.1],[1373.8,266.1],[1301,285],[1268.4,282.2],[1268.4,282.2],[1266.2,291.7],[1225.3,303.9],[1168.6,320.8],[1160.7,353.8],[1163.8,355.1],[1137,356.6],[1166.5,379.5],[1144.5,382.3],[1151.1,363.1],[1126.3,371.3],[1126.3,371.3],[1146.7,385.5],[1146.7,385.5],[1228.4,387.7],[1228.4,387.7],[1295.8,369.2],[1295.8,369.2],[1343.8,364.6],[1343.8,364.6],[1396.1,367.2],[1450.9,363.8],[1462,370.2],[1462,370.2],[1511.7,367.8],[1511.7,367.8],[1505.7,403.9],[1505.7,403.9],[1545.4,410.4],[1545.4,410.4],[1516.4,411.2],[1516.4,411.2],[1488.8,410],[1488.8,410],[1445.6,432.3],[1445.6,432.3],[1405.7,424.1],[1405.7,424.1],[1383.1,425.5],[1353.6,458.6],[1333.7,480.6],[1300.6,497.6],[1330.8,478.3],[1354.4,488.2],[1389.8,498],[1401.2,519.1],[1395.9,513.2],[1430.4,512],[1455.5,522.3],[1431.4,502.3],[1407.3,482.3],[1352.8,486.9],[1300.3,492.6],[1202.4,496],[1165.7,478.8],[1113.5,465],[1100.3,456.6],[1035.6,464.2],[928.6,469],[913.5,459.4],[898.4,449.8],[901.2,452.6],[938,451.3],[928.3,447.5],[857.4,464.3],[795.8,471],[759,477.1],[762.1,479.4],[784.5,471.9],[777.8,484.1],[784.7,486.5],[816.2,486.4],[813.3,473.8],[854,476.2],[917.4,490],[958.5,486.9],[975.3,484.9],[975.3,484.9],[990.3,486.2],[997.7,495.2],[997.4,499],[1064.3,500.2],[1133.6,479.2],[1193.9,479.8],[1254.6,464.9],[1315.5,437.5],[1407.2,434.8],[1479.2,436.9],[1545.6,433.5],[1623,428],[1699.3,415.9],[1713.2,438],[1724.1,462],[1744.4,481],[1754.3,496.9],[1723.8,511.2],[1691,524.4],[1650.1,526.9],[1609.2,529.4],[1569.1,534.2],[1532,544.4],[1505.4,498.7],[1478.8,453],[1458.2,427.1],[1448,404.3],[1420.8,386.7],[1393.6,369.1],[1432.7,356.4],[1471.8,343.7],[1475.3,330]]","[0,0.3527331528]","[0.3527331528,0.3527331528]","[-0.3527331528,-0.3527331528]","[-0.3527331528,0]","[0,-0.3527331528]","[0.3527331528,-0.3527331528]","[0,0]","[0.3527331528,0]",0,0,0,0,1,2,Tablet,7,1,11,9
,,,,,,,,,,,,,,,,,,,,39,001,2024-11-28_14h35.38.522,Attention_exp_legacy,2023.1.0,Win32,59.52380952,,,,,,,,,,[-0.12291666666666666],[0.3333333333333333],[1],[0],[0],[1.012199999988077],"[""Option1_label""]",Option1_label,2,2.0133,"[[0.371875,0.32037037037037036],[0.371875,0.32037037037037036],[0.371875,0.32037037037037036],[0.371875,0.32037037037037036],[0.371875,0.32037037037037036],[0.371875,0.32037037037037036],[0.371875,0.32037037037037036],[0.371875,0.32037037037037036],[0.371875,0.32037037037037036],[0.371875,0.32037037037037036],[0.371875,0.32037037037037036],[0.371875,0.32037037037037036],[0.371875,0.32037037037037036],[0.371875,0.32037037037037036],[0.371875,0.32037037037037036],[0.371875,0.32037037037037036],[0.371875,0.32037037037037036],[0.371875,0.32037037037037036],[0.371875,0.32037037037037036],[0.371875,0.32037037037037036],[0.371875,0.32037037037037036],[0.371875,0.32037037037037036],[0.371875,0.32037037037037036],[0.371875,0.32037037037037036],[0.371875,0.32037037037037036],[0.371875,0.32037037037037036],[0.371875,0.32037037037037036],[0.371875,0.32037037037037036],[0.371875,0.32037037037037036],[0.371875,0.32037037037037036],[0.371875,0.32037037037037036],[0.371875,0.32037037037037036],[0.371875,0.32037037037037036],[0.371875,0.32037037037037036],[0.371875,0.32037037037037036],[0.371875,0.32037037037037036],[0.371875,0.32037037037037036],[0.371875,0.32037037037037036],[0.371875,0.32037037037037036],[0.371875,0.32037037037037036],[0.371875,0.32037037037037036],[0.371875,0.32037037037037036],[0.371875,0.32037037037037036],[0.371875,0.32037037037037036],[0.371875,0.32037037037037036],[0.371875,0.32037037037037036],[0.371875,0.32037037037037036],[0.36354166666666665,0.32037037037037036],[0.33229166666666665,0.32037037037037036],[0.20520833333333333,0.32037037037037036],[0.09791666666666667,0.32037037037037036],[-0.04583333333333333,0.32037037037037036],[-0.10104166666666667,0.3277777777777778],[-0.1125,0.3296296296296296],[-0.12291666666666666,0.3333333333333333],[-0.12291666666666666,0.3333333333333333],[-0.12291666666666666,0.3333333333333333],[-0.12291666666666666,0.3333333333333333],[-0.12291666666666666,0.3333333333333333],[-0.12291666666666666,0.3333333333333333],[-0.12291666666666666,0.3333333333333333],[-0.12291666666666666,0.3333333333333333],[-0.12291666666666666,0.3333333333333333],[-0.12291666666666666,0.3333333333333333],[-0.12291666666666666,0.3333333333333333],[-0.12291666666666666,0.3333333333333333],[-0.12291666666666666,0.3333333333333333],[-0.12291666666666666,0.3333333333333333],[-0.12291666666666666,0.3333333333333333],[-0.12291666666666666,0.3333333333333333],[-0.12291666666666666,0.3333333333333333],[-0.12291666666666666,0.3333333333333333],[-0.12291666666666666,0.3333333333333333],[-0.12291666666666666,0.3333333333333333],[-0.12291666666666666,0.3333333333333333],[-0.12291666666666666,0.3333333333333333],[-0.12291666666666666,0.3333333333333333],[-0.12291666666666666,0.3333333333333333],[-0.12291666666666666,0.3333333333333333],[-0.12291666666666666,0.3333333333333333],[-0.12291666666666666,0.3333333333333333],[-0.12291666666666666,0.3333333333333333],[-0.12291666666666666,0.3333333333333333],[-0.12291666666666666,0.3333333333333333],[-0.12291666666666666,0.3333333333333333],[-0.12291666666666666,0.3333333333333333],[-0.12291666666666666,0.3333333333333333],[-0.12291666666666666,0.3333333333333333],[-0.12291666666666666,0.3333333333333333],[-0.12291666666666666,0.3333333333333333],[-0.12291666666666666,0.3333333333333333],[-0.12291666666666666,0.3333333333333333],[-0.12291666666666666,0.3333333333333333],[-0.12291666666666666,0.3333333333333333],[-0.12291666666666666,0.3333333333333333],[-0.12291666666666666,0.3333333333333333],[-0.12291666666666666,0.3333333333333333],[-0.12291666666666666,0.3333333333333333],[-0.12291666666666666,0.3333333333333333],[-0.12291666666666666,0.3333333333333333],[-0.12291666666666666,0.3333333333333333],[-0.12291666666666666,0.3333333333333333],[-0.12291666666666666,0.3333333333333333],[-0.12291666666666666,0.3333333333333333],[-0.12291666666666666,0.3333333333333333],[-0.12291666666666666,0.3333333333333333],[-0.12291666666666666,0.3333333333333333],[-0.12291666666666666,0.3333333333333333],[-0.12291666666666666,0.3333333333333333],[-0.12291666666666666,0.3333333333333333],[-0.12291666666666666,0.3333333333333333],[-0.12291666666666666,0.3333333333333333],[-0.12291666666666666,0.3333333333333333],[-0.12291666666666666,0.3333333333333333],[-0.12291666666666666,0.3333333333333333],[-0.12291666666666666,0.3333333333333333],[-0.12291666666666666,0.3333333333333333],[-0.12291666666666666,0.3333333333333333],[-0.12291666666666666,0.3333333333333333],[-0.12291666666666666,0.3333333333333333],[-0.12291666666666666,0.3333333333333333],[-0.12291666666666666,0.3333333333333333]]","[[0.08145833333333338,-0.050370370370370454],[0.0853125000000001,-0.04333333333333329],[0.02322916666666662,-0.01907407407407399],[-0.03583333333333331,0.034999999999999955],[-0.030104166666666644,0.03685185185185181],[-0.030104166666666644,0.03685185185185181],[-0.024374999999999977,0.038703703703703664],[-0.020937500000000022,0.04759259259259268],[-0.013645833333333357,0.08814814814814818],[0.01583333333333338,0.10055555555555547],[0.005624999999999976,0.07833333333333325],[-0.01885416666666669,0.05685185185185194],[-0.01885416666666669,0.05685185185185194],[-0.028541666666666642,0.060370370370370414],[-0.02802083333333331,0.0301851851851851],[-0.036145833333333384,0.010185185185185186],[-0.024895833333333308,0.0020370370370370794],[-0.013541666666666667,-0.008703703703703788],[0.00625,-0.03333333333333333],[-0.00614583333333331,-0.059814814814814835],[-0.01854166666666662,-0.08629629629629634],[0.014479166666666644,-0.04259259259259259],[0.04468749999999998,-0.02092592592592584],[0.06458333333333334,-0.018148148148148063],[0.051874999999999956,-0.008888888888888804],[0.051874999999999956,-0.008888888888888804],[0.09072916666666657,-0.026666666666666623],[0.11770833333333333,-0.03425925925925926],[0.13322916666666676,-0.02759259259259255],[0.14260416666666675,-0.014074074074074116],[0.16145833333333334,0.003888888888888931],[0.1803124999999999,0.021851851851851768],[0.1834374999999999,0.013888888888888888],[0.22239583333333332,0.008888888888888804],[0.23020833333333332,0.04018518518518527],[0.23020833333333332,0.04018518518518527],[0.2816666666666668,0.07833333333333325],[0.30708333333333326,0.0985185185185186],[0.3352083333333333,0.09833333333333337],[0.37468750000000006,0.08648148148148156],[0.40687499999999993,0.0801851851851851],[0.42958333333333343,0.06944444444444445],[0.46760416666666677,0.048333333333333374],[0.515625,0.017592592592592594],[0.5078125,-0.03351851851851856],[0.5492708333333333,-0.14055555555555552],[0.5836458333333333,-0.22462962962962965],[0.5836458333333333,-0.22462962962962965],[0.5614583333333333,-0.2824074074074074],[0.5026041666666666,-0.30648148148148147],[0.4905208333333334,-0.30574074074074076],[0.4905208333333334,-0.30574074074074076],[0.4470833333333334,-0.33296296296296296],[0.4470833333333334,-0.33296296296296296],[0.36687500000000006,-0.3587037037037037],[0.33135416666666656,-0.37648148148148153],[0.27937500000000004,-0.40629629629629627],[0.2178124999999999,-0.40314814814814814],[0.18072916666666666,-0.37666666666666665],[0.18072916666666666,-0.37666666666666665],[0.15072916666666672,-0.3731481481481482],[0.15072916666666672,-0.3731481481481482],[0.14645833333333325,-0.38259259259259265],[0.15895833333333323,-0.4103703703703704],[0.09645833333333324,-0.4172222222222222],[0.0890625,-0.40259259259259256],[0.121875,-0.41759259259259257],[0.0743750000000001,-0.4255555555555556],[0.043333333333333356,-0.4214814814814815],[0.09395833333333338,-0.42055555555555557],[0.08104166666666662,-0.422037037037037],[0.0709374999999999,-0.40981481481481485],[0.0626041666666667,-0.4020370370370371],[0.06708333333333343,-0.40796296296296297],[0.12510416666666657,-0.445],[0.16041666666666668,-0.4848148148148148],[0.19322916666666667,-0.5094444444444445],[0.24656250000000005,-0.5327777777777778],[0.2929166666666667,-0.5492592592592593],[0.28708333333333325,-0.5592592592592592],[0.2794791666666666,-0.5235185185185185],[0.29812500000000003,-0.53],[0.27885416666666674,-0.512962962962963],[0.24989583333333343,-0.4831481481481481],[0.21677083333333325,-0.4438888888888889],[0.1898958333333333,-0.4009259259259259],[0.18447916666666658,-0.3538888888888889],[0.1788541666666667,-0.3127777777777777],[0.14364583333333342,-0.2707407407407407],[0.11749999999999995,-0.23740740740740737],[0.10729166666666666,-0.2588888888888889],[0.06802083333333328,-0.2518518518518518],[0.07885416666666671,-0.24240740740740738],[0.11208333333333324,-0.22240740740740744],[0.12416666666666672,-0.2264814814814815],[0.12416666666666672,-0.2264814814814815],[0.11218750000000005,-0.24500000000000002],[0.09187500000000005,-0.24166666666666667],[0.026979166666666644,-0.23981481481481481],[-0.0013541666666666192,-0.24574074074074073],[-0.017916666666666713,-0.24444444444444444],[-0.03125,-0.247037037037037],[-0.0140625,-0.2433333333333333],[0.003125,-0.23962962962962958],[-0.03572916666666662,-0.24722222222222223],[-0.03572916666666662,-0.24722222222222223],[-0.07458333333333336,-0.2548148148148149],[-0.07458333333333336,-0.2548148148148149],[-0.03822916666666672,-0.23481481481481484],[-0.03822916666666672,-0.23481481481481484],[-0.024687500000000046,-0.22666666666666663],[-0.024687500000000046,-0.22666666666666663],[0.004999999999999952,-0.1766666666666666],[0.004999999999999952,-0.1766666666666666],[0.035416666666666666,-0.16222222222222227],[0.035416666666666666,-0.16222222222222227],[0.07145833333333323,-0.17907407407407405],[0.07145833333333323,-0.17907407407407405],[0.09583333333333334,-0.1801851851851852],[0.09583333333333334,-0.1801851851851852],[0.1453125,-0.18870370370370365],[0.1453125,-0.18870370370370365]]","[[0.08145833333333338,-0.050370370370370454,0.0002999999821184929],[0.0853125000000001,-0.04333333333333329,0.01769999998807492],[0.02322916666666662,-0.01907407407407399,0.03309999999403601],[-0.03583333333333331,0.034999999999999955,0.04899999999999949],[-0.030104166666666644,0.03685185185185181,0.0659999999999954],[-0.030104166666666644,0.03685185185185181,0.07989999997615627],[-0.024374999999999977,0.038703703703703664,0.09669999998807555],[-0.020937500000000022,0.04759259259259268,0.11769999998807634],[-0.013645833333333357,0.08814814814814818,0.13209999999403976],[0.01583333333333338,0.10055555555555547,0.14679999998211457],[0.005624999999999976,0.07833333333333325,0.16409999999403624],[-0.01885416666666669,0.05685185185185194,0.1846999999880765],[-0.01885416666666669,0.05685185185185194,0.19669999998807697],[-0.028541666666666642,0.060370370370370414,0.2131999999880776],[-0.02802083333333331,0.0301851851851851,0.23289999997615496],[-0.036145833333333384,0.010185185185185186,0.24919999998807896],[-0.024895833333333308,0.0020370370370370794,0.26389999997615377],[-0.013541666666666667,-0.008703703703703788,0.2831999999880779],[0.00625,-0.03333333333333333,0.299299999982118],[-0.00614583333333331,-0.059814814814814835,0.31589999997615337],[-0.01854166666666662,-0.08629629629629634,0.32989999997615627],[0.014479166666666644,-0.04259259259259259,0.34949999999999903],[0.04468749999999998,-0.02092592592592584,0.36649999999999494],[0.06458333333333334,-0.018148148148148063,0.38469999998807936],[0.051874999999999956,-0.008888888888888804,0.4031999999880753],[0.051874999999999956,-0.008888888888888804,0.4134999999999991],[0.09072916666666657,-0.026666666666666623,0.4299999999999997],[0.11770833333333333,-0.03425925925925926,0.4521999999880748],[0.13322916666666676,-0.02759259259259255,0.466699999988073],[0.14260416666666675,-0.014074074074074116,0.48479999998211554],[0.16145833333333334,0.003888888888888931,0.5007999999821138],[0.1803124999999999,0.021851851851851768,0.5164999999999935],[0.1834374999999999,0.013888888888888888,0.5331999999880779],[0.22239583333333332,0.008888888888888804,0.5506999999880762],[0.23020833333333332,0.04018518518518527,0.5658999999761534],[0.23020833333333332,0.04018518518518527,0.5799999999999983],[0.2816666666666668,0.07833333333333325,0.5965999999940337],[0.30708333333333326,0.0985185185185186,0.6136999999880786],[0.3352083333333333,0.09833333333333337,0.630299999982114],[0.37468750000000006,0.08648148148148156,0.6491999999880775],[0.40687499999999993,0.0801851851851851,0.6640999999940362],[0.42958333333333343,0.06944444444444445,0.6827999999821159],[0.46760416666666677,0.048333333333333374,0.70059999999404],[0.515625,0.017592592592592594,0.715899999976152],[0.5078125,-0.03351851851851856,0.7324999999999946],[0.5492708333333333,-0.14055555555555552,0.7472999999821184],[0.5836458333333333,-0.22462962962962965,0.7659999999999982],[0.5836458333333333,-0.22462962962962965,0.785399999976157],[0.5614583333333333,-0.2824074074074074,0.7967999999821131],[0.5026041666666666,-0.30648148148148147,0.8170999999940349],[0.4905208333333334,-0.30574074074074076,0.8394999999999939],[0.4905208333333334,-0.30574074074074076,0.8572999999821178],[0.4470833333333334,-0.33296296296296296,0.8765000000000001],[0.4470833333333334,-0.33296296296296296,0.8852999999821165],[0.36687500000000006,-0.3587037037037037,0.8999999999999986],[0.33135416666666656,-0.37648148148148153,0.9163999999761572],[0.27937500000000004,-0.40629629629629627,0.9298999999761577],[0.2178124999999999,-0.40314814814814814,0.9465999999940351],[0.18072916666666666,-0.37666666666666665,0.965899999976152],[0.18072916666666666,-0.37666666666666665,0.9799999999999969],[0.15072916666666672,-0.3731481481481482,0.9965999999940394],[0.15072916666666672,-0.3731481481481482,1.0131999999880748],[0.14645833333333325,-0.38259259259259265,1.029899999976152],[0.15895833333333323,-0.4103703703703704,1.0465999999940365],[0.09645833333333324,-0.4172222222222222,1.063199999988079],[0.0890625,-0.40259259259259256,1.083299999982117],[0.121875,-0.41759259259259257,1.0969999999999942],[0.0743750000000001,-0.4255555555555556,1.113299999982118],[0.043333333333333356,-0.4214814814814815,1.1298999999761534],[0.09395833333333338,-0.42055555555555557,1.1469999999999985],[0.08104166666666662,-0.422037037037037,1.1632999999821152],[0.0709374999999999,-0.40981481481481485,1.1801999999880763],[0.0626041666666667,-0.4020370370370371,1.1968999999761536],[0.06708333333333343,-0.40796296296296297,1.2133999999761542],[0.12510416666666657,-0.445,1.2298999999761548],[0.16041666666666668,-0.4848148148148148,1.2471999999880765],[0.19322916666666667,-0.5094444444444445,1.263799999982119],[0.24656250000000005,-0.5327777777777778,1.2803999999761544],[0.2929166666666667,-0.5492592592592593,1.2966999999880784],[0.28708333333333325,-0.5592592592592592,1.313199999988079],[0.2794791666666666,-0.5235185185185185,1.3298999999761563],[0.29812500000000003,-0.53,1.346499999999999],[0.27885416666666674,-0.512962962962963,1.3631999999880762],[0.24989583333333343,-0.4831481481481481,1.3845999999940375],[0.21677083333333325,-0.4438888888888889,1.3989999999999938],[0.1898958333333333,-0.4009259259259259,1.4177999999821154],[0.18447916666666658,-0.3538888888888889,1.4337999999821136],[0.1788541666666667,-0.3127777777777777,1.4507999999821166],[0.14364583333333342,-0.2707407407407407,1.4633999999761542],[0.11749999999999995,-0.23740740740740737,1.4800999999940387],[0.10729166666666666,-0.2588888888888889,1.4965999999940394],[0.06802083333333328,-0.2518518518518518,1.5132999999821166],[0.07885416666666671,-0.24240740740740738,1.529999999999994],[0.11208333333333324,-0.22240740740740744,1.5466999999880784],[0.12416666666666672,-0.2264814814814815,1.563199999988079],[0.12416666666666672,-0.2264814814814815,1.5799999999999983],[0.11218750000000005,-0.24500000000000002,1.5966999999880755],[0.09187500000000005,-0.24166666666666667,1.6169999999999973],[0.026979166666666644,-0.23981481481481481,1.6299999999999955],[-0.0013541666666666192,-0.24574074074074073,1.646599999994038],[-0.017916666666666713,-0.24444444444444444,1.6631999999880733],[-0.03125,-0.247037037037037,1.6846999999880765],[-0.0140625,-0.2433333333333333,1.700399999976156],[0.003125,-0.23962962962962958,1.7161999999880777],[-0.03572916666666662,-0.24722222222222223,1.7326999999880783],[-0.03572916666666662,-0.24722222222222223,1.7466999999880741],[-0.07458333333333336,-0.2548148148148149,1.7631999999880748],[-0.07458333333333336,-0.2548148148148149,1.779999999999994],[-0.03822916666666672,-0.23481481481481484,1.7965999999940365],[-0.03822916666666672,-0.23481481481481484,1.8133999999761556],[-0.024687500000000046,-0.22666666666666663,1.8298999999761563],[-0.024687500000000046,-0.22666666666666663,1.846499999999999],[0.004999999999999952,-0.1766666666666666,1.863299999982118],[0.004999999999999952,-0.1766666666666666,1.8800999999940373],[0.035416666666666666,-0.16222222222222227,1.896499999999996],[0.035416666666666666,-0.16222222222222227,1.9131999999880733],[0.07145833333333323,-0.17907407407407405,1.9298999999761577],[0.07145833333333323,-0.17907407407407405,1.946599999994035],[0.09583333333333334,-0.1801851851851852,1.9632999999821124],[0.09583333333333334,-0.1801851851851852,1.9799999999999969],[0.1453125,-0.18870370370370365,1.9971999999880765],[0.1453125,-0.18870370370370365,2.0132999999821166]]","[0.0002999999821184929,0.01769999998807492,0.03309999999403601,0.04899999999999949,0.0659999999999954,0.07989999997615627,0.09669999998807555,0.11769999998807634,0.13209999999403976,0.14679999998211457,0.16409999999403624,0.1846999999880765,0.19669999998807697,0.2131999999880776,0.23289999997615496,0.24919999998807896,0.26389999997615377,0.2831999999880779,0.299299999982118,0.31589999997615337,0.32989999997615627,0.34949999999999903,0.36649999999999494,0.38469999998807936,0.4031999999880753,0.4134999999999991,0.4299999999999997,0.4521999999880748,0.466699999988073,0.48479999998211554,0.5007999999821138,0.5164999999999935,0.5331999999880779,0.5506999999880762,0.5658999999761534,0.5799999999999983,0.5965999999940337,0.6136999999880786,0.630299999982114,0.6491999999880775,0.6640999999940362,0.6827999999821159,0.70059999999404,0.715899999976152,0.7324999999999946,0.7472999999821184,0.7659999999999982,0.785399999976157,0.7967999999821131,0.8170999999940349,0.8394999999999939,0.8572999999821178,0.8765000000000001,0.8852999999821165,0.8999999999999986,0.9163999999761572,0.9298999999761577,0.9465999999940351,0.965899999976152,0.9799999999999969,0.9965999999940394,1.0131999999880748,1.029899999976152,1.0465999999940365,1.063199999988079,1.083299999982117,1.0969999999999942,1.113299999982118,1.1298999999761534,1.1469999999999985,1.1632999999821152,1.1801999999880763,1.1968999999761536,1.2133999999761542,1.2298999999761548,1.2471999999880765,1.263799999982119,1.2803999999761544,1.2966999999880784,1.313199999988079,1.3298999999761563,1.346499999999999,1.3631999999880762,1.3845999999940375,1.3989999999999938,1.4177999999821154,1.4337999999821136,1.4507999999821166,1.4633999999761542,1.4800999999940387,1.4965999999940394,1.5132999999821166,1.529999999999994,1.5466999999880784,1.563199999988079,1.5799999999999983,1.5966999999880755,1.6169999999999973,1.6299999999999955,1.646599999994038,1.6631999999880733,1.6846999999880765,1.700399999976156,1.7161999999880777,1.7326999999880783,1.7466999999880741,1.7631999999880748,1.779999999999994,1.7965999999940365,1.8133999999761556,1.8298999999761563,1.846499999999999,1.863299999982118,1.8800999999940373,1.896499999999996,1.9131999999880733,1.9298999999761577,1.946599999994035,1.9632999999821124,1.9799999999999969,1.9971999999880765,2.0132999999821166]","[1732775784992,1732775785009,1732775785024,1732775785040,1732775785057,1732775785071,1732775785088,1732775785109,1732775785123,1732775785138,1732775785155,1732775785176,1732775785188,1732775785204,1732775785224,1732775785240,1732775785255,1732775785274,1732775785290,1732775785307,1732775785321,1732775785340,1732775785357,1732775785376,1732775785394,1732775785404,1732775785421,1732775785443,1732775785458,1732775785476,1732775785492,1732775785507,1732775785524,1732775785542,1732775785557,1732775785571,1732775785587,1732775785605,1732775785621,1732775785640,1732775785655,1732775785674,1732775785691,1732775785707,1732775785723,1732775785738,1732775785757,1732775785776,1732775785788,1732775785808,1732775785830,1732775785848,1732775785867,1732775785876,1732775785891,1732775785907,1732775785921,1732775785937,1732775785957,1732775785971,1732775785988,1732775786004,1732775786021,1732775786037,1732775786054,1732775786074,1732775786088,1732775786104,1732775786121,1732775786138,1732775786154,1732775786171,1732775786188,1732775786204,1732775786221,1732775786238,1732775786255,1732775786271,1732775786288,1732775786304,1732775786321,1732775786337,1732775786354,1732775786375,1732775786390,1732775786409,1732775786425,1732775786442,1732775786454,1732775786471,1732775786487,1732775786504,1732775786521,1732775786538,1732775786554,1732775786571,1732775786588,1732775786608,1732775786621,1732775786637,1732775786654,1732775786676,1732775786691,1732775786707,1732775786724,1732775786738,1732775786754,1732775786771,1732775786787,1732775786804,1732775786821,1732775786837,1732775786854,1732775786871,1732775786887,1732775786904,1732775786921,1732775786937,1732775786954,1732775786971,1732775786988,1732775787004]","[[1038.2,512.8],[1041.9,516.6],[982.3,529.7],[925.6,558.9],[931.1,559.9],[931.1,559.9],[936.6,560.9],[939.9,565.7],[946.9,587.6],[975.2,594.3],[965.4,582.3],[941.9,570.7],[941.9,570.7],[932.6,572.6],[933.1,556.3],[925.3,545.5],[936.1,541.1],[947,535.3],[966,522],[954.1,507.7],[942.2,493.4],[973.9,517],[1002.9,528.7],[1022,530.2],[1009.8,535.2],[1009.8,535.2],[1047.1,525.6],[1073,521.5],[1087.9,525.1],[1096.9,532.4],[1115,542.1],[1133.1,551.8],[1136.1,547.5],[1173.5,544.8],[1181,561.7],[1181,561.7],[1230.4,582.3],[1254.8,593.2],[1281.8,593.1],[1319.7,586.7],[1350.6,583.3],[1372.4,577.5],[1408.9,566.1],[1455,549.5],[1447.5,521.9],[1487.3,464.1],[1520.3,418.7],[1520.3,418.7],[1499,387.5],[1442.5,374.5],[1430.9,374.9],[1430.9,374.9],[1389.2,360.2],[1389.2,360.2],[1312.2,346.3],[1278.1,336.7],[1228.2,320.6],[1169.1,322.3],[1133.5,336.6],[1133.5,336.6],[1104.7,338.5],[1104.7,338.5],[1100.6,333.4],[1112.6,318.4],[1052.6,314.7],[1045.5,322.6],[1077,314.5],[1031.4,310.2],[1001.6,312.4],[1050.2,312.9],[1037.8,312.1],[1028.1,318.7],[1020.1,322.9],[1024.4,319.7],[1080.1,299.7],[1114,278.2],[1145.5,264.9],[1196.7,252.3],[1241.2,243.4],[1235.6,238],[1228.3,257.3],[1246.2,253.8],[1227.7,263],[1199.9,279.1],[1168.1,300.3],[1142.3,323.5],[1137.1,348.9],[1131.7,371.1],[1097.9,393.8],[1072.8,411.8],[1063,400.2],[1025.3,404],[1035.7,409.1],[1067.6,419.9],[1079.2,417.7],[1079.2,417.7],[1067.7,407.7],[1048.2,409.5],[985.9,410.5],[958.7,407.3],[942.8,408],[930,406.6],[946.5,408.6],[963,410.6],[925.7,406.5],[925.7,406.5],[888.4,402.4],[888.4,402.4],[923.3,413.2],[923.3,413.2],[936.3,417.6],[936.3,417.6],[964.8,444.6],[964.8,444.6],[994,452.4],[994,452.4],[1028.6,443.3],[1028.6,443.3],[1052,442.7],[1052,442.7],[1099.5,438.1],[1099.5,438.1]]","[0,0.3527331528]","[0.3527331528,0.3527331528]","[-0.3527331528,-0.3527331528]","[-0.3527331528,0]","[0,-0.3527331528]","[0.3527331528,-0.3527331528]","[0,0]","[0.3527331528,0]",0,1,1,1,1,2,Tablet,13,7,11,1
