inst1_resp.keys,inst1_resp.rt,calibrationMouse.x,calibrationMouse.y,calibrationMouse.leftButton,calibrationMouse.midButton,calibrationMouse.rightButton,calibrationClick.x,calibrationClick.y,calibrationClick.leftButton,calibrationClick.midButton,calibrationClick.rightButton,trialsc.thisRepN,trialsc.thisTrialN,trialsc.thisN,trialsc.thisIndex,trialsc.ran,calibration_x,calibration_y,participant,session,date,expName,psychopyVersion,OS,frameRate,calibrationClick.clicked_name,ScreenRes_pixels,Camera_pixels,mouse_2.x,mouse_2.y,mouse_2.leftButton,mouse_2.midButton,mouse_2.rightButton,mouse_2.time,mouse_2.clicked_name,mouse.x,mouse.y,mouse.leftButton,mouse.midButton,mouse.rightButton,mouse.time,mouse.clicked_name,Choice,Trial,TrialDuration,MOUSE_GAZE,ET_GAZE,ET_GAZE_x_T,time,unixTime,ET_GAZE_NF,Loc_Option1_label,Loc_Option2_label,Loc_Cost_label,Loc_Qual_label,Loc_Option1_cost,Loc_Option2_cost,Loc_Option1_quality,Loc_Option2_quality,trials.thisRepN,trials.thisTrialN,trials.thisN,trials.thisIndex,trials.ran,Block,Device,cost1,qual1,cost2,qual2
space,2.6985,0.025,0.018518519,1,0,0,0.665625,-0.657407407,1,0,0,0,0,0,20,1,0.67,-0.67,45,001,2024-12-05_14h54.04.039,Attention_exp_legacy,2023.1.0,Win32,60.24096386,,,,,,,,,,,,,,,,,,,,,,,,,,,,,,,,,,,,,,,,,,,,,
,,,,,,,-0.326041667,0.662962963,1,0,0,0,1,1,8,1,-0.33,0.67,45,001,2024-12-05_14h54.04.039,Attention_exp_legacy,2023.1.0,Win32,60.24096386,calibration_square,,,,,,,,,,,,,,,,,,,,,,,,,,,,,,,,,,,,,,,,,,,,
,,,,,,,0.3375,-0.005555556,1,0,0,0,2,2,16,1,0.33,0,45,001,2024-12-05_14h54.04.039,Attention_exp_legacy,2023.1.0,Win32,60.24096386,calibration_square,,,,,,,,,,,,,,,,,,,,,,,,,,,,,,,,,,,,,,,,,,,,
,,,,,,,-0.673958333,0.322222222,1,0,0,0,3,3,3,1,-0.67,0.33,45,001,2024-12-05_14h54.04.039,Attention_exp_legacy,2023.1.0,Win32,60.24096386,calibration_square,,,,,,,,,,,,,,,,,,,,,,,,,,,,,,,,,,,,,,,,,,,,
,,,,,,,-0.003125,-0.012962963,1,0,0,0,4,4,11,1,0,0,45,001,2024-12-05_14h54.04.039,Attention_exp_legacy,2023.1.0,Win32,60.24096386,,,,,,,,,,,,,,,,,,,,,,,,,,,,,,,,,,,,,,,,,,,,,
,,,,,,,-0.670833333,-0.659259259,1,0,0,0,5,5,0,1,-0.67,-0.67,45,001,2024-12-05_14h54.04.039,Attention_exp_legacy,2023.1.0,Win32,60.24096386,,,,,,,,,,,,,,,,,,,,,,,,,,,,,,,,,,,,,,,,,,,,,
,,,,,,,-0.327083333,0.344444444,1,0,0,0,6,6,7,1,-0.33,0.33,45,001,2024-12-05_14h54.04.039,Attention_exp_legacy,2023.1.0,Win32,60.24096386,,,,,,,,,,,,,,,,,,,,,,,,,,,,,,,,,,,,,,,,,,,,,
,,,,,,,0.66875,0.67962963,1,0,0,0,7,7,19,1,0.67,0.67,45,001,2024-12-05_14h54.04.039,Attention_exp_legacy,2023.1.0,Win32,60.24096386,calibration_square,,,,,,,,,,,,,,,,,,,,,,,,,,,,,,,,,,,,,,,,,,,,
,,,,,,,0.326041667,0.696296296,1,0,0,0,8,8,18,1,0.33,0.67,45,001,2024-12-05_14h54.04.039,Attention_exp_legacy,2023.1.0,Win32,60.24096386,,,,,,,,,,,,,,,,,,,,,,,,,,,,,,,,,,,,,,,,,,,,,
,,,,,,,0.005208333,0.351851852,1,0,0,0,9,9,12,1,0,0.33,45,001,2024-12-05_14h54.04.039,Attention_exp_legacy,2023.1.0,Win32,60.24096386,,,,,,,,,,,,,,,,,,,,,,,,,,,,,,,,,,,,,,,,,,,,,
,,,,,,,-0.319791667,-0.02962963,1,0,0,0,10,10,6,1,-0.33,0,45,001,2024-12-05_14h54.04.039,Attention_exp_legacy,2023.1.0,Win32,60.24096386,,,,,,,,,,,,,,,,,,,,,,,,,,,,,,,,,,,,,,,,,,,,,
,,,,,,,-0.666666667,0,1,0,0,0,11,11,2,1,-0.67,0,45,001,2024-12-05_14h54.04.039,Attention_exp_legacy,2023.1.0,Win32,60.24096386,calibration_square,,,,,,,,,,,,,,,,,,,,,,,,,,,,,,,,,,,,,,,,,,,,
,,,,,,,0.369791667,-0.687037037,1,0,0,0,12,12,14,1,0.33,-0.67,45,001,2024-12-05_14h54.04.039,Attention_exp_legacy,2023.1.0,Win32,60.24096386,,,,,,,,,,,,,,,,,,,,,,,,,,,,,,,,,,,,,,,,,,,,,
,,,,,,,0.001041667,0.7,1,0,0,0,13,13,13,1,0,0.67,45,001,2024-12-05_14h54.04.039,Attention_exp_legacy,2023.1.0,Win32,60.24096386,,,,,,,,,,,,,,,,,,,,,,,,,,,,,,,,,,,,,,,,,,,,,
,,,,,,,-0.297916667,-0.346296296,1,0,0,0,14,14,5,1,-0.33,-0.33,45,001,2024-12-05_14h54.04.039,Attention_exp_legacy,2023.1.0,Win32,60.24096386,,,,,,,,,,,,,,,,,,,,,,,,,,,,,,,,,,,,,,,,,,,,,
,,,,,,,-0.666666667,-0.303703704,1,0,0,0,15,15,1,1,-0.67,-0.33,45,001,2024-12-05_14h54.04.039,Attention_exp_legacy,2023.1.0,Win32,60.24096386,,,,,,,,,,,,,,,,,,,,,,,,,,,,,,,,,,,,,,,,,,,,,
,,,,,,,0.016666667,-0.338888889,1,0,0,0,16,16,10,1,0,-0.33,45,001,2024-12-05_14h54.04.039,Attention_exp_legacy,2023.1.0,Win32,60.24096386,,,,,,,,,,,,,,,,,,,,,,,,,,,,,,,,,,,,,,,,,,,,,
,,,,,,,0.023958333,-0.7,1,0,0,0,17,17,9,1,0,-0.67,45,001,2024-12-05_14h54.04.039,Attention_exp_legacy,2023.1.0,Win32,60.24096386,,,,,,,,,,,,,,,,,,,,,,,,,,,,,,,,,,,,,,,,,,,,,
,,,,,,,-0.308333333,-0.718518519,1,0,0,0,18,18,4,1,-0.33,-0.67,45,001,2024-12-05_14h54.04.039,Attention_exp_legacy,2023.1.0,Win32,60.24096386,,,,,,,,,,,,,,,,,,,,,,,,,,,,,,,,,,,,,,,,,,,,,
,,,,,,,0.388541667,-0.351851852,1,0,0,0,19,19,15,1,0.33,-0.33,45,001,2024-12-05_14h54.04.039,Attention_exp_legacy,2023.1.0,Win32,60.24096386,,,,,,,,,,,,,,,,,,,,,,,,,,,,,,,,,,,,,,,,,,,,,
,,,,,,,0.342708333,0.342592593,1,0,0,0,20,20,17,1,0.33,0.33,45,001,2024-12-05_14h54.04.039,Attention_exp_legacy,2023.1.0,Win32,60.24096386,,,,,,,,,,,,,,,,,,,,,,,,,,,,,,,,,,,,,,,,,,,,,
,,,,,,,,,,,,,,,,,,,45,001,2024-12-05_14h54.04.039,Attention_exp_legacy,2023.1.0,Win32,60.24096386,,"[1920,1080]","[640,480]",[-0.029166666666666667],[-0.5277777777777778],[1],[0],[0],[1.0465999999940365],"[""StartButton""]","[0.03333333333333333,0.10208333333333333]","[0.025925925925925925,0.6203703703703703]","[1,1]","[0,0]","[0,0]","[2.021000000000001,2.7386999999880786]","[""Option1_label""]",Option1_label,1,3.7621,"[[-0.03125,-0.43333333333333335],[-0.03229166666666667,-0.42962962962962964],[-0.03229166666666667,-0.42962962962962964],[-0.03229166666666667,-0.42777777777777776],[-0.03229166666666667,-0.42777777777777776],[-0.03229166666666667,-0.42777777777777776],[-0.03229166666666667,-0.42777777777777776],[-0.03229166666666667,-0.42777777777777776],[-0.03229166666666667,-0.42777777777777776],[-0.03229166666666667,-0.42592592592592593],[-0.03229166666666667,-0.42592592592592593],[-0.03229166666666667,-0.42592592592592593],[-0.03229166666666667,-0.42592592592592593],[-0.03229166666666667,-0.42592592592592593],[-0.03229166666666667,-0.42407407407407405],[-0.03229166666666667,-0.42407407407407405],[-0.03229166666666667,-0.4222222222222222],[-0.03229166666666667,-0.4222222222222222],[-0.03229166666666667,-0.4222222222222222],[-0.03229166666666667,-0.4222222222222222],[-0.03229166666666667,-0.4222222222222222],[-0.03229166666666667,-0.4222222222222222],[-0.03229166666666667,-0.4222222222222222],[-0.03229166666666667,-0.4222222222222222],[-0.03229166666666667,-0.4222222222222222],[-0.03229166666666667,-0.4222222222222222],[-0.03229166666666667,-0.4222222222222222],[-0.03229166666666667,-0.4222222222222222],[-0.03229166666666667,-0.4222222222222222],[-0.03229166666666667,-0.4222222222222222],[-0.03229166666666667,-0.4222222222222222],[-0.03229166666666667,-0.4222222222222222],[-0.03229166666666667,-0.4222222222222222],[-0.03229166666666667,-0.4222222222222222],[-0.03229166666666667,-0.4222222222222222],[-0.03229166666666667,-0.4222222222222222],[-0.03229166666666667,-0.4222222222222222],[-0.03229166666666667,-0.4222222222222222],[-0.03229166666666667,-0.4222222222222222],[-0.03229166666666667,-0.4222222222222222],[-0.03229166666666667,-0.4222222222222222],[-0.03229166666666667,-0.4222222222222222],[-0.03229166666666667,-0.4222222222222222],[-0.03229166666666667,-0.4222222222222222],[-0.03229166666666667,-0.4222222222222222],[-0.03229166666666667,-0.4222222222222222],[-0.03229166666666667,-0.4222222222222222],[-0.03229166666666667,-0.4222222222222222],[-0.03229166666666667,-0.4222222222222222],[-0.03229166666666667,-0.4222222222222222],[-0.03229166666666667,-0.4222222222222222],[-0.03229166666666667,-0.4222222222222222],[-0.03229166666666667,-0.4222222222222222],[-0.03229166666666667,-0.4222222222222222],[-0.03229166666666667,-0.4222222222222222],[-0.03229166666666667,-0.4222222222222222],[-0.03229166666666667,-0.4222222222222222],[-0.03229166666666667,-0.4222222222222222],[-0.03229166666666667,-0.4222222222222222],[-0.03229166666666667,-0.4222222222222222],[-0.03229166666666667,-0.4222222222222222],[-0.03229166666666667,-0.4222222222222222],[-0.03229166666666667,-0.4222222222222222],[-0.03229166666666667,-0.4222222222222222],[-0.03229166666666667,-0.4222222222222222],[-0.03229166666666667,-0.4222222222222222],[-0.03229166666666667,-0.4222222222222222],[-0.03229166666666667,-0.4222222222222222],[-0.03229166666666667,-0.4222222222222222],[-0.03229166666666667,-0.4222222222222222],[-0.03229166666666667,-0.4222222222222222],[-0.03229166666666667,-0.4166666666666667],[-0.03125,-0.4074074074074074],[-0.027083333333333334,-0.39444444444444443],[-0.022916666666666665,-0.37777777777777777],[-0.016666666666666666,-0.3574074074074074],[-0.008333333333333333,-0.3314814814814815],[-0.0010416666666666667,-0.3037037037037037],[0.005208333333333333,-0.2722222222222222],[0.016666666666666666,-0.23333333333333334],[0.030208333333333334,-0.17962962962962964],[0.03958333333333333,-0.14444444444444443],[0.046875,-0.10925925925925926],[0.05520833333333333,-0.07962962962962963],[0.0625,-0.05],[0.06875,-0.018518518518518517],[0.075,0.016666666666666666],[0.07916666666666666,0.03888888888888889],[0.08333333333333333,0.05185185185185185],[0.08645833333333333,0.05925925925925926],[0.08958333333333333,0.06851851851851852],[0.09270833333333334,0.07407407407407407],[0.1,0.07962962962962963],[0.10416666666666667,0.07962962962962963],[0.10625,0.08148148148148149],[0.10833333333333334,0.08333333333333333],[0.11041666666666666,0.08518518518518518],[0.11145833333333334,0.08518518518518518],[0.11145833333333334,0.08518518518518518],[0.11145833333333334,0.08518518518518518],[0.11145833333333334,0.08518518518518518],[0.11145833333333334,0.08518518518518518],[0.11145833333333334,0.08518518518518518],[0.1125,0.08518518518518518],[0.1125,0.08518518518518518],[0.1125,0.08518518518518518],[0.1125,0.08148148148148149],[0.10833333333333334,0.07777777777777778],[0.096875,0.07037037037037037],[0.08229166666666667,0.06296296296296296],[0.06770833333333333,0.05185185185185185],[0.05520833333333333,0.040740740740740744],[0.04479166666666667,0.03333333333333333],[0.03854166666666667,0.02962962962962963],[0.03333333333333333,0.025925925925925925],[0.03333333333333333,0.025925925925925925],[0.03333333333333333,0.025925925925925925],[0.03333333333333333,0.025925925925925925],[0.03333333333333333,0.025925925925925925],[0.03333333333333333,0.025925925925925925],[0.03333333333333333,0.025925925925925925],[0.03333333333333333,0.025925925925925925],[0.03333333333333333,0.025925925925925925],[0.03333333333333333,0.025925925925925925],[0.03333333333333333,0.025925925925925925],[0.03333333333333333,0.025925925925925925],[0.03333333333333333,0.025925925925925925],[0.03333333333333333,0.025925925925925925],[0.03333333333333333,0.025925925925925925],[0.03333333333333333,0.025925925925925925],[0.03333333333333333,0.025925925925925925],[0.03333333333333333,0.025925925925925925],[0.03333333333333333,0.025925925925925925],[0.03333333333333333,0.025925925925925925],[0.03333333333333333,0.025925925925925925],[0.03333333333333333,0.025925925925925925],[0.03333333333333333,0.03518518518518519],[0.03333333333333333,0.05185185185185185],[0.03333333333333333,0.06666666666666667],[0.03333333333333333,0.07592592592592592],[0.03333333333333333,0.08333333333333333],[0.03333333333333333,0.09074074074074075],[0.03333333333333333,0.10185185185185185],[0.03333333333333333,0.11296296296296296],[0.03333333333333333,0.1259259259259259],[0.036458333333333336,0.14444444444444443],[0.040625,0.16666666666666666],[0.042708333333333334,0.17407407407407408],[0.04583333333333333,0.18518518518518517],[0.05416666666666667,0.2],[0.06666666666666667,0.2518518518518518],[0.08125,0.35555555555555557],[0.08958333333333333,0.45555555555555555],[0.09375,0.5018518518518519],[0.09479166666666666,0.5351851851851852],[0.09791666666666667,0.562962962962963],[0.09791666666666667,0.575925925925926],[0.09895833333333333,0.5851851851851851],[0.1,0.5925925925925926],[0.1,0.6037037037037037],[0.1,0.6129629629629629],[0.10208333333333333,0.6185185185185185],[0.10208333333333333,0.6203703703703703],[0.10208333333333333,0.6203703703703703],[0.10208333333333333,0.6203703703703703],[0.10208333333333333,0.6203703703703703],[0.10208333333333333,0.6203703703703703],[0.10208333333333333,0.6203703703703703],[0.10208333333333333,0.6203703703703703],[0.10208333333333333,0.6203703703703703],[0.10208333333333333,0.6203703703703703],[0.10208333333333333,0.6203703703703703],[0.10208333333333333,0.6203703703703703],[0.10208333333333333,0.6203703703703703],[0.10208333333333333,0.6203703703703703],[0.10208333333333333,0.6203703703703703],[0.10208333333333333,0.6203703703703703],[0.10208333333333333,0.6203703703703703],[0.10208333333333333,0.6203703703703703],[0.10208333333333333,0.6203703703703703],[0.10208333333333333,0.6203703703703703],[0.10208333333333333,0.6203703703703703],[0.10208333333333333,0.6203703703703703],[0.10208333333333333,0.6203703703703703],[0.10208333333333333,0.6203703703703703],[0.10208333333333333,0.6203703703703703],[0.10208333333333333,0.6203703703703703],[0.10208333333333333,0.6203703703703703],[0.10208333333333333,0.6203703703703703],[0.10208333333333333,0.6203703703703703],[0.10208333333333333,0.6203703703703703],[0.10208333333333333,0.6203703703703703],[0.10208333333333333,0.6203703703703703],[0.10208333333333333,0.6203703703703703],[0.10208333333333333,0.6203703703703703],[0.10208333333333333,0.6203703703703703],[0.10208333333333333,0.6203703703703703],[0.10208333333333333,0.6203703703703703],[0.10208333333333333,0.6203703703703703],[0.10208333333333333,0.6203703703703703],[0.10208333333333333,0.6203703703703703],[0.10208333333333333,0.6203703703703703],[0.10208333333333333,0.6203703703703703],[0.10208333333333333,0.6203703703703703],[0.10208333333333333,0.6203703703703703],[0.10208333333333333,0.6203703703703703],[0.10208333333333333,0.6203703703703703],[0.10208333333333333,0.6185185185185185],[0.10208333333333333,0.6166666666666667],[0.10208333333333333,0.6148148148148148],[0.10208333333333333,0.6148148148148148],[0.10104166666666667,0.6129629629629629],[0.10104166666666667,0.6129629629629629],[0.10104166666666667,0.6129629629629629],[0.1,0.6111111111111112],[0.1,0.6092592592592593],[0.09895833333333333,0.6074074074074074],[0.09895833333333333,0.6074074074074074],[0.09791666666666667,0.6018518518518519],[0.09479166666666666,0.5962962962962963],[0.090625,0.5925925925925926],[0.08541666666666667,0.587037037037037],[0.08020833333333334,0.5814814814814815],[0.07395833333333333,0.5740740740740741],[0.07291666666666667,0.5722222222222222],[0.06979166666666667,0.5722222222222222]]","[[-0.0203125,0.5533333333333332],[-0.0203125,0.5533333333333332],[-0.022291666666666644,0.5185185185185185],[-0.05604166666666662,0.5800000000000001],[-0.022291666666666644,0.507037037037037],[-0.011562500000000024,0.4861111111111111],[0.02510416666666669,0.40851851851851856],[0.00010416666666669035,0.4168518518518519],[0.00010416666666669035,0.4168518518518519],[-0.0265625,0.4412962962962962],[-0.0265625,0.4412962962962962],[-0.04458333333333329,0.4800000000000001],[-0.04822916666666662,0.45203703703703707],[-0.04822916666666662,0.45203703703703707],[-0.05302083333333331,0.4162962962962962],[-0.05302083333333331,0.4162962962962962],[-0.058749999999999976,0.4698148148148149],[-0.05572916666666667,0.5151851851851853],[-0.05572916666666667,0.5151851851851853],[-0.08927083333333338,0.5881481481481482],[-0.1273958333333333,0.6603703703703704],[-0.1515625,0.6951851851851851],[-0.14322916666666666,0.7468518518518518],[-0.12427083333333329,0.7525925925925926],[-0.11270833333333338,0.7290740740740742],[-0.10572916666666667,0.7135185185185184],[-0.07541666666666665,0.6824074074074075],[-0.07260416666666672,0.7353703703703705],[-0.09416666666666665,0.7107407407407407],[-0.08416666666666663,0.6642592592592593],[-0.07374999999999995,0.5903703703703703],[-0.06802083333333328,0.5290740740740741],[-0.07291666666666667,0.4751851851851852],[-0.09208333333333331,0.46592592592592597],[-0.10197916666666665,0.4861111111111111],[-0.11166666666666672,0.5061111111111111],[-0.11833333333333336,0.524074074074074],[-0.1202083333333333,0.46592592592592597],[-0.10583333333333336,0.44240740740740736],[-0.09249999999999996,0.4338888888888888],[-0.0967708333333333,0.46648148148148144],[-0.09354166666666662,0.518148148148148],[-0.08260416666666662,0.5316666666666667],[-0.06031249999999998,0.4948148148148149],[-0.041875000000000044,0.4872222222222223],[-0.02354166666666669,0.4540740740740742],[-0.058333333333333334,0.4581481481481481],[-0.044270833333333336,0.4331481481481481],[-0.07218749999999995,0.4088888888888888],[-0.11625000000000002,0.45259259259259255],[-0.159375,0.43555555555555564],[-0.18552083333333336,0.4177777777777778],[-0.2211458333333333,0.3942592592592592],[-0.2404166666666666,0.3116666666666666],[-0.25666666666666665,0.20333333333333325],[-0.29281250000000003,0.14518518518518514],[-0.3021875,0.06740740740740736],[-0.36770833333333336,0.03555555555555564],[-0.39302083333333326,0.024629629629629547],[-0.40260416666666665,-0.05259259259259255],[-0.41687500000000005,-0.012592592592592508],[-0.44958333333333333,-0.014629629629629588],[-0.49302083333333335,0.04055555555555551],[-0.5420833333333334,0.14870370370370362],[-0.5420833333333334,0.14870370370370362],[-0.561875,0.20925925925925926],[-0.5748958333333333,0.25999999999999995],[-0.5879166666666666,0.31074074074074065],[-0.5745833333333333,0.3229629629629629],[-0.5686458333333333,0.35907407407407405],[-0.5663541666666667,0.3785185185185185],[-0.5588541666666667,0.3405555555555555],[-0.5007291666666667,0.334074074074074],[-0.43645833333333334,0.2903703703703703],[-0.39385416666666667,0.31851851851851853],[-0.3477083333333333,0.3375925925925925],[-0.2929166666666667,0.36925925925925923],[-0.2391666666666667,0.37407407407407406],[-0.20520833333333333,0.4553703703703703],[-0.1508333333333333,0.4388888888888889],[-0.09239583333333339,0.43740740740740747],[-0.029999999999999954,0.4498148148148148],[-0.022708333333333285,0.43074074074074076],[-0.009791666666666643,0.4242592592592593],[0.006458333333333381,0.36314814814814816],[0.004062499999999977,0.3331481481481481],[-0.01552083333333331,0.3072222222222222],[-0.035208333333333286,0.30166666666666664],[-0.00302083333333331,0.22370370370370363],[0.016145833333333335,0.21962962962962967],[0.07208333333333337,0.2257407407407407],[0.12979166666666658,0.2022222222222223],[0.14989583333333342,0.17981481481481484],[0.16437499999999997,0.1448148148148149],[0.18291666666666656,0.14722222222222223],[0.19385416666666658,0.13629629629629633],[0.22697916666666676,0.09574074074074082],[0.26375000000000004,0.059999999999999956],[0.2630208333333333,0.03555555555555564],[0.2603125000000001,0.02833333333333325],[0.2196875000000001,-0.013518518518518435],[0.1798958333333334,-0.0198148148148149],[0.20177083333333337,0.013703703703703662],[0.20572916666666666,0.028703703703703703],[0.20645833333333338,-0.015000000000000043],[0.20843749999999991,0.03166666666666671],[0.19989583333333344,0.03629629629629634],[0.18885416666666663,0.04259259259259259],[0.18624999999999994,0.07574074074074069],[0.18406250000000005,0.08981481481481482],[0.18552083333333325,0.10407407407407415],[0.18166666666666675,0.09055555555555551],[0.1508333333333333,0.06055555555555564],[0.1382291666666667,0.04148148148148144],[0.14656250000000004,0.030000000000000086],[0.13083333333333325,-0.013518518518518435],[0.1271874999999999,-0.022777777777777692],[0.12354166666666658,-0.032037037037036954],[0.1118750000000001,-0.05481481481481486],[0.10177083333333338,-0.07574074074074069],[0.07114583333333328,-0.07907407407407405],[0.04052083333333331,-0.0824074074074074],[0.03458333333333338,-0.028888888888888933],[0.026979166666666644,0.021851851851851768],[0.008749999999999977,0.07370370370370362],[-0.021979166666666692,0.0962962962962963],[-0.05270833333333336,0.11870370370370374],[-0.06145833333333333,0.12407407407407407],[-0.06479166666666672,0.13425925925925927],[-0.0546875,0.14092592592592595],[-0.04229166666666669,0.1551851851851851],[-0.02333333333333331,0.18185185185185193],[-0.028541666666666642,0.18555555555555564],[-0.03312499999999995,0.2074074074074074],[-0.03312499999999995,0.2074074074074074],[-0.02166666666666662,0.22444444444444453],[0.03125,0.19203703703703712],[0.05239583333333329,0.20907407407407402],[0.07249999999999991,0.22185185185185177],[0.08166666666666676,0.23203703703703696],[0.08166666666666676,0.23203703703703696],[0.08052083333333329,0.24537037037037038],[0.08052083333333329,0.24537037037037038],[0.08083333333333324,0.26851851851851855],[0.08083333333333324,0.26851851851851855],[0.07802083333333343,0.23481481481481473],[0.07802083333333343,0.23481481481481473],[0.09010416666666667,0.23055555555555557],[0.09010416666666667,0.23055555555555557],[0.09916666666666671,0.14981481481481476],[0.09916666666666671,0.14981481481481476],[0.10510416666666676,0.1],[0.10510416666666676,0.1],[0.09187500000000005,0.10240740740740732],[0.09135416666666671,0.09462962962962967],[0.084375,0.09870370370370361],[0.084375,0.09870370370370361],[0.06791666666666671,0.03944444444444436],[0.051145833333333356,0.01648148148148144],[0.059895833333333336,-0.15648148148148147],[0.059583333333333384,-0.1948148148148148],[0.04885416666666664,-0.2853703703703704],[0.05635416666666669,-0.3037037037037037],[0.042604166666666644,-0.36074074074074075],[0.042708333333333334,-0.41648148148148145],[0.059895833333333336,-0.5053703703703704],[0.058541666666666714,-0.5583333333333333],[0.07177083333333342,-0.5635185185185185],[0.07416666666666671,-0.64],[0.07416666666666671,-0.64],[0.07229166666666677,-0.5548148148148149],[0.06177083333333329,-0.5231481481481481],[0.06239583333333331,-0.5362962962962964],[0.05687500000000002,-0.5281481481481481],[0.05395833333333329,-0.5431481481481482],[0.04031250000000005,-0.5377777777777777],[0.02666666666666669,-0.5324074074074074],[0.035208333333333286,-0.5716666666666667],[0.05604166666666662,-0.6142592592592593],[0.0865624999999999,-0.6211111111111111],[0.10750000000000005,-0.6501851851851852],[0.13010416666666677,-0.7033333333333334],[0.12999999999999995,-0.6935185185185185],[0.12156250000000005,-0.7085185185185185],[0.12114583333333329,-0.6944444444444444],[0.12489583333333343,-0.6985185185185185],[0.1466666666666666,-0.7109259259259259],[0.15031249999999996,-0.7051851851851852],[0.13781249999999995,-0.672037037037037],[0.12729166666666672,-0.6577777777777778],[0.10593750000000005,-0.6362962962962964],[0.10572916666666667,-0.6335185185185186],[0.11114583333333337,-0.6668518518518519],[0.1165625000000001,-0.7001851851851852],[0.12864583333333332,-0.7575925925925926],[0.11166666666666672,-0.8227777777777778],[0.08447916666666658,-0.8642592592592593],[0.06187499999999998,-0.8777777777777778],[0.04385416666666669,-0.9316666666666668],[0.03125,-0.971111111111111],[0.024791666666666618,-1.0262962962962965],[0.0125,-1.008148148148148],[0.0265625,-0.9737037037037036],[0.040625,-0.9392592592592592],[0.035000000000000024,-0.8681481481481482],[0.058437500000000024,-0.7892592592592592],[0.06854166666666663,-0.707962962962963],[0.06197916666666667,-0.6711111111111111],[0.06531250000000005,-0.6346296296296297],[0.059583333333333384,-0.5940740740740741],[0.0728125000000001,-0.5259259259259259],[0.08333333333333333,-0.525],[0.08854166666666667,-0.5516666666666666],[0.09375,-0.5783333333333334],[0.09249999999999996,-0.595925925925926],[0.0884375000000001,-0.5888888888888889],[0.0921875,-0.6457407407407407],[0.09145833333333328,-0.602037037037037],[0.09281249999999991,-0.6368518518518518],[0.10031249999999996,-0.6188888888888888],[0.08937499999999995,-0.6503703703703704],[0.09406249999999995,-0.6757407407407408],[0.0875,-0.6646296296296296],[0.08177083333333333,-0.5990740740740741],[0.09322916666666667,-0.5485185185185185],[0.10395833333333329,-0.515925925925926]]","[[-0.0203125,0.5533333333333332,0.00020000001788389454],[-0.0203125,0.5533333333333332,0.044200000017880825],[-0.022291666666666644,0.5185185185185185,0.0508000000119182],[-0.05604166666666662,0.5800000000000001,0.06509999999403959],[-0.022291666666666644,0.507037037037037,0.08040000000595882],[-0.011562500000000024,0.4861111111111111,0.09530000001191752],[0.02510416666666669,0.40851851851851856,0.11200000000000188],[0.00010416666666669035,0.4168518518518519,0.12890000000596302],[0.00010416666666669035,0.4168518518518519,0.14530000001192178],[-0.0265625,0.4412962962962962,0.1662000000178807],[-0.0265625,0.4412962962962962,0.17870000001788355],[-0.04458333333333329,0.4800000000000001,0.19530000001191894],[-0.04822916666666662,0.45203703703703707,0.21770000001787793],[-0.04822916666666662,0.45203703703703707,0.2287000000178807],[-0.05302083333333331,0.4162962962962962,0.24959999999403948],[-0.05302083333333331,0.4162962962962962,0.2619000000059586],[-0.058749999999999976,0.4698148148148149,0.27900000000000347],[-0.05572916666666667,0.5151851851851853,0.29970000001787866],[-0.05572916666666667,0.5151851851851853,0.3119999999999976],[-0.08927083333333338,0.5881481481481482,0.328800000011924],[-0.1273958333333333,0.6603703703703704,0.347999999999999],[-0.1515625,0.6951851851851851,0.3620000000000019],[-0.14322916666666666,0.7468518518518518,0.3787000000178793],[-0.12427083333333329,0.7525925925925926,0.3953000000119218],[-0.11270833333333338,0.7290740740740742,0.41190000000595717],[-0.10572916666666667,0.7135185185185184,0.42870000001788355],[-0.07541666666666665,0.6824074074074075,0.4454000000059608],[-0.07260416666666672,0.7353703703703705,0.46190000000596143],[-0.09416666666666665,0.7107407407407407,0.4787000000178807],[-0.08416666666666663,0.6642592592592593,0.4953000000119232],[-0.07374999999999995,0.5903703703703703,0.5120000000000005],[-0.06802083333333328,0.5290740740740741,0.5287000000178779],[-0.07291666666666667,0.4751851851851852,0.5454000000059622],[-0.09208333333333331,0.46592592592592597,0.5625],[-0.10197916666666665,0.4861111111111111,0.5785999999940401],[-0.11166666666666672,0.5061111111111111,0.5953000000119175],[-0.11833333333333336,0.524074074074074,0.61190000000596],[-0.1202083333333333,0.46592592592592597,0.6287000000178793],[-0.10583333333333336,0.44240740740740736,0.6453000000119218],[-0.09249999999999996,0.4338888888888888,0.6619000000059572],[-0.0967708333333333,0.46648148148148144,0.6785999999940415],[-0.09354166666666662,0.518148148148148,0.6953000000119189],[-0.08260416666666662,0.5316666666666667,0.7120000000000033],[-0.06031249999999998,0.4948148148148149,0.7292000000178831],[-0.041875000000000044,0.4872222222222223,0.7458000000119185],[-0.02354166666666669,0.4540740740740742,0.7620000000000005],[-0.058333333333333334,0.4581481481481481,0.7787000000178779],[-0.044270833333333336,0.4331481481481481,0.7953000000119204],[-0.07218749999999995,0.4088888888888888,0.8119000000059629],[-0.11625000000000002,0.45259259259259255,0.8287000000178821],[-0.159375,0.43555555555555564,0.8454000000059594],[-0.18552083333333336,0.4177777777777778,0.86190000000596],[-0.2211458333333333,0.3942592592592592,0.8785999999940373],[-0.2404166666666666,0.3116666666666666,0.8957000000178823],[-0.25666666666666665,0.20333333333333325,0.911999999999999],[-0.29281250000000003,0.14518518518518514,0.9288000000119183],[-0.3021875,0.06740740740740736,0.9453000000119189],[-0.36770833333333336,0.03555555555555564,0.9620000000000033],[-0.39302083333333326,0.024629629629629547,0.9785999999940387],[-0.40260416666666665,-0.05259259259259255,0.9953000000119232],[-0.41687500000000005,-0.012592592592592508,1.0120000000000005],[-0.44958333333333333,-0.014629629629629588,1.0287000000178779],[-0.49302083333333335,0.04055555555555551,1.0454000000059622],[-0.5420833333333334,0.14870370370370362,1.0645999999940372],[-0.5420833333333334,0.14870370370370362,1.0810999999940378],[-0.561875,0.20925925925925926,1.0953000000119175],[-0.5748958333333333,0.25999999999999995,1.11190000000596],[-0.5879166666666666,0.31074074074074065,1.1287000000178793],[-0.5745833333333333,0.3229629629629629,1.1453000000119218],[-0.5686458333333333,0.35907407407407405,1.161999999999999],[-0.5663541666666667,0.3785185185185185,1.1785999999940415],[-0.5588541666666667,0.3405555555555555,1.1974000000059632],[-0.5007291666666667,0.334074074074074,1.21220000001788],[-0.43645833333333334,0.2903703703703703,1.2289000000059573],[-0.39385416666666667,0.31851851851851853,1.2487000000178838],[-0.3477083333333333,0.3375925925925925,1.2638000000119192],[-0.2929166666666667,0.36925925925925923,1.2787000000178779],[-0.2391666666666667,0.37407407407407406,1.295499999999997],[-0.20520833333333333,0.4553703703703703,1.3149999999999977],[-0.1508333333333333,0.4388888888888889,1.3290000000000006],[-0.09239583333333339,0.43740740740740747,1.3454000000059594],[-0.029999999999999954,0.4498148148148148,1.3639999999999972],[-0.022708333333333285,0.43074074074074076,1.3788000000119212],[-0.009791666666666643,0.4242592592592593,1.3954999999999984],[0.006458333333333381,0.36314814814814816,1.4149999999999991],[0.004062499999999977,0.3331481481481481,1.4304000000059602],[-0.01552083333333331,0.3072222222222222,1.4455000000000027],[-0.035208333333333286,0.30166666666666664,1.4642000000178825],[-0.00302083333333331,0.22370370370370363,1.4793000000119179],[0.016145833333333335,0.21962962962962967,1.4954999999999998],[0.07208333333333337,0.2257407407407407,1.5120999999940423],[0.12979166666666658,0.2022222222222223,1.5310999999940407],[0.14989583333333342,0.17981481481481484,1.5455999999940389],[0.16437499999999997,0.1448148148148149,1.5622000000178815],[0.18291666666666656,0.14722222222222223,1.578800000011924],[0.19385416666666658,0.13629629629629633,1.5974000000059618],[0.22697916666666676,0.09574074074074082,1.6122000000178787],[0.26375000000000004,0.059999999999999956,1.6307000000178817],[0.2630208333333333,0.03555555555555564,1.6453000000119218],[0.2603125000000001,0.02833333333333325,1.6619000000059572],[0.2196875000000001,-0.013518518518518435,1.6794000000059626],[0.1798958333333334,-0.0198148148148149,1.6955000000000027],[0.20177083333333337,0.013703703703703662,1.712300000011922],[0.20572916666666666,0.028703703703703703,1.7312000000178784],[0.20645833333333338,-0.015000000000000043,1.745400000005958],[0.20843749999999991,0.03166666666666671,1.7619000000059586],[0.19989583333333344,0.03629629629629634,1.7788000000119197],[0.18885416666666663,0.04259259259259259,1.798499999999997],[0.18624999999999994,0.07574074074074069,1.8122000000178815],[0.18406250000000005,0.08981481481481482,1.8290000000000006],[0.18552083333333325,0.10407407407407415,1.8454000000059594],[0.18166666666666675,0.09055555555555551,1.8652000000178788],[0.1508333333333333,0.06055555555555564,1.8803000000119212],[0.1382291666666667,0.04148148148148144,1.8954000000059636],[0.14656250000000004,0.030000000000000086,1.9155999999940363],[0.13083333333333325,-0.013518518518518435,1.9323000000119208],[0.1271874999999999,-0.022777777777777692,1.9479000000059585],[0.12354166666666658,-0.032037037037036954,1.9619000000059614],[0.1118750000000001,-0.05481481481481486,1.9787000000178807],[0.10177083333333338,-0.07574074074074069,1.9953000000119232],[0.07114583333333328,-0.07907407407407405,2.0120000000000005],[0.04052083333333331,-0.0824074074074074,2.028599999994043],[0.03458333333333338,-0.028888888888888933,2.045700000017881],[0.026979166666666644,0.021851851851851768,2.061900000005963],[0.008749999999999977,0.07370370370370362,2.07859999999404],[-0.021979166666666692,0.0962962962962963,2.0953000000119175],[-0.05270833333333336,0.11870370370370374,2.1123000000119205],[-0.06145833333333333,0.12407407407407407,2.1287000000178793],[-0.06479166666666672,0.13425925925925927,2.145300000011922],[-0.0546875,0.14092592592592595,2.161999999999999],[-0.04229166666666669,0.1551851851851851,2.1785999999940415],[-0.02333333333333331,0.18185185185185193,2.195200000017884],[-0.028541666666666642,0.18555555555555564,2.2119000000059614],[-0.03312499999999995,0.2074074074074074,2.2288000000119226],[-0.03312499999999995,0.2074074074074074,2.245300000011923],[-0.02166666666666662,0.22444444444444453,2.2620000000000005],[0.03125,0.19203703703703712,2.2814000000059593],[0.05239583333333329,0.20907407407407402,2.2958000000119227],[0.07249999999999991,0.22185185185185177,2.3122000000178815],[0.08166666666666676,0.23203703703703696,2.3290999999940425],[0.08166666666666676,0.23203703703703696,2.3492000000178805],[0.08052083333333329,0.24537037037037038,2.3622000000178787],[0.08052083333333329,0.24537037037037038,2.378800000011921],[0.08083333333333324,0.26851851851851855,2.402900000005964],[0.08083333333333324,0.26851851851851855,2.412099999994041],[0.07802083333333343,0.23481481481481473,2.42890000000596],[0.07802083333333343,0.23481481481481473,2.445400000005961],[0.09010416666666667,0.23055555555555557,2.467599999994043],[0.09010416666666667,0.23055555555555557,2.4788000000119226],[0.09916666666666671,0.14981481481481476,2.4955],[0.09916666666666671,0.14981481481481476,2.5120999999940423],[0.10510416666666676,0.1,2.534200000017883],[0.10510416666666676,0.1,2.5454000000059622],[0.09187500000000005,0.10240740740740732,2.5620999999940395],[0.09135416666666671,0.09462962962962967,2.578700000017882],[0.084375,0.09870370370370361,2.5984000000059595],[0.084375,0.09870370370370361,2.6120999999940366],[0.06791666666666671,0.03944444444444436,2.628999999999998],[0.051145833333333356,0.01648148148148144,2.648099999994038],[0.059895833333333336,-0.15648148148148147,2.661999999999999],[0.059583333333333384,-0.1948148148148148,2.6788000000119183],[0.04885416666666664,-0.2853703703703704,2.695400000005961],[0.05635416666666669,-0.3037037037037037,2.714500000000001],[0.042604166666666644,-0.36074074074074075,2.7300999999940387],[0.042708333333333334,-0.41648148148148145,2.7464999999999975],[0.059895833333333336,-0.5053703703703704,2.7619000000059586],[0.058541666666666714,-0.5583333333333333,2.778599999994043],[0.07177083333333342,-0.5635185185185185,2.7953000000119204],[0.07416666666666671,-0.64,2.8125],[0.07416666666666671,-0.64,2.8293000000119193],[0.07229166666666677,-0.5548148148148149,2.8454000000059594],[0.06177083333333329,-0.5231481481481481,2.862499999999997],[0.06239583333333331,-0.5362962962962964,2.8792000000178817],[0.05687500000000002,-0.5281481481481481,2.895300000011922],[0.05395833333333329,-0.5431481481481482,2.911999999999999],[0.04031250000000005,-0.5377777777777777,2.9314999999999998],[0.02666666666666669,-0.5324074074074074,2.9495000000000005],[0.035208333333333286,-0.5716666666666667,2.964700000017885],[0.05604166666666662,-0.6142592592592593,2.9810000000000016],[0.0865624999999999,-0.6211111111111111,2.995300000011923],[0.10750000000000005,-0.6501851851851852,3.0119000000059586],[0.13010416666666677,-0.7033333333333334,3.028700000017878],[0.12999999999999995,-0.6935185185185185,3.0465000000000018],[0.12156250000000005,-0.7085185185185185,3.061900000005963],[0.12114583333333329,-0.6944444444444444,3.07859999999404],[0.12489583333333343,-0.6985185185185185,3.0953000000119175],[0.1466666666666666,-0.7109259259259259,3.112599999994039],[0.15031249999999996,-0.7051851851851852,3.1302000000178793],[0.13781249999999995,-0.672037037037037,3.145300000011922],[0.12729166666666672,-0.6577777777777778,3.161999999999999],[0.10593750000000005,-0.6362962962962964,3.1785999999940415],[0.10572916666666667,-0.6335185185185186,3.195300000011919],[0.11114583333333337,-0.6668518518518519,3.2120000000000033],[0.1165625000000001,-0.7001851851851852,3.2287000000178807],[0.12864583333333332,-0.7575925925925926,3.245300000011923],[0.11166666666666672,-0.8227777777777778,3.2619000000059586],[0.08447916666666658,-0.8642592592592593,3.278599999994043],[0.06187499999999998,-0.8777777777777778,3.2953000000119204],[0.04385416666666669,-0.9316666666666668,3.311900000005963],[0.03125,-0.971111111111111,3.328800000011924],[0.024791666666666618,-1.0262962962962965,3.3454000000059594],[0.0125,-1.008148148148148,3.36190000000596],[0.0265625,-0.9737037037037036,3.3785999999940373],[0.040625,-0.9392592592592592,3.395300000011922],[0.035000000000000024,-0.8681481481481482,3.411900000005957],[0.058437500000000024,-0.7892592592592592,3.4287000000178836],[0.06854166666666663,-0.707962962962963,3.445200000017884],[0.06197916666666667,-0.6711111111111111,3.4642000000178825],[0.06531250000000005,-0.6346296296296297,3.4787000000178807],[0.059583333333333384,-0.5940740740740741,3.495400000005958],[0.0728125000000001,-0.5259259259259259,3.5120000000000005],[0.08333333333333333,-0.525,3.532499999999999],[0.08854166666666667,-0.5516666666666666,3.547800000011918],[0.09375,-0.5783333333333334,3.561900000005963],[0.09249999999999996,-0.595925925925926,3.578700000017882],[0.0884375000000001,-0.5888888888888889,3.598900000005962],[0.0921875,-0.6457407407407407,3.6135999999940367],[0.09145833333333328,-0.602037037037037,3.6300999999940373],[0.09281249999999991,-0.6368518518518518,3.6484999999999985],[0.10031249999999996,-0.6188888888888888,3.662099999994041],[0.08937499999999995,-0.6503703703703704,3.6788000000119183],[0.09406249999999995,-0.6757407407407408,3.695400000005961],[0.0875,-0.6646296296296296,3.714599999994043],[0.08177083333333333,-0.5990740740740741,3.729200000017883],[0.09322916666666667,-0.5485185185185185,3.746300000011921],[0.10395833333333329,-0.515925925925926,3.7620999999940423]]","[0.00020000001788389454,0.044200000017880825,0.0508000000119182,0.06509999999403959,0.08040000000595882,0.09530000001191752,0.11200000000000188,0.12890000000596302,0.14530000001192178,0.1662000000178807,0.17870000001788355,0.19530000001191894,0.21770000001787793,0.2287000000178807,0.24959999999403948,0.2619000000059586,0.27900000000000347,0.29970000001787866,0.3119999999999976,0.328800000011924,0.347999999999999,0.3620000000000019,0.3787000000178793,0.3953000000119218,0.41190000000595717,0.42870000001788355,0.4454000000059608,0.46190000000596143,0.4787000000178807,0.4953000000119232,0.5120000000000005,0.5287000000178779,0.5454000000059622,0.5625,0.5785999999940401,0.5953000000119175,0.61190000000596,0.6287000000178793,0.6453000000119218,0.6619000000059572,0.6785999999940415,0.6953000000119189,0.7120000000000033,0.7292000000178831,0.7458000000119185,0.7620000000000005,0.7787000000178779,0.7953000000119204,0.8119000000059629,0.8287000000178821,0.8454000000059594,0.86190000000596,0.8785999999940373,0.8957000000178823,0.911999999999999,0.9288000000119183,0.9453000000119189,0.9620000000000033,0.9785999999940387,0.9953000000119232,1.0120000000000005,1.0287000000178779,1.0454000000059622,1.0645999999940372,1.0810999999940378,1.0953000000119175,1.11190000000596,1.1287000000178793,1.1453000000119218,1.161999999999999,1.1785999999940415,1.1974000000059632,1.21220000001788,1.2289000000059573,1.2487000000178838,1.2638000000119192,1.2787000000178779,1.295499999999997,1.3149999999999977,1.3290000000000006,1.3454000000059594,1.3639999999999972,1.3788000000119212,1.3954999999999984,1.4149999999999991,1.4304000000059602,1.4455000000000027,1.4642000000178825,1.4793000000119179,1.4954999999999998,1.5120999999940423,1.5310999999940407,1.5455999999940389,1.5622000000178815,1.578800000011924,1.5974000000059618,1.6122000000178787,1.6307000000178817,1.6453000000119218,1.6619000000059572,1.6794000000059626,1.6955000000000027,1.712300000011922,1.7312000000178784,1.745400000005958,1.7619000000059586,1.7788000000119197,1.798499999999997,1.8122000000178815,1.8290000000000006,1.8454000000059594,1.8652000000178788,1.8803000000119212,1.8954000000059636,1.9155999999940363,1.9323000000119208,1.9479000000059585,1.9619000000059614,1.9787000000178807,1.9953000000119232,2.0120000000000005,2.028599999994043,2.045700000017881,2.061900000005963,2.07859999999404,2.0953000000119175,2.1123000000119205,2.1287000000178793,2.145300000011922,2.161999999999999,2.1785999999940415,2.195200000017884,2.2119000000059614,2.2288000000119226,2.245300000011923,2.2620000000000005,2.2814000000059593,2.2958000000119227,2.3122000000178815,2.3290999999940425,2.3492000000178805,2.3622000000178787,2.378800000011921,2.402900000005964,2.412099999994041,2.42890000000596,2.445400000005961,2.467599999994043,2.4788000000119226,2.4955,2.5120999999940423,2.534200000017883,2.5454000000059622,2.5620999999940395,2.578700000017882,2.5984000000059595,2.6120999999940366,2.628999999999998,2.648099999994038,2.661999999999999,2.6788000000119183,2.695400000005961,2.714500000000001,2.7300999999940387,2.7464999999999975,2.7619000000059586,2.778599999994043,2.7953000000119204,2.8125,2.8293000000119193,2.8454000000059594,2.862499999999997,2.8792000000178817,2.895300000011922,2.911999999999999,2.9314999999999998,2.9495000000000005,2.964700000017885,2.9810000000000016,2.995300000011923,3.0119000000059586,3.028700000017878,3.0465000000000018,3.061900000005963,3.07859999999404,3.0953000000119175,3.112599999994039,3.1302000000178793,3.145300000011922,3.161999999999999,3.1785999999940415,3.195300000011919,3.2120000000000033,3.2287000000178807,3.245300000011923,3.2619000000059586,3.278599999994043,3.2953000000119204,3.311900000005963,3.328800000011924,3.3454000000059594,3.36190000000596,3.3785999999940373,3.395300000011922,3.411900000005957,3.4287000000178836,3.445200000017884,3.4642000000178825,3.4787000000178807,3.495400000005958,3.5120000000000005,3.532499999999999,3.547800000011918,3.561900000005963,3.578700000017882,3.598900000005962,3.6135999999940367,3.6300999999940373,3.6484999999999985,3.662099999994041,3.6788000000119183,3.695400000005961,3.714599999994043,3.729200000017883,3.746300000011921,3.7620999999940423]","[1733381686184,1733381686220,1733381686227,1733381686241,1733381686256,1733381686271,1733381686288,1733381686305,1733381686321,1733381686342,1733381686355,1733381686371,1733381686394,1733381686405,1733381686425,1733381686438,1733381686455,1733381686476,1733381686488,1733381686505,1733381686524,1733381686538,1733381686554,1733381686571,1733381686588,1733381686605,1733381686621,1733381686638,1733381686654,1733381686671,1733381686688,1733381686705,1733381686721,1733381686738,1733381686754,1733381686771,1733381686788,1733381686805,1733381686821,1733381686838,1733381686855,1733381686871,1733381686888,1733381686905,1733381686922,1733381686938,1733381686955,1733381686971,1733381686988,1733381687005,1733381687021,1733381687038,1733381687055,1733381687072,1733381687088,1733381687105,1733381687121,1733381687138,1733381687155,1733381687171,1733381687188,1733381687205,1733381687221,1733381687240,1733381687257,1733381687271,1733381687288,1733381687305,1733381687321,1733381687338,1733381687355,1733381687373,1733381687390,1733381687407,1733381687426,1733381687442,1733381687457,1733381687473,1733381687493,1733381687507,1733381687523,1733381687542,1733381687557,1733381687573,1733381687593,1733381687608,1733381687623,1733381687642,1733381687657,1733381687673,1733381687690,1733381687709,1733381687723,1733381687740,1733381687757,1733381687775,1733381687790,1733381687808,1733381687823,1733381687840,1733381687857,1733381687873,1733381687890,1733381687909,1733381687923,1733381687940,1733381687957,1733381687976,1733381687990,1733381688007,1733381688023,1733381688043,1733381688058,1733381688073,1733381688093,1733381688110,1733381688126,1733381688140,1733381688156,1733381688173,1733381688190,1733381688207,1733381688223,1733381688240,1733381688256,1733381688273,1733381688290,1733381688306,1733381688323,1733381688340,1733381688356,1733381688373,1733381688390,1733381688407,1733381688423,1733381688440,1733381688459,1733381688473,1733381688490,1733381688507,1733381688527,1733381688540,1733381688557,1733381688581,1733381688590,1733381688607,1733381688623,1733381688645,1733381688657,1733381688673,1733381688690,1733381688712,1733381688723,1733381688740,1733381688756,1733381688776,1733381688790,1733381688807,1733381688826,1733381688840,1733381688857,1733381688873,1733381688892,1733381688908,1733381688924,1733381688940,1733381688956,1733381688973,1733381688990,1733381689007,1733381689023,1733381689040,1733381689057,1733381689073,1733381689090,1733381689109,1733381689127,1733381689142,1733381689159,1733381689173,1733381689190,1733381689207,1733381689224,1733381689240,1733381689256,1733381689273,1733381689290,1733381689308,1733381689323,1733381689340,1733381689356,1733381689373,1733381689390,1733381689407,1733381689423,1733381689440,1733381689456,1733381689473,1733381689490,1733381689507,1733381689523,1733381689540,1733381689556,1733381689573,1733381689590,1733381689606,1733381689623,1733381689642,1733381689656,1733381689673,1733381689690,1733381689710,1733381689726,1733381689740,1733381689756,1733381689777,1733381689791,1733381689808,1733381689826,1733381689840,1733381689857,1733381689873,1733381689892,1733381689907,1733381689924,1733381689940]","[[940.5,838.8],[940.5,838.8],[938.6,820],[906.2,853.2],[938.6,813.8],[948.9,802.5],[984.1,760.6],[960.1,765.1],[960.1,765.1],[934.5,778.3],[934.5,778.3],[917.2,799.2],[913.7,784.1],[913.7,784.1],[909.1,764.8],[909.1,764.8],[903.6,793.7],[906.5,818.2],[906.5,818.2],[874.3,857.6],[837.7,896.6],[814.5,915.4],[822.5,943.3],[840.7,946.4],[851.8,933.7],[858.5,925.3],[887.6,908.5],[890.3,937.1],[869.6,923.8],[879.2,898.7],[889.2,858.8],[894.7,825.7],[890,796.6],[871.6,791.6],[862.1,802.5],[852.8,813.3],[846.4,823],[844.6,791.6],[858.4,778.9],[871.2,774.3],[867.1,791.9],[870.2,819.8],[880.7,827.1],[902.1,807.2],[919.8,803.1],[937.4,785.2],[904,787.4],[917.5,773.9],[890.7,760.8],[848.4,784.4],[807,775.2],[781.9,765.6],[747.7,752.9],[729.2,708.3],[713.6,649.8],[678.9,618.4],[669.9,576.4],[607,559.2],[582.7,553.3],[573.5,511.6],[559.8,533.2],[528.4,532.1],[486.7,561.9],[439.6,620.3],[439.6,620.3],[420.6,653],[408.1,680.4],[395.6,707.8],[408.4,714.4],[414.1,733.9],[416.3,744.4],[423.5,723.9],[479.3,720.4],[541,696.8],[581.9,712],[626.2,722.3],[678.8,739.4],[730.4,742],[763,785.9],[815.2,777],[871.3,776.2],[931.2,782.9],[938.2,772.6],[950.6,769.1],[966.2,736.1],[963.9,719.9],[945.1,705.9],[926.2,702.9],[957.1,660.8],[975.5,658.6],[1029.2,661.9],[1084.6,649.2],[1103.9,637.1],[1117.8,618.2],[1135.6,619.5],[1146.1,613.6],[1177.9,591.7],[1213.2,572.4],[1212.5,559.2],[1209.9,555.3],[1170.9,532.7],[1132.7,529.3],[1153.7,547.4],[1157.5,555.5],[1158.2,531.9],[1160.1,557.1],[1151.9,559.6],[1141.3,563],[1138.8,580.9],[1136.7,588.5],[1138.1,596.2],[1134.4,588.9],[1104.8,572.7],[1092.7,562.4],[1100.7,556.2],[1085.6,532.7],[1082.1,527.7],[1078.6,522.7],[1067.4,510.4],[1057.7,499.1],[1028.3,497.3],[998.9,495.5],[993.2,524.4],[985.9,551.8],[968.4,579.8],[938.9,592],[909.4,604.1],[901,607],[897.8,612.5],[907.5,616.1],[919.4,623.8],[937.6,638.2],[932.6,640.2],[928.2,652],[928.2,652],[939.2,661.2],[990,643.7],[1010.3,652.9],[1029.6,659.8],[1038.4,665.3],[1038.4,665.3],[1037.3,672.5],[1037.3,672.5],[1037.6,685],[1037.6,685],[1034.9,666.8],[1034.9,666.8],[1046.5,664.5],[1046.5,664.5],[1055.2,620.9],[1055.2,620.9],[1060.9,594],[1060.9,594],[1048.2,595.3],[1047.7,591.1],[1041,593.3],[1041,593.3],[1025.2,561.3],[1009.1,548.9],[1017.5,455.5],[1017.2,434.8],[1006.9,385.9],[1014.1,376],[1000.9,345.2],[1001,315.1],[1017.5,267.1],[1016.2,238.5],[1028.9,235.7],[1031.2,194.4],[1031.2,194.4],[1029.4,240.4],[1019.3,257.5],[1019.9,250.4],[1014.6,254.8],[1011.8,246.7],[998.7,249.6],[985.6,252.5],[993.8,231.3],[1013.8,208.3],[1043.1,204.6],[1063.2,188.9],[1084.9,160.2],[1084.8,165.5],[1076.7,157.4],[1076.3,165],[1079.9,162.8],[1100.8,156.1],[1104.3,159.2],[1092.3,177.1],[1082.2,184.8],[1061.7,196.4],[1061.5,197.9],[1066.7,179.9],[1071.9,161.9],[1083.5,130.9],[1067.2,95.7],[1041.1,73.3],[1019.4,66],[1002.1,36.9],[990,15.6],[983.8,-14.2],[972,-4.4],[985.5,14.2],[999,32.8],[993.6,71.2],[1016.1,113.8],[1025.8,157.7],[1019.5,177.6],[1022.7,197.3],[1017.2,219.2],[1029.9,256],[1040,256.5],[1045,242.1],[1050,227.7],[1048.8,218.2],[1044.9,222],[1048.5,191.3],[1047.8,214.9],[1049.1,196.1],[1056.3,205.8],[1045.8,188.8],[1050.3,175.1],[1044,181.1],[1038.5,216.5],[1049.5,243.8],[1059.8,261.4]]","[0,0.5333]","[0.5333,0.5333]","[-0.5333,-0.5333]","[-0.5333,0]","[0,-0.5333]","[0.5333,-0.5333]","[0,0]","[0.5333,0]",0,0,0,0,1,3,Monitor,11,9,9,1
,,,,,,,,,,,,,,,,,,,45,001,2024-12-05_14h54.04.039,Attention_exp_legacy,2023.1.0,Win32,60.24096386,,,,,,,,,,,[0.4791666666666667],[0.4722222222222222],[1],[0],[0],[3.3149999999999977],"[""Option2_label""]",Option2_label,2,4.3162,"[[-0.022916666666666665,0.412962962962963],[-0.022916666666666665,0.4111111111111111],[-0.022916666666666665,0.40925925925925927],[-0.022916666666666665,0.4074074074074074],[-0.022916666666666665,0.40555555555555556],[-0.022916666666666665,0.40370370370370373],[-0.025,0.40185185185185185],[-0.025,0.40185185185185185],[-0.025,0.39814814814814814],[-0.025,0.39814814814814814],[-0.026041666666666668,0.3962962962962963],[-0.026041666666666668,0.39444444444444443],[-0.026041666666666668,0.3925925925925926],[-0.026041666666666668,0.3907407407407407],[-0.028125,0.3888888888888889],[-0.028125,0.3888888888888889],[-0.028125,0.3851851851851852],[-0.028125,0.3851851851851852],[-0.028125,0.3851851851851852],[-0.029166666666666667,0.38333333333333336],[-0.029166666666666667,0.38333333333333336],[-0.029166666666666667,0.38333333333333336],[-0.029166666666666667,0.37962962962962965],[-0.029166666666666667,0.37962962962962965],[-0.029166666666666667,0.37777777777777777],[-0.030208333333333334,0.37777777777777777],[-0.030208333333333334,0.37592592592592594],[-0.030208333333333334,0.37592592592592594],[-0.030208333333333334,0.37592592592592594],[-0.030208333333333334,0.37592592592592594],[-0.030208333333333334,0.37592592592592594],[-0.030208333333333334,0.37407407407407406],[-0.030208333333333334,0.37407407407407406],[-0.030208333333333334,0.37407407407407406],[-0.030208333333333334,0.37222222222222223],[-0.030208333333333334,0.37222222222222223],[-0.030208333333333334,0.37222222222222223],[-0.030208333333333334,0.37222222222222223],[-0.030208333333333334,0.37222222222222223],[-0.030208333333333334,0.37222222222222223],[-0.030208333333333334,0.37222222222222223],[-0.030208333333333334,0.37222222222222223],[-0.030208333333333334,0.37222222222222223],[-0.030208333333333334,0.37222222222222223],[-0.030208333333333334,0.37222222222222223],[-0.030208333333333334,0.37222222222222223],[-0.030208333333333334,0.37222222222222223],[-0.030208333333333334,0.37222222222222223],[-0.030208333333333334,0.37222222222222223],[-0.030208333333333334,0.37222222222222223],[-0.030208333333333334,0.37222222222222223],[-0.030208333333333334,0.37222222222222223],[-0.030208333333333334,0.37222222222222223],[-0.030208333333333334,0.37222222222222223],[-0.030208333333333334,0.37222222222222223],[-0.030208333333333334,0.37222222222222223],[-0.030208333333333334,0.37222222222222223],[-0.030208333333333334,0.37222222222222223],[-0.030208333333333334,0.37222222222222223],[-0.030208333333333334,0.37222222222222223],[-0.030208333333333334,0.37222222222222223],[-0.030208333333333334,0.37222222222222223],[-0.030208333333333334,0.37222222222222223],[-0.030208333333333334,0.37222222222222223],[-0.030208333333333334,0.37222222222222223],[-0.030208333333333334,0.37222222222222223],[-0.030208333333333334,0.37222222222222223],[-0.030208333333333334,0.37222222222222223],[-0.030208333333333334,0.37222222222222223],[-0.030208333333333334,0.37222222222222223],[-0.030208333333333334,0.37222222222222223],[-0.030208333333333334,0.37222222222222223],[-0.030208333333333334,0.37222222222222223],[-0.030208333333333334,0.37222222222222223],[-0.030208333333333334,0.37222222222222223],[-0.030208333333333334,0.37222222222222223],[-0.030208333333333334,0.37222222222222223],[-0.030208333333333334,0.37222222222222223],[-0.030208333333333334,0.37222222222222223],[-0.030208333333333334,0.37222222222222223],[-0.030208333333333334,0.37222222222222223],[-0.030208333333333334,0.37222222222222223],[-0.030208333333333334,0.37222222222222223],[-0.030208333333333334,0.37222222222222223],[-0.030208333333333334,0.37222222222222223],[-0.030208333333333334,0.37222222222222223],[-0.030208333333333334,0.37222222222222223],[-0.030208333333333334,0.37222222222222223],[-0.030208333333333334,0.37222222222222223],[-0.030208333333333334,0.37222222222222223],[-0.030208333333333334,0.37222222222222223],[-0.030208333333333334,0.37222222222222223],[-0.030208333333333334,0.37222222222222223],[-0.030208333333333334,0.37222222222222223],[-0.030208333333333334,0.37222222222222223],[-0.030208333333333334,0.37222222222222223],[-0.030208333333333334,0.37222222222222223],[-0.030208333333333334,0.37222222222222223],[-0.030208333333333334,0.37222222222222223],[-0.030208333333333334,0.37222222222222223],[-0.030208333333333334,0.37222222222222223],[-0.030208333333333334,0.37222222222222223],[-0.030208333333333334,0.37222222222222223],[-0.030208333333333334,0.37222222222222223],[-0.030208333333333334,0.37222222222222223],[-0.030208333333333334,0.37222222222222223],[-0.030208333333333334,0.37222222222222223],[-0.030208333333333334,0.37222222222222223],[-0.030208333333333334,0.37222222222222223],[-0.030208333333333334,0.37222222222222223],[-0.030208333333333334,0.37222222222222223],[-0.030208333333333334,0.37222222222222223],[-0.030208333333333334,0.37222222222222223],[-0.030208333333333334,0.37222222222222223],[-0.030208333333333334,0.37222222222222223],[-0.030208333333333334,0.37222222222222223],[-0.030208333333333334,0.37222222222222223],[-0.030208333333333334,0.37222222222222223],[-0.030208333333333334,0.37222222222222223],[-0.030208333333333334,0.37222222222222223],[-0.030208333333333334,0.37222222222222223],[-0.030208333333333334,0.37222222222222223],[-0.030208333333333334,0.37222222222222223],[-0.030208333333333334,0.37222222222222223],[-0.030208333333333334,0.37222222222222223],[-0.030208333333333334,0.37222222222222223],[-0.030208333333333334,0.37222222222222223],[-0.030208333333333334,0.37222222222222223],[-0.028125,0.37407407407407406],[-0.023958333333333335,0.37777777777777777],[-0.0125,0.3851851851851852],[0.0010416666666666667,0.3888888888888889],[0.021875,0.3925925925925926],[0.041666666666666664,0.4],[0.06458333333333334,0.40370370370370373],[0.0875,0.4111111111111111],[0.11041666666666666,0.4148148148148148],[0.13229166666666667,0.4185185185185185],[0.15520833333333334,0.4203703703703704],[0.17604166666666668,0.42407407407407405],[0.196875,0.43148148148148147],[0.21666666666666667,0.4351851851851852],[0.24791666666666667,0.4444444444444444],[0.26666666666666666,0.45],[0.2833333333333333,0.4537037037037037],[0.303125,0.45740740740740743],[0.31875,0.46111111111111114],[0.334375,0.46296296296296297],[0.3489583333333333,0.4666666666666667],[0.3614583333333333,0.4666666666666667],[0.3729166666666667,0.4685185185185185],[0.38229166666666664,0.4685185185185185],[0.39166666666666666,0.4685185185185185],[0.39895833333333336,0.4685185185185185],[0.4010416666666667,0.4685185185185185],[0.40520833333333334,0.4685185185185185],[0.4083333333333333,0.4685185185185185],[0.4114583333333333,0.4685185185185185],[0.41354166666666664,0.4685185185185185],[0.4197916666666667,0.4685185185185185],[0.4239583333333333,0.4703703703703704],[0.43020833333333336,0.4722222222222222],[0.4395833333333333,0.4722222222222222],[0.446875,0.4722222222222222],[0.453125,0.4722222222222222],[0.4583333333333333,0.4722222222222222],[0.46145833333333336,0.4722222222222222],[0.4635416666666667,0.4722222222222222],[0.4666666666666667,0.4722222222222222],[0.46979166666666666,0.4722222222222222],[0.47291666666666665,0.4722222222222222],[0.47604166666666664,0.4722222222222222],[0.47708333333333336,0.4722222222222222],[0.4791666666666667,0.4722222222222222],[0.4791666666666667,0.4722222222222222],[0.4791666666666667,0.4722222222222222],[0.4791666666666667,0.4722222222222222],[0.4791666666666667,0.4722222222222222],[0.4791666666666667,0.4722222222222222],[0.4791666666666667,0.4722222222222222],[0.4791666666666667,0.4722222222222222],[0.4791666666666667,0.4722222222222222],[0.4791666666666667,0.4722222222222222],[0.4791666666666667,0.4722222222222222],[0.4791666666666667,0.4722222222222222],[0.4791666666666667,0.4722222222222222],[0.4791666666666667,0.4722222222222222],[0.4791666666666667,0.4722222222222222],[0.4791666666666667,0.4722222222222222],[0.4791666666666667,0.4722222222222222],[0.4791666666666667,0.4722222222222222],[0.4791666666666667,0.4722222222222222],[0.4791666666666667,0.4722222222222222],[0.4791666666666667,0.4722222222222222],[0.4791666666666667,0.4722222222222222],[0.4791666666666667,0.4722222222222222],[0.4791666666666667,0.4722222222222222],[0.4791666666666667,0.4722222222222222],[0.4791666666666667,0.4722222222222222],[0.4791666666666667,0.4722222222222222],[0.4791666666666667,0.4722222222222222],[0.4791666666666667,0.4722222222222222],[0.4791666666666667,0.4722222222222222],[0.4791666666666667,0.4722222222222222],[0.4791666666666667,0.4722222222222222],[0.4791666666666667,0.4722222222222222],[0.4791666666666667,0.4722222222222222],[0.4791666666666667,0.4722222222222222],[0.4791666666666667,0.4722222222222222],[0.4791666666666667,0.4722222222222222],[0.4791666666666667,0.4722222222222222],[0.4791666666666667,0.4722222222222222],[0.4791666666666667,0.4722222222222222],[0.4791666666666667,0.4722222222222222],[0.4791666666666667,0.4722222222222222],[0.4791666666666667,0.4722222222222222],[0.4791666666666667,0.4722222222222222],[0.4791666666666667,0.4722222222222222],[0.4791666666666667,0.4722222222222222],[0.4791666666666667,0.4722222222222222],[0.4791666666666667,0.4722222222222222],[0.4791666666666667,0.4722222222222222],[0.4791666666666667,0.4722222222222222],[0.4791666666666667,0.4722222222222222],[0.4791666666666667,0.4722222222222222],[0.4791666666666667,0.4722222222222222],[0.47604166666666664,0.4722222222222222],[0.47604166666666664,0.4722222222222222],[0.4739583333333333,0.4722222222222222],[0.47291666666666665,0.4703703703703704],[0.47291666666666665,0.4703703703703704],[0.471875,0.4703703703703704],[0.471875,0.4703703703703704],[0.46979166666666666,0.4685185185185185],[0.46979166666666666,0.4685185185185185],[0.46979166666666666,0.4685185185185185],[0.46875,0.4685185185185185],[0.46770833333333334,0.4685185185185185],[0.46770833333333334,0.4666666666666667],[0.46770833333333334,0.4666666666666667],[0.4666666666666667,0.4666666666666667],[0.465625,0.4648148148148148],[0.465625,0.4648148148148148],[0.465625,0.4648148148148148],[0.46458333333333335,0.4648148148148148],[0.46458333333333335,0.4648148148148148],[0.46458333333333335,0.4648148148148148],[0.46458333333333335,0.4648148148148148],[0.46458333333333335,0.4648148148148148],[0.46458333333333335,0.4648148148148148],[0.4635416666666667,0.46296296296296297],[0.4635416666666667,0.46296296296296297],[0.4635416666666667,0.46296296296296297],[0.4635416666666667,0.46296296296296297],[0.4635416666666667,0.46296296296296297],[0.4625,0.46296296296296297],[0.4625,0.46296296296296297],[0.4625,0.46296296296296297],[0.4625,0.46296296296296297],[0.4625,0.46296296296296297]]","[[0.08270833333333343,-0.5320370370370371],[0.09916666666666671,-0.46796296296296297],[0.041979166666666616,-0.392037037037037],[0.043333333333333356,-0.43629629629629635],[0.044375000000000026,-0.4418518518518519],[0.019375000000000024,-0.3398148148148148],[-0.011354166666666643,-0.2388888888888889],[-0.022708333333333285,-0.1544444444444444],[-0.022708333333333285,-0.1544444444444444],[-0.05239583333333329,-0.09796296296296292],[-0.11114583333333337,-0.06981481481481479],[-0.1358333333333333,-0.12314814814814815],[-0.19187500000000005,-0.1735185185185185],[-0.14187500000000006,-0.2125925925925926],[-0.1616666666666667,-0.18870370370370365],[-0.18791666666666665,-0.14314814814814816],[-0.19562499999999997,-0.22962962962962963],[-0.19562499999999997,-0.22962962962962963],[-0.18520833333333328,-0.30407407407407405],[-0.18458333333333338,-0.34981481481481475],[-0.17833333333333337,-0.38129629629629624],[-0.13770833333333338,-0.37037037037037035],[-0.10802083333333339,-0.3125925925925926],[-0.08385416666666666,-0.28185185185185185],[-0.08052083333333329,-0.31925925925925924],[-0.06114583333333338,-0.3605555555555555],[-0.03104166666666662,-0.38981481481481484],[0.0006250000000000236,-0.3844444444444445],[0.01072916666666662,-0.35333333333333333],[0.05552083333333328,-0.4053703703703703],[0.09343750000000005,-0.442037037037037],[0.1040625000000001,-0.4359259259259259],[0.09791666666666667,-0.4638888888888889],[0.10177083333333338,-0.4516666666666666],[0.10031249999999996,-0.4046296296296296],[0.13291666666666657,-0.39537037037037037],[0.16302083333333334,-0.4207407407407407],[0.1866666666666667,-0.4492592592592593],[0.19281249999999991,-0.465],[0.1740624999999999,-0.4655555555555555],[0.14177083333333323,-0.4244444444444444],[0.16291666666666677,-0.45092592592592595],[0.16510416666666666,-0.4368518518518518],[0.15572916666666667,-0.4711111111111111],[0.1632291666666667,-0.5146296296296295],[0.13666666666666671,-0.5203703703703704],[0.10239583333333328,-0.47555555555555556],[0.06114583333333338,-0.4287037037037037],[0.07583333333333328,-0.4524074074074074],[0.08541666666666667,-0.4244444444444444],[0.09593749999999991,-0.43407407407407406],[0.08135416666666657,-0.4242592592592593],[0.09885416666666676,-0.415925925925926],[0.11895833333333337,-0.3896296296296296],[0.12218749999999995,-0.35407407407407404],[0.13541666666666666,-0.29240740740740734],[0.1580208333333334,-0.3140740740740741],[0.1859375,-0.32888888888888895],[0.18135416666666657,-0.31444444444444447],[0.153125,-0.30388888888888893],[0.14968750000000006,-0.2992592592592593],[0.14520833333333344,-0.2892592592592592],[0.13614583333333338,-0.34629629629629627],[0.13208333333333327,-0.3846296296296296],[0.1446875000000001,-0.392037037037037],[0.14593749999999991,-0.4203703703703704],[0.11437499999999995,-0.415925925925926],[0.09760416666666671,-0.3931481481481482],[0.09739583333333333,-0.4131481481481482],[0.12427083333333329,-0.4537037037037037],[0.13020833333333334,-0.4255555555555556],[0.13614583333333338,-0.39740740740740743],[0.14489583333333325,-0.29370370370370374],[0.15427083333333325,-0.1911111111111111],[0.13468749999999996,-0.18759259259259262],[0.11645833333333329,-0.18925925925925924],[0.13072916666666667,-0.12999999999999998],[0.11708333333333343,-0.08592592592592588],[0.08687500000000009,0.000925925925925926],[0.08395833333333323,0.01777777777777782],[0.08822916666666672,-0.013703703703703662],[0.090625,-0.055185185185185205],[0.09104166666666676,-0.13796296296296295],[0.1078125,-0.172037037037037],[0.1368750000000001,-0.13796296296296295],[0.16593749999999996,-0.10388888888888893],[0.1616666666666667,-0.15537037037037033],[0.17218749999999997,-0.21888888888888886],[0.19479166666666667,-0.2822222222222222],[0.19177083333333325,-0.2698148148148148],[0.1345833333333334,-0.24314814814814817],[0.07927083333333323,-0.2064814814814815],[0.00916666666666662,-0.19166666666666668],[-0.07791666666666662,-0.22444444444444442],[-0.16124999999999995,-0.2511111111111112],[-0.23989583333333328,-0.25],[-0.28791666666666665,-0.2574074074074074],[-0.33968750000000003,-0.23296296296296298],[-0.41458333333333336,-0.20870370370370367],[-0.47708333333333336,-0.1962962962962963],[-0.47718750000000004,-0.17518518518518522],[-0.47718750000000004,-0.17518518518518522],[-0.48364583333333333,-0.1735185185185185],[-0.4610416666666667,-0.13648148148148145],[-0.4233333333333333,-0.13537037037037042],[-0.4102083333333333,-0.12481481481481477],[-0.40177083333333335,-0.14203703703703702],[-0.39510416666666665,-0.12111111111111107],[-0.39510416666666665,-0.12111111111111107],[-0.38093750000000004,-0.13055555555555556],[-0.38093750000000004,-0.13055555555555556],[-0.34177083333333336,-0.1403703703703704],[-0.34177083333333336,-0.1403703703703704],[-0.3168750000000001,-0.12018518518518514],[-0.3168750000000001,-0.12018518518518514],[-0.31656249999999997,-0.1398148148148148],[-0.2748958333333333,-0.12240740740740745],[-0.2748958333333333,-0.12240740740740745],[-0.23447916666666668,-0.07907407407407405],[-0.2091666666666666,0.0001851851851852273],[-0.1547916666666667,0.011111111111111112],[-0.10041666666666664,0.022037037037036994],[-0.016979166666666618,0.015555555555555513],[0.052083333333333336,0.030000000000000086],[0.10718750000000009,0.0448148148148149],[0.15770833333333342,0.05259259259259255],[0.22458333333333325,0.07703703703703708],[0.25833333333333336,0.10166666666666663],[0.25833333333333336,0.10166666666666663],[0.24583333333333332,0.020185185185185143],[0.23302083333333337,-0.05481481481481486],[0.2287499999999999,-0.0514814814814814],[0.2109375,-0.0816666666666667],[0.16541666666666663,-0.09851851851851849],[0.12760416666666666,-0.09796296296296292],[0.08979166666666671,-0.09740740740740746],[0.08979166666666671,-0.09740740740740746],[0.060104166666666715,-0.13722222222222227],[0.03864583333333336,-0.1844444444444445],[0.011354166666666643,-0.24074074074074073],[0.011562500000000024,-0.24407407407407408],[0.01593749999999995,-0.2735185185185185],[0.0034374999999999527,-0.297037037037037],[0.01906249999999995,-0.307962962962963],[0.035000000000000024,-0.30648148148148147],[0.06749999999999995,-0.3435185185185185],[0.07374999999999995,-0.39814814814814814],[0.08125,-0.45259259259259255],[0.07895833333333328,-0.4542592592592593],[0.07843749999999995,-0.4872222222222223],[0.11624999999999991,-0.487962962962963],[0.11510416666666666,-0.509074074074074],[0.12604166666666666,-0.5374074074074073],[0.11802083333333328,-0.5464814814814816],[0.1328125,-0.5312962962962963],[0.11791666666666671,-0.5625925925925926],[0.14958333333333323,-0.5531481481481482],[0.18364583333333329,-0.5174074074074073],[0.20708333333333329,-0.5305555555555556],[0.2068749999999999,-0.5570370370370371],[0.20583333333333323,-0.5444444444444444],[0.2296875,-0.5059259259259259],[0.24447916666666672,-0.4588888888888889],[0.24447916666666672,-0.4588888888888889],[0.25812499999999994,-0.4762962962962963],[0.24895833333333334,-0.5218518518518519],[0.2860416666666666,-0.5175925925925926],[0.2808333333333332,-0.5359259259259259],[0.25833333333333336,-0.5601851851851852],[0.24802083333333325,-0.580925925925926],[0.2851041666666667,-0.5131481481481482],[0.2904166666666666,-0.5029629629629631],[0.2960416666666667,-0.4588888888888889],[0.32062499999999994,-0.5225925925925926],[0.3507291666666667,-0.5201851851851852],[0.37770833333333326,-0.5151851851851852],[0.37447916666666664,-0.5148148148148148],[0.39718749999999997,-0.5072222222222221],[0.4318749999999999,-0.490925925925926],[0.4648958333333333,-0.5153703703703704],[0.4627083333333334,-0.5287037037037037],[0.4605208333333332,-0.542037037037037],[0.4680208333333333,-0.5816666666666667],[0.4415625000000001,-0.5633333333333334],[0.4259375000000001,-0.5314814814814814],[0.4002083333333334,-0.5774074074074075],[0.3688541666666666,-0.5607407407407408],[0.34489583333333323,-0.5983333333333334],[0.3338541666666667,-0.5964814814814815],[0.32447916666666665,-0.553888888888889],[0.3146874999999999,-0.5572222222222222],[0.30489583333333337,-0.5605555555555556],[0.31437499999999996,-0.5633333333333334],[0.3359375,-0.549074074074074],[0.33354166666666674,-0.5577777777777777],[0.3349999999999999,-0.5137037037037037],[0.3568749999999999,-0.5222222222222223],[0.3636458333333332,-0.4172222222222222],[0.35625,-0.36925925925925923],[0.3545833333333334,-0.3085185185185186],[0.36697916666666663,-0.2655555555555555],[0.39781250000000007,-0.31592592592592594],[0.4015625,-0.3633333333333333],[0.4002083333333334,-0.4007407407407407],[0.4148958333333333,-0.41870370370370374],[0.43864583333333323,-0.4227777777777778],[0.4431250000000001,-0.42055555555555557],[0.46156249999999993,-0.48259259259259263],[0.4560416666666666,-0.5492592592592593],[0.44427083333333334,-0.6316666666666667],[0.425,-0.6814814814814815],[0.38875000000000004,-0.6468518518518519],[0.36729166666666657,-0.6281481481481481],[0.36062500000000003,-0.6092592592592593],[0.3538541666666667,-0.6240740740740741],[0.3420833333333334,-0.6231481481481481],[0.34260416666666677,-0.6274074074074074],[0.3329166666666666,-0.6344444444444445],[0.34968750000000004,-0.6081481481481481],[0.3633333333333333,-0.5681481481481482],[0.4005208333333333,-0.6081481481481481],[0.4243750000000001,-0.6446296296296297],[0.4414583333333333,-0.6622222222222223],[0.45895833333333325,-0.6622222222222223],[0.4736458333333334,-0.6385185185185185],[0.48937499999999995,-0.6385185185185185],[0.49729166666666674,-0.6496296296296297],[0.5205208333333334,-0.6427777777777778],[0.5321875000000001,-0.6694444444444444],[0.5578125,-0.6844444444444445],[0.5527083333333332,-0.6837037037037037],[0.5635416666666667,-0.6559259259259259],[0.5563541666666666,-0.6177777777777779],[0.5360416666666665,-0.5981481481481481],[0.515625,-0.5583333333333333],[0.4991666666666667,-0.5105555555555555],[0.4635416666666667,-0.4309259259259259],[0.459375,-0.4727777777777778],[0.4554166666666667,-0.4866666666666667],[0.4412499999999999,-0.5122222222222222],[0.4539583333333333,-0.47259259259259256],[0.43302083333333335,-0.4787037037037037],[0.4428124999999999,-0.49537037037037035],[0.45583333333333326,-0.5153703703703704],[0.4586458333333333,-0.5348148148148149],[0.4625,-0.5314814814814814],[0.48947916666666674,-0.5446296296296297],[0.4765625,-0.4842592592592593],[0.47374999999999995,-0.4294444444444444],[0.47416666666666674,-0.37166666666666665],[0.47416666666666674,-0.37166666666666665],[0.44864583333333335,-0.3877777777777777],[0.44864583333333335,-0.3877777777777777],[0.4535416666666668,-0.367037037037037],[0.4535416666666668,-0.367037037037037],[0.4622916666666666,-0.37407407407407406],[0.47854166666666675,-0.3509259259259259],[0.47854166666666675,-0.3509259259259259],[0.5051041666666668,-0.3485185185185185],[0.5051041666666668,-0.3485185185185185]]","[[0.08270833333333343,-0.5320370370370371,0.00009999999403476068],[0.09916666666666671,-0.46796296296296297,0.0195999999940355],[0.041979166666666616,-0.392037037037037,0.03459999999403607],[0.043333333333333356,-0.43629629629629635,0.04999999999999716],[0.044375000000000026,-0.4418518518518519,0.07090000000595609],[0.019375000000000024,-0.3398148148148148,0.08509999999403561],[-0.011354166666666643,-0.2388888888888889,0.10040000000595484],[-0.022708333333333285,-0.1544444444444444,0.11630000001191831],[-0.022708333333333285,-0.1544444444444444,0.1364000000059562],[-0.05239583333333329,-0.09796296296296292,0.14970000001788009],[-0.11114583333333337,-0.06981481481481479,0.16759999999403874],[-0.1358333333333333,-0.12314814814814815,0.1830999999940346],[-0.19187500000000005,-0.1735185185185185,0.20209999999403294],[-0.14187500000000006,-0.2125925925925926,0.2164000000059545],[-0.1616666666666667,-0.18870370370370365,0.23309999999403885],[-0.18791666666666665,-0.14314814814814816,0.24959999999403948],[-0.19562499999999997,-0.22962962962962963,0.2684000000059541],[-0.19562499999999997,-0.22962962962962963,0.2829000000059594],[-0.18520833333333328,-0.30407407407407405,0.29959999999403664],[-0.18458333333333338,-0.34981481481481475,0.31820000001787463],[-0.17833333333333337,-0.38129629629629624,0.33290000000595654],[-0.13770833333333338,-0.37037037037037035,0.3497000000178758],[-0.10802083333333339,-0.3125925925925926,0.3689999999999998],[-0.08385416666666666,-0.28185185185185185,0.3829000000059537],[-0.08052083333333329,-0.31925925925925924,0.3997000000178801],[-0.06114583333333338,-0.3605555555555555,0.4194999999999993],[-0.03104166666666662,-0.38981481481481484,0.433700000017879],[0.0006250000000000236,-0.3844444444444445,0.4495999999940352],[0.01072916666666662,-0.35333333333333333,0.46649999999999636],[0.05552083333333328,-0.4053703703703703,0.48280000001192036],[0.09343750000000005,-0.442037037037037,0.4995999999940395],[0.1040625000000001,-0.4359259259259259,0.5184000000059541],[0.09791666666666667,-0.4638888888888889,0.5329000000059594],[0.10177083333333338,-0.4516666666666666,0.5497000000178787],[0.10031249999999996,-0.4046296296296296,0.5688000000119189],[0.13291666666666657,-0.39537037037037037,0.5829000000059565],[0.16302083333333334,-0.4207407407407407,0.599499999999999],[0.1866666666666667,-0.4492592592592593,0.6162000000178764],[0.19281249999999991,-0.465,0.6329000000059537],[0.1740624999999999,-0.4655555555555555,0.6497000000178801],[0.14177083333333323,-0.4244444444444444,0.6663000000119155],[0.16291666666666677,-0.45092592592592595,0.682900000005958],[0.16510416666666666,-0.4368518518518518,0.6994999999999933],[0.15572916666666667,-0.4711111111111111,0.7162000000178779],[0.1632291666666667,-0.5146296296296295,0.7329000000059551],[0.13666666666666671,-0.5203703703703704,0.7497000000178744],[0.10239583333333328,-0.47555555555555556,0.766200000017875],[0.06114583333333338,-0.4287037037037037,0.7829000000059594],[0.07583333333333328,-0.4524074074074074,0.7995999999940366],[0.08541666666666667,-0.4244444444444444,0.8162000000178793],[0.09593749999999991,-0.43407407407407406,0.8329000000059565],[0.08135416666666657,-0.4242592592592593,0.8495999999940338],[0.09885416666666676,-0.415925925925926,0.8663000000119183],[0.11895833333333337,-0.3896296296296296,0.8829000000059537],[0.12218749999999995,-0.35407407407407404,0.8997000000178801],[0.13541666666666666,-0.29240740740740734,0.9163000000119155],[0.1580208333333334,-0.3140740740740741,0.932900000005958],[0.1859375,-0.32888888888888895,0.9498000000119191],[0.18135416666666657,-0.31444444444444447,0.9662000000178779],[0.153125,-0.30388888888888893,0.982999999999997],[0.14968750000000006,-0.2992592592592593,0.9995999999940395],[0.14520833333333344,-0.2892592592592592,1.017700000017875],[0.13614583333333338,-0.34629629629629627,1.03630000001192],[0.13208333333333327,-0.3846296296296296,1.0528000000119206],[0.1446875000000001,-0.392037037037037,1.069400000005956],[0.14593749999999991,-0.4203703703703704,1.0845999999940332],[0.11437499999999995,-0.415925925925926,1.099499999999999],[0.09760416666666671,-0.3931481481481482,1.1162000000178764],[0.09739583333333333,-0.4131481481481482,1.1332000000178795],[0.12427083333333329,-0.4537037037037037,1.150400000005959],[0.13020833333333334,-0.4255555555555556,1.1699999999999946],[0.13614583333333338,-0.39740740740740743,1.1845999999940346],[0.14489583333333325,-0.29370370370370374,1.1997000000178772],[0.15427083333333325,-0.1911111111111111,1.2162000000178779],[0.13468749999999996,-0.18759259259259262,1.2328000000119204],[0.11645833333333329,-0.18925925925925924,1.2498000000119163],[0.13072916666666667,-0.12999999999999998,1.2664999999999935],[0.11708333333333343,-0.08592592592592588,1.283200000017878],[0.08687500000000009,0.000925925925925926,1.2995999999940366],[0.08395833333333323,0.01777777777777782,1.3162000000178793],[0.08822916666666672,-0.013703703703703662,1.333400000005959],[0.090625,-0.055185185185185205,1.3498000000119177],[0.09104166666666676,-0.13796296296296295,1.3662000000178764],[0.1078125,-0.172037037037037,1.3829000000059537],[0.1368750000000001,-0.13796296296296295,1.399599999994038],[0.16593749999999996,-0.10388888888888893,1.416700000017876],[0.1616666666666667,-0.15537037037037033,1.432800000011916],[0.17218749999999997,-0.21888888888888886,1.4495999999940352],[0.19479166666666667,-0.2822222222222222,1.4662000000178779],[0.19177083333333325,-0.2698148148148148,1.4829000000059551],[0.1345833333333334,-0.24314814814814817,1.4995999999940395],[0.07927083333333323,-0.2064814814814815,1.516200000017875],[0.00916666666666662,-0.19166666666666668,1.5329999999999941],[-0.07791666666666662,-0.22444444444444442,1.5497000000178787],[-0.16124999999999995,-0.2511111111111112,1.5662000000178793],[-0.23989583333333328,-0.25,1.5829999999999984],[-0.28791666666666665,-0.2574074074074074,1.5995999999940338],[-0.33968750000000003,-0.23296296296296298,1.6162000000178764],[-0.41458333333333336,-0.20870370370370367,1.6329000000059537],[-0.47708333333333336,-0.1962962962962963,1.6502000000178754],[-0.47718750000000004,-0.17518518518518522,1.6663000000119155],[-0.47718750000000004,-0.17518518518518522,1.682900000005958],[-0.48364583333333333,-0.1735185185185185,1.6995999999940352],[-0.4610416666666667,-0.13648148148148145,1.716800000011915],[-0.4233333333333333,-0.13537037037037042,1.7334000000059575],[-0.4102083333333333,-0.12481481481481477,1.7503000000119187],[-0.40177083333333335,-0.14203703703703702,1.7665999999940354],[-0.39510416666666665,-0.12111111111111107,1.7884000000059572],[-0.39510416666666665,-0.12111111111111107,1.7995999999940366],[-0.38093750000000004,-0.13055555555555556,1.8162000000178793],[-0.38093750000000004,-0.13055555555555556,1.8329000000059565],[-0.34177083333333336,-0.1403703703703704,1.8495999999940338],[-0.34177083333333336,-0.1403703703703704,1.8662000000178764],[-0.3168750000000001,-0.12018518518518514,1.8829999999999956],[-0.3168750000000001,-0.12018518518518514,1.899599999994038],[-0.31656249999999997,-0.1398148148148148,1.9162000000178807],[-0.2748958333333333,-0.12240740740740745,1.9389000000059582],[-0.2748958333333333,-0.12240740740740745,1.9495999999940352],[-0.23447916666666668,-0.07907407407407405,1.9662000000178779],[-0.2091666666666666,0.0001851851851852273,1.9828000000119204],[-0.1547916666666667,0.011111111111111112,1.9995999999940395],[-0.10041666666666664,0.022037037037036994,2.016200000017875],[-0.016979166666666618,0.015555555555555513,2.0335999999940384],[0.052083333333333336,0.030000000000000086,2.051700000017881],[0.10718750000000009,0.0448148148148149,2.0667000000178746],[0.15770833333333342,0.05259259259259255,2.0829000000059565],[0.22458333333333325,0.07703703703703708,2.099599999994034],[0.25833333333333336,0.10166666666666663,2.1162000000178764],[0.25833333333333336,0.10166666666666663,2.135900000005954],[0.24583333333333332,0.020185185185185143,2.1499000000059567],[0.23302083333333337,-0.05481481481481486,2.169099999994039],[0.2287499999999999,-0.0514814814814814,2.1864000000059605],[0.2109375,-0.0816666666666667,2.2012000000178773],[0.16541666666666663,-0.09851851851851849,2.2164000000059545],[0.12760416666666666,-0.09796296296296292,2.233099999994039],[0.08979166666666671,-0.09740740740740746,2.253900000005956],[0.08979166666666671,-0.09740740740740746,2.2668000000119193],[0.060104166666666715,-0.13722222222222227,2.282999999999994],[0.03864583333333336,-0.1844444444444445,2.2998000000119205],[0.011354166666666643,-0.24074074074074073,2.319499999999998],[0.011562500000000024,-0.24407407407407408,2.333200000017875],[0.01593749999999995,-0.2735185185185185,2.3499999999999943],[0.0034374999999999527,-0.297037037037037,2.3684999999999974],[0.01906249999999995,-0.307962962962963,2.3830999999940374],[0.035000000000000024,-0.30648148148148147,2.39970000001788],[0.06749999999999995,-0.3435185185185185,2.4187000000178784],[0.07374999999999995,-0.39814814814814814,2.4333000000119185],[0.08125,-0.45259259259259255,2.4497000000178772],[0.07895833333333328,-0.4542592592592593,2.4695999999940383],[0.07843749999999995,-0.4872222222222223,2.483700000017876],[0.11624999999999991,-0.487962962962963,2.4997000000178744],[0.11510416666666666,-0.509074074074074,2.516300000011917],[0.12604166666666666,-0.5374074074074073,2.5353000000119152],[0.11802083333333328,-0.5464814814814816,2.5519999999999996],[0.1328125,-0.5312962962962963,2.567900000005956],[0.11791666666666671,-0.5625925925925926,2.5862000000178753],[0.14958333333333323,-0.5531481481481482,2.5999999999999943],[0.18364583333333329,-0.5174074074074073,2.6163000000119183],[0.20708333333333329,-0.5305555555555556,2.635200000017875],[0.2068749999999999,-0.5570370370370371,2.6500999999940333],[0.20583333333333323,-0.5444444444444444,2.6664000000059573],[0.2296875,-0.5059259259259259,2.682900000005958],[0.24447916666666672,-0.4588888888888889,2.7048000000119146],[0.24447916666666672,-0.4588888888888889,2.721499999999999],[0.25812499999999994,-0.4762962962962963,2.737599999994039],[0.24895833333333334,-0.5218518518518519,2.7519999999999953],[0.2860416666666666,-0.5175925925925926,2.768400000005954],[0.2808333333333332,-0.5359259259259259,2.782999999999994],[0.25833333333333336,-0.5601851851851852,2.7997000000178787],[0.24802083333333325,-0.580925925925926,2.8189999999999955],[0.2851041666666667,-0.5131481481481482,2.8329000000059565],[0.2904166666666666,-0.5029629629629631,2.849700000017876],[0.2960416666666667,-0.4588888888888889,2.868900000005958],[0.32062499999999994,-0.5225925925925926,2.8829999999999956],[0.3507291666666667,-0.5201851851851852,2.899499999999996],[0.37770833333333326,-0.5151851851851852,2.9163000000119155],[0.37447916666666664,-0.5148148148148148,2.932800000011916],[0.39718749999999997,-0.5072222222222221,2.949599999994035],[0.4318749999999999,-0.490925925925926,2.966200000017878],[0.4648958333333333,-0.5153703703703704,2.982900000005955],[0.4627083333333334,-0.5287037037037037,2.9994999999999976],[0.4605208333333332,-0.542037037037037,3.016200000017875],[0.4680208333333333,-0.5816666666666667,3.0328000000119175],[0.4415625000000001,-0.5633333333333334,3.0495999999940366],[0.4259375000000001,-0.5314814814814814,3.0662000000178793],[0.4002083333333334,-0.5774074074074075,3.0829000000059565],[0.3688541666666666,-0.5607407407407408,3.099599999994034],[0.34489583333333323,-0.5983333333333334,3.1163000000119183],[0.3338541666666667,-0.5964814814814815,3.1329000000059537],[0.32447916666666665,-0.553888888888889,3.15120000001788],[0.3146874999999999,-0.5572222222222222,3.1687000000178784],[0.30489583333333337,-0.5605555555555556,3.182800000011916],[0.31437499999999996,-0.5633333333333334,3.1994999999999933],[0.3359375,-0.549074074074074,3.216099999994036],[0.33354166666666674,-0.5577777777777777,3.2328000000119204],[0.3349999999999999,-0.5137037037037037,3.2495999999940395],[0.3568749999999999,-0.5222222222222223,3.266300000011917],[0.3636458333333332,-0.4172222222222222,3.2829000000059594],[0.35625,-0.36925925925925923,3.2994999999999948],[0.3545833333333334,-0.3085185185185186,3.3160999999940373],[0.36697916666666663,-0.2655555555555555,3.3329000000059565],[0.39781250000000007,-0.31592592592592594,3.349599999994034],[0.4015625,-0.3633333333333333,3.3662000000178764],[0.4002083333333334,-0.4007407407407407,3.382800000011919],[0.4148958333333333,-0.41870370370370374,3.399599999994038],[0.43864583333333323,-0.4227777777777778,3.4162000000178807],[0.4431250000000001,-0.42055555555555557,3.4357000000178815],[0.46156249999999993,-0.48259259259259263,3.450599999994033],[0.4560416666666666,-0.5492592592592593,3.466200000017878],[0.44427083333333334,-0.6316666666666667,3.4854999999999947],[0.425,-0.6814814814814815,3.4995999999940395],[0.38875000000000004,-0.6468518518518519,3.516099999994033],[0.36729166666666657,-0.6281481481481481,3.5328000000119175],[0.36062500000000003,-0.6092592592592593,3.5495999999940366],[0.3538541666666667,-0.6240740740740741,3.5674999999999955],[0.3420833333333334,-0.6231481481481481,3.5829000000059565],[0.34260416666666677,-0.6274074074074074,3.599499999999999],[0.3329166666666666,-0.6344444444444445,3.6162000000178764],[0.34968750000000004,-0.6081481481481481,3.6329000000059537],[0.3633333333333333,-0.5681481481481482,3.64970000001788],[0.4005208333333333,-0.6081481481481481,3.6663000000119155],[0.4243750000000001,-0.6446296296296297,3.682800000011916],[0.4414583333333333,-0.6622222222222223,3.6994999999999933],[0.45895833333333325,-0.6622222222222223,3.71930000001192],[0.4736458333333334,-0.6385185185185185,3.733200000017881],[0.48937499999999995,-0.6385185185185185,3.7497000000178744],[0.49729166666666674,-0.6496296296296297,3.7710999999940356],[0.5205208333333334,-0.6427777777777778,3.7849000000059547],[0.5321875000000001,-0.6694444444444444,3.7995999999940366],[0.5578125,-0.6844444444444445,3.816300000011914],[0.5527083333333332,-0.6837037037037037,3.8329999999999984],[0.5635416666666667,-0.6559259259259259,3.8524000000059573],[0.5563541666666666,-0.6177777777777779,3.8677000000178765],[0.5360416666666665,-0.5981481481481481,3.8829999999999956],[0.515625,-0.5583333333333333,3.899499999999996],[0.4991666666666667,-0.5105555555555555,3.9162000000178807],[0.4635416666666667,-0.4309259259259259,3.9349000000059604],[0.459375,-0.4727777777777778,3.9497000000178772],[0.4554166666666667,-0.4866666666666667,3.9663000000119197],[0.4412499999999999,-0.5122222222222222,3.9828000000119204],[0.4539583333333333,-0.47259259259259256,4.001999999999995],[0.43302083333333335,-0.4787037037037037,4.016300000011917],[0.4428124999999999,-0.49537037037037035,4.0328000000119175],[0.45583333333333326,-0.5153703703703704,4.049700000017879],[0.4586458333333333,-0.5348148148148149,4.0689999999999955],[0.4625,-0.5314814814814814,4.0829000000059565],[0.48947916666666674,-0.5446296296296297,4.099599999994034],[0.4765625,-0.4842592592592593,4.116099999994034],[0.47374999999999995,-0.4294444444444444,4.136900000005959],[0.47416666666666674,-0.37166666666666665,4.153499999999994],[0.47416666666666674,-0.37166666666666665,4.172499999999999],[0.44864583333333335,-0.3877777777777777,4.182900000005958],[0.44864583333333335,-0.3877777777777777,4.199499999999993],[0.4535416666666668,-0.367037037037037,4.216200000017878],[0.4535416666666668,-0.367037037037037,4.232900000005955],[0.4622916666666666,-0.37407407407407406,4.2540999999940325],[0.47854166666666675,-0.3509259259259259,4.271900000005957],[0.47854166666666675,-0.3509259259259259,4.2828000000119175],[0.5051041666666668,-0.3485185185185185,4.299499999999995],[0.5051041666666668,-0.3485185185185185,4.316200000017879]]","[0.00009999999403476068,0.0195999999940355,0.03459999999403607,0.04999999999999716,0.07090000000595609,0.08509999999403561,0.10040000000595484,0.11630000001191831,0.1364000000059562,0.14970000001788009,0.16759999999403874,0.1830999999940346,0.20209999999403294,0.2164000000059545,0.23309999999403885,0.24959999999403948,0.2684000000059541,0.2829000000059594,0.29959999999403664,0.31820000001787463,0.33290000000595654,0.3497000000178758,0.3689999999999998,0.3829000000059537,0.3997000000178801,0.4194999999999993,0.433700000017879,0.4495999999940352,0.46649999999999636,0.48280000001192036,0.4995999999940395,0.5184000000059541,0.5329000000059594,0.5497000000178787,0.5688000000119189,0.5829000000059565,0.599499999999999,0.6162000000178764,0.6329000000059537,0.6497000000178801,0.6663000000119155,0.682900000005958,0.6994999999999933,0.7162000000178779,0.7329000000059551,0.7497000000178744,0.766200000017875,0.7829000000059594,0.7995999999940366,0.8162000000178793,0.8329000000059565,0.8495999999940338,0.8663000000119183,0.8829000000059537,0.8997000000178801,0.9163000000119155,0.932900000005958,0.9498000000119191,0.9662000000178779,0.982999999999997,0.9995999999940395,1.017700000017875,1.03630000001192,1.0528000000119206,1.069400000005956,1.0845999999940332,1.099499999999999,1.1162000000178764,1.1332000000178795,1.150400000005959,1.1699999999999946,1.1845999999940346,1.1997000000178772,1.2162000000178779,1.2328000000119204,1.2498000000119163,1.2664999999999935,1.283200000017878,1.2995999999940366,1.3162000000178793,1.333400000005959,1.3498000000119177,1.3662000000178764,1.3829000000059537,1.399599999994038,1.416700000017876,1.432800000011916,1.4495999999940352,1.4662000000178779,1.4829000000059551,1.4995999999940395,1.516200000017875,1.5329999999999941,1.5497000000178787,1.5662000000178793,1.5829999999999984,1.5995999999940338,1.6162000000178764,1.6329000000059537,1.6502000000178754,1.6663000000119155,1.682900000005958,1.6995999999940352,1.716800000011915,1.7334000000059575,1.7503000000119187,1.7665999999940354,1.7884000000059572,1.7995999999940366,1.8162000000178793,1.8329000000059565,1.8495999999940338,1.8662000000178764,1.8829999999999956,1.899599999994038,1.9162000000178807,1.9389000000059582,1.9495999999940352,1.9662000000178779,1.9828000000119204,1.9995999999940395,2.016200000017875,2.0335999999940384,2.051700000017881,2.0667000000178746,2.0829000000059565,2.099599999994034,2.1162000000178764,2.135900000005954,2.1499000000059567,2.169099999994039,2.1864000000059605,2.2012000000178773,2.2164000000059545,2.233099999994039,2.253900000005956,2.2668000000119193,2.282999999999994,2.2998000000119205,2.319499999999998,2.333200000017875,2.3499999999999943,2.3684999999999974,2.3830999999940374,2.39970000001788,2.4187000000178784,2.4333000000119185,2.4497000000178772,2.4695999999940383,2.483700000017876,2.4997000000178744,2.516300000011917,2.5353000000119152,2.5519999999999996,2.567900000005956,2.5862000000178753,2.5999999999999943,2.6163000000119183,2.635200000017875,2.6500999999940333,2.6664000000059573,2.682900000005958,2.7048000000119146,2.721499999999999,2.737599999994039,2.7519999999999953,2.768400000005954,2.782999999999994,2.7997000000178787,2.8189999999999955,2.8329000000059565,2.849700000017876,2.868900000005958,2.8829999999999956,2.899499999999996,2.9163000000119155,2.932800000011916,2.949599999994035,2.966200000017878,2.982900000005955,2.9994999999999976,3.016200000017875,3.0328000000119175,3.0495999999940366,3.0662000000178793,3.0829000000059565,3.099599999994034,3.1163000000119183,3.1329000000059537,3.15120000001788,3.1687000000178784,3.182800000011916,3.1994999999999933,3.216099999994036,3.2328000000119204,3.2495999999940395,3.266300000011917,3.2829000000059594,3.2994999999999948,3.3160999999940373,3.3329000000059565,3.349599999994034,3.3662000000178764,3.382800000011919,3.399599999994038,3.4162000000178807,3.4357000000178815,3.450599999994033,3.466200000017878,3.4854999999999947,3.4995999999940395,3.516099999994033,3.5328000000119175,3.5495999999940366,3.5674999999999955,3.5829000000059565,3.599499999999999,3.6162000000178764,3.6329000000059537,3.64970000001788,3.6663000000119155,3.682800000011916,3.6994999999999933,3.71930000001192,3.733200000017881,3.7497000000178744,3.7710999999940356,3.7849000000059547,3.7995999999940366,3.816300000011914,3.8329999999999984,3.8524000000059573,3.8677000000178765,3.8829999999999956,3.899499999999996,3.9162000000178807,3.9349000000059604,3.9497000000178772,3.9663000000119197,3.9828000000119204,4.001999999999995,4.016300000011917,4.0328000000119175,4.049700000017879,4.0689999999999955,4.0829000000059565,4.099599999994034,4.116099999994034,4.136900000005959,4.153499999999994,4.172499999999999,4.182900000005958,4.199499999999993,4.216200000017878,4.232900000005955,4.2540999999940325,4.271900000005957,4.2828000000119175,4.299499999999995,4.316200000017879]","[1733381690958,1733381690976,1733381690991,1733381691007,1733381691028,1733381691042,1733381691057,1733381691073,1733381691093,1733381691106,1733381691124,1733381691140,1733381691159,1733381691173,1733381691190,1733381691206,1733381691225,1733381691240,1733381691256,1733381691275,1733381691290,1733381691307,1733381691326,1733381691340,1733381691356,1733381691376,1733381691390,1733381691406,1733381691423,1733381691440,1733381691456,1733381691475,1733381691490,1733381691506,1733381691526,1733381691540,1733381691556,1733381691573,1733381691590,1733381691606,1733381691623,1733381691640,1733381691656,1733381691673,1733381691690,1733381691706,1733381691723,1733381691740,1733381691756,1733381691773,1733381691790,1733381691806,1733381691823,1733381691840,1733381691856,1733381691873,1733381691890,1733381691907,1733381691923,1733381691940,1733381691956,1733381691974,1733381691993,1733381692010,1733381692026,1733381692041,1733381692056,1733381692073,1733381692090,1733381692107,1733381692127,1733381692141,1733381692156,1733381692173,1733381692190,1733381692207,1733381692223,1733381692240,1733381692256,1733381692273,1733381692290,1733381692307,1733381692323,1733381692340,1733381692356,1733381692374,1733381692390,1733381692406,1733381692423,1733381692440,1733381692456,1733381692473,1733381692490,1733381692506,1733381692523,1733381692540,1733381692556,1733381692573,1733381692590,1733381692607,1733381692623,1733381692640,1733381692656,1733381692673,1733381692690,1733381692707,1733381692723,1733381692745,1733381692756,1733381692773,1733381692790,1733381692806,1733381692823,1733381692840,1733381692856,1733381692873,1733381692896,1733381692906,1733381692923,1733381692940,1733381692956,1733381692973,1733381692990,1733381693008,1733381693023,1733381693040,1733381693056,1733381693073,1733381693093,1733381693107,1733381693126,1733381693143,1733381693158,1733381693173,1733381693190,1733381693211,1733381693224,1733381693240,1733381693256,1733381693276,1733381693290,1733381693307,1733381693325,1733381693340,1733381693356,1733381693375,1733381693390,1733381693406,1733381693426,1733381693440,1733381693456,1733381693473,1733381693492,1733381693509,1733381693525,1733381693543,1733381693557,1733381693573,1733381693592,1733381693607,1733381693623,1733381693640,1733381693662,1733381693678,1733381693694,1733381693709,1733381693725,1733381693740,1733381693756,1733381693776,1733381693790,1733381693807,1733381693826,1733381693840,1733381693856,1733381693873,1733381693890,1733381693906,1733381693923,1733381693940,1733381693956,1733381693973,1733381693990,1733381694006,1733381694023,1733381694040,1733381694056,1733381694073,1733381694090,1733381694108,1733381694125,1733381694140,1733381694156,1733381694173,1733381694190,1733381694206,1733381694223,1733381694240,1733381694256,1733381694273,1733381694290,1733381694306,1733381694323,1733381694340,1733381694356,1733381694373,1733381694393,1733381694407,1733381694423,1733381694442,1733381694456,1733381694473,1733381694490,1733381694506,1733381694524,1733381694540,1733381694556,1733381694573,1733381694590,1733381694606,1733381694623,1733381694640,1733381694656,1733381694676,1733381694690,1733381694706,1733381694728,1733381694742,1733381694756,1733381694773,1733381694790,1733381694809,1733381694824,1733381694840,1733381694856,1733381694873,1733381694892,1733381694906,1733381694923,1733381694940,1733381694959,1733381694973,1733381694990,1733381695006,1733381695026,1733381695040,1733381695056,1733381695073,1733381695094,1733381695110,1733381695129,1733381695140,1733381695156,1733381695173,1733381695190,1733381695211,1733381695229,1733381695240,1733381695256,1733381695273]","[[1039.4,252.7],[1055.2,287.3],[1000.3,328.3],[1001.6,304.4],[1002.6,301.4],[978.6,356.5],[949.1,411],[938.2,456.6],[938.2,456.6],[909.7,487.1],[853.3,502.3],[829.6,473.5],[775.8,446.3],[823.8,425.2],[804.8,438.1],[779.6,462.7],[772.2,416],[772.2,416],[782.2,375.8],[782.8,351.1],[788.8,334.1],[827.8,340],[856.3,371.2],[879.5,387.8],[882.7,367.6],[901.3,345.3],[930.2,329.5],[960.6,332.4],[970.3,349.2],[1013.3,321.1],[1049.7,301.3],[1059.9,304.6],[1054,289.5],[1057.7,296.1],[1056.3,321.5],[1087.6,326.5],[1116.5,312.8],[1139.2,297.4],[1145.1,288.9],[1127.1,288.6],[1096.1,310.8],[1116.4,296.5],[1118.5,304.1],[1109.5,285.6],[1116.7,262.1],[1091.2,259],[1058.3,283.2],[1018.7,308.5],[1032.8,295.7],[1042,310.8],[1052.1,305.6],[1038.1,310.9],[1054.9,315.4],[1074.2,329.6],[1077.3,348.8],[1090,382.1],[1111.7,370.4],[1138.5,362.4],[1134.1,370.2],[1107,375.9],[1103.7,378.4],[1099.4,383.8],[1090.7,353],[1086.8,332.3],[1098.9,328.3],[1100.1,313],[1069.8,315.4],[1053.7,327.7],[1053.5,316.9],[1079.3,295],[1085,310.2],[1090.7,325.4],[1099.1,381.4],[1108.1,436.8],[1089.3,438.7],[1071.8,437.8],[1085.5,469.8],[1072.4,493.6],[1043.4,540.5],[1040.6,549.6],[1044.7,532.6],[1047,510.2],[1047.4,465.5],[1063.5,447.1],[1091.4,465.5],[1119.3,483.9],[1115.2,456.1],[1125.3,421.8],[1147,387.6],[1144.1,394.3],[1089.2,408.7],[1036.1,428.5],[968.8,436.5],[885.2,418.8],[805.2,404.4],[729.7,405],[683.6,401],[633.9,414.2],[562,427.3],[502,434],[501.9,445.4],[501.9,445.4],[495.7,446.3],[517.4,466.3],[553.6,466.9],[566.2,472.6],[574.3,463.3],[580.7,474.6],[580.7,474.6],[594.3,469.5],[594.3,469.5],[631.9,464.2],[631.9,464.2],[655.8,475.1],[655.8,475.1],[656.1,464.5],[696.1,473.9],[696.1,473.9],[734.9,497.3],[759.2,540.1],[811.4,546],[863.6,551.9],[943.7,548.4],[1010,556.2],[1062.9,564.2],[1111.4,568.4],[1175.6,581.6],[1208,594.9],[1208,594.9],[1196,550.9],[1183.7,510.4],[1179.6,512.2],[1162.5,495.9],[1118.8,486.8],[1082.5,487.1],[1046.2,487.4],[1046.2,487.4],[1017.7,465.9],[997.1,440.4],[970.9,410],[971.1,408.2],[975.3,392.3],[963.3,379.6],[978.3,373.7],[993.6,374.5],[1024.8,354.5],[1030.8,325],[1038,295.6],[1035.8,294.7],[1035.3,276.9],[1071.6,276.5],[1070.5,265.1],[1081,249.8],[1073.3,244.9],[1087.5,253.1],[1073.2,236.2],[1103.6,241.3],[1136.3,260.6],[1158.8,253.5],[1158.6,239.2],[1157.6,246],[1180.5,266.8],[1194.7,292.2],[1194.7,292.2],[1207.8,282.8],[1199,258.2],[1234.6,260.5],[1229.6,250.6],[1208,237.5],[1198.1,226.3],[1233.7,262.9],[1238.8,268.4],[1244.2,292.2],[1267.8,257.8],[1296.7,259.1],[1322.6,261.8],[1319.5,262],[1341.3,266.1],[1374.6,274.9],[1406.3,261.7],[1404.2,254.5],[1402.1,247.3],[1409.3,225.9],[1383.9,235.8],[1368.9,253],[1344.2,228.2],[1314.1,237.2],[1291.1,216.9],[1280.5,217.9],[1271.5,240.9],[1262.1,239.1],[1252.7,237.3],[1261.8,235.8],[1282.5,243.5],[1280.2,238.8],[1281.6,262.6],[1302.6,258],[1309.1,314.7],[1302,340.6],[1300.4,373.4],[1312.3,396.6],[1341.9,369.4],[1345.5,343.8],[1344.2,323.6],[1358.3,313.9],[1381.1,311.7],[1385.4,312.9],[1403.1,279.4],[1397.8,243.4],[1386.5,198.9],[1368,172],[1333.2,190.7],[1312.6,200.8],[1306.2,211],[1299.7,203],[1288.4,203.5],[1288.9,201.2],[1279.6,197.4],[1295.7,211.6],[1308.8,233.2],[1344.5,211.6],[1367.4,191.9],[1383.8,182.4],[1400.6,182.4],[1414.7,195.2],[1429.8,195.2],[1437.4,189.2],[1459.7,192.9],[1470.9,178.5],[1495.5,170.4],[1490.6,170.8],[1501,185.8],[1494.1,206.4],[1474.6,217],[1455,238.5],[1439.2,264.3],[1405,307.3],[1401,284.7],[1397.2,277.2],[1383.6,263.4],[1395.8,284.8],[1375.7,281.5],[1385.1,272.5],[1397.6,261.7],[1400.3,251.2],[1404,253],[1429.9,245.9],[1417.5,278.5],[1414.8,308.1],[1415.2,339.3],[1415.2,339.3],[1390.7,330.6],[1390.7,330.6],[1395.4,341.8],[1395.4,341.8],[1403.8,338],[1419.4,350.5],[1419.4,350.5],[1444.9,351.8],[1444.9,351.8]]","[0,0.5333]","[0.5333,0.5333]","[-0.5333,-0.5333]","[-0.5333,0]","[0,-0.5333]","[0.5333,-0.5333]","[0,0]","[0.5333,0]",0,1,1,1,1,3,Monitor,5,5,13,7
