inst1_resp.keys,inst1_resp.rt,calibrationMouse.x,calibrationMouse.y,calibrationMouse.leftButton,calibrationMouse.midButton,calibrationMouse.rightButton,calibrationClick.x,calibrationClick.y,calibrationClick.leftButton,calibrationClick.midButton,calibrationClick.rightButton,calibrationClick.clicked_name,trialsc.thisRepN,trialsc.thisTrialN,trialsc.thisN,trialsc.thisIndex,trialsc.ran,calibration_x,calibration_y,participant,session,date,expName,psychopyVersion,OS,frameRate,ScreenRes_pixels,Camera_pixels,mouse_2.x,mouse_2.y,mouse_2.leftButton,mouse_2.midButton,mouse_2.rightButton,mouse_2.time,mouse_2.clicked_name,mouse.x,mouse.y,mouse.leftButton,mouse.midButton,mouse.rightButton,mouse.time,mouse.clicked_name,Choice,Trial,TrialDuration,MOUSE_GAZE,ET_GAZE,ET_GAZE_x_T,time,unixTime,ET_GAZE_NF,Loc_Option1_label,Loc_Option2_label,Loc_Cost_label,Loc_Qual_label,Loc_Option1_cost,Loc_Option2_cost,Loc_Option1_quality,Loc_Option2_quality,trials.thisRepN,trials.thisTrialN,trials.thisN,trials.thisIndex,trials.ran,Block,Device,cost1,qual1,cost2,qual2
space,4.6239,0.190625,0.02037037,1,0,0,-0.673958333,-0.005555556,1,0,0,calibration_square,0,0,0,2,1,-0.67,0,24,001,2024-12-04_14h42.20.112,Attention_exp_legacy,2023.1.0,Win32,59.88023952,,,,,,,,,,,,,,,,,,,,,,,,,,,,,,,,,,,,,,,,,,,,
,,,,,,,-0.335416667,-0.668518519,1,0,0,calibration_square,0,1,1,4,1,-0.33,-0.67,24,001,2024-12-04_14h42.20.112,Attention_exp_legacy,2023.1.0,Win32,59.88023952,,,,,,,,,,,,,,,,,,,,,,,,,,,,,,,,,,,,,,,,,,,,
,,,,,,,0.003125,0.32037037,1,0,0,calibration_square,0,2,2,12,1,0,0.33,24,001,2024-12-04_14h42.20.112,Attention_exp_legacy,2023.1.0,Win32,59.88023952,,,,,,,,,,,,,,,,,,,,,,,,,,,,,,,,,,,,,,,,,,,,
,,,,,,,-0.002083333,-0.677777778,1,0,0,calibration_square,0,3,3,9,1,0,-0.67,24,001,2024-12-04_14h42.20.112,Attention_exp_legacy,2023.1.0,Win32,59.88023952,,,,,,,,,,,,,,,,,,,,,,,,,,,,,,,,,,,,,,,,,,,,
,,,,,,,0.321875,0.664814815,1,0,0,calibration_square,0,4,4,18,1,0.33,0.67,24,001,2024-12-04_14h42.20.112,Attention_exp_legacy,2023.1.0,Win32,59.88023952,,,,,,,,,,,,,,,,,,,,,,,,,,,,,,,,,,,,,,,,,,,,
,,,,,,,0.005208333,0,1,0,0,calibration_square,0,5,5,11,1,0,0,24,001,2024-12-04_14h42.20.112,Attention_exp_legacy,2023.1.0,Win32,59.88023952,,,,,,,,,,,,,,,,,,,,,,,,,,,,,,,,,,,,,,,,,,,,
,,,,,,,-0.008333333,-0.344444444,1,0,0,,0,6,6,10,1,0,-0.33,24,001,2024-12-04_14h42.20.112,Attention_exp_legacy,2023.1.0,Win32,59.88023952,,,,,,,,,,,,,,,,,,,,,,,,,,,,,,,,,,,,,,,,,,,,
,,,,,,,-0.673958333,-0.312962963,1,0,0,,0,7,7,1,1,-0.67,-0.33,24,001,2024-12-04_14h42.20.112,Attention_exp_legacy,2023.1.0,Win32,59.88023952,,,,,,,,,,,,,,,,,,,,,,,,,,,,,,,,,,,,,,,,,,,,
,,,,,,,0.663541667,0.677777778,1,0,0,calibration_square,0,8,8,19,1,0.67,0.67,24,001,2024-12-04_14h42.20.112,Attention_exp_legacy,2023.1.0,Win32,59.88023952,,,,,,,,,,,,,,,,,,,,,,,,,,,,,,,,,,,,,,,,,,,,
,,,,,,,-0.325,-0.007407407,1,0,0,calibration_square,0,9,9,6,1,-0.33,0,24,001,2024-12-04_14h42.20.112,Attention_exp_legacy,2023.1.0,Win32,59.88023952,,,,,,,,,,,,,,,,,,,,,,,,,,,,,,,,,,,,,,,,,,,,
,,,,,,,-0.003125,0.672222222,1,0,0,calibration_square,0,10,10,13,1,0,0.67,24,001,2024-12-04_14h42.20.112,Attention_exp_legacy,2023.1.0,Win32,59.88023952,,,,,,,,,,,,,,,,,,,,,,,,,,,,,,,,,,,,,,,,,,,,
,,,,,,,0.334375,0.333333333,1,0,0,calibration_square,0,11,11,17,1,0.33,0.33,24,001,2024-12-04_14h42.20.112,Attention_exp_legacy,2023.1.0,Win32,59.88023952,,,,,,,,,,,,,,,,,,,,,,,,,,,,,,,,,,,,,,,,,,,,
,,,,,,,0.680208333,-0.664814815,1,0,0,,0,12,12,20,1,0.67,-0.67,24,001,2024-12-04_14h42.20.112,Attention_exp_legacy,2023.1.0,Win32,59.88023952,,,,,,,,,,,,,,,,,,,,,,,,,,,,,,,,,,,,,,,,,,,,
,,,,,,,-0.326041667,0.32962963,1,0,0,calibration_square,0,13,13,7,1,-0.33,0.33,24,001,2024-12-04_14h42.20.112,Attention_exp_legacy,2023.1.0,Win32,59.88023952,,,,,,,,,,,,,,,,,,,,,,,,,,,,,,,,,,,,,,,,,,,,
,,,,,,,-0.669791667,-0.681481481,1,0,0,,0,14,14,0,1,-0.67,-0.67,24,001,2024-12-04_14h42.20.112,Attention_exp_legacy,2023.1.0,Win32,59.88023952,,,,,,,,,,,,,,,,,,,,,,,,,,,,,,,,,,,,,,,,,,,,
,,,,,,,0.336458333,-0.335185185,1,0,0,calibration_square,0,15,15,15,1,0.33,-0.33,24,001,2024-12-04_14h42.20.112,Attention_exp_legacy,2023.1.0,Win32,59.88023952,,,,,,,,,,,,,,,,,,,,,,,,,,,,,,,,,,,,,,,,,,,,
,,,,,,,0.335416667,-0.672222222,1,0,0,calibration_square,0,16,16,14,1,0.33,-0.67,24,001,2024-12-04_14h42.20.112,Attention_exp_legacy,2023.1.0,Win32,59.88023952,,,,,,,,,,,,,,,,,,,,,,,,,,,,,,,,,,,,,,,,,,,,
,,,,,,,-0.336458333,-0.333333333,1,0,0,calibration_square,0,17,17,5,1,-0.33,-0.33,24,001,2024-12-04_14h42.20.112,Attention_exp_legacy,2023.1.0,Win32,59.88023952,,,,,,,,,,,,,,,,,,,,,,,,,,,,,,,,,,,,,,,,,,,,
,,,,,,,-0.329166667,0.674074074,1,0,0,calibration_square,0,18,18,8,1,-0.33,0.67,24,001,2024-12-04_14h42.20.112,Attention_exp_legacy,2023.1.0,Win32,59.88023952,,,,,,,,,,,,,,,,,,,,,,,,,,,,,,,,,,,,,,,,,,,,
,,,,,,,-0.673958333,0.331481481,1,0,0,calibration_square,0,19,19,3,1,-0.67,0.33,24,001,2024-12-04_14h42.20.112,Attention_exp_legacy,2023.1.0,Win32,59.88023952,,,,,,,,,,,,,,,,,,,,,,,,,,,,,,,,,,,,,,,,,,,,
,,,,,,,0.341666667,-0.001851852,1,0,0,,0,20,20,16,1,0.33,0,24,001,2024-12-04_14h42.20.112,Attention_exp_legacy,2023.1.0,Win32,59.88023952,,,,,,,,,,,,,,,,,,,,,,,,,,,,,,,,,,,,,,,,,,,,
,,,,,,,,,,,,,,,,,,,,24,001,2024-12-04_14h42.20.112,Attention_exp_legacy,2023.1.0,Win32,59.88023952,"[1920,1080]","[640,480]",[-0.027083333333333334],[-0.5148148148148148],[1],[0],[0],[1.6852999999970208],"[""StartButton""]",[0.00625],[0.1685185185185185],[1],[0],[0],[2.972200000002985],"[""Option1_label""]",Option1_label,1,3.995,"[[0.01875,-0.020370370370370372],[0.01875,-0.020370370370370372],[0.01875,-0.020370370370370372],[0.01875,-0.020370370370370372],[0.01875,-0.020370370370370372],[0.01875,-0.020370370370370372],[0.01875,-0.020370370370370372],[0.01875,-0.020370370370370372],[0.01875,-0.020370370370370372],[0.01875,-0.020370370370370372],[0.01875,-0.020370370370370372],[0.01875,-0.020370370370370372],[0.01875,-0.020370370370370372],[0.01875,-0.020370370370370372],[0.01875,-0.020370370370370372],[0.01875,-0.020370370370370372],[0.01875,-0.020370370370370372],[0.01875,-0.020370370370370372],[0.01875,-0.020370370370370372],[0.01875,-0.020370370370370372],[0.01875,-0.020370370370370372],[0.01875,-0.020370370370370372],[0.01875,-0.020370370370370372],[0.01875,-0.020370370370370372],[0.01875,-0.020370370370370372],[0.01875,-0.020370370370370372],[0.01875,-0.020370370370370372],[0.01875,-0.018518518518518517],[0.021875,-0.011111111111111112],[0.036458333333333336,0.009259259259259259],[0.046875,0.03148148148148148],[0.059375,0.06111111111111111],[0.06770833333333333,0.08333333333333333],[0.071875,0.1037037037037037],[0.07291666666666667,0.11296296296296296],[0.07395833333333333,0.12407407407407407],[0.07604166666666666,0.13518518518518519],[0.07604166666666666,0.14629629629629629],[0.07604166666666666,0.1537037037037037],[0.07604166666666666,0.1574074074074074],[0.07604166666666666,0.16111111111111112],[0.075,0.16666666666666666],[0.07395833333333333,0.1685185185185185],[0.07291666666666667,0.17222222222222222],[0.071875,0.17407407407407408],[0.06875,0.17777777777777778],[0.06354166666666666,0.17962962962962964],[0.059375,0.17962962962962964],[0.05416666666666667,0.18333333333333332],[0.05,0.18333333333333332],[0.0375,0.17777777777777778],[0.03125,0.17037037037037037],[0.017708333333333333,0.15185185185185185],[0,0.1111111111111111],[-0.0125,0.07777777777777778],[-0.023958333333333335,0.05185185185185185],[-0.03229166666666667,0.024074074074074074],[-0.03854166666666667,0.001851851851851852],[-0.042708333333333334,-0.014814814814814815],[-0.04375,-0.022222222222222223],[-0.04479166666666667,-0.025925925925925925],[-0.04583333333333333,-0.027777777777777776],[-0.04583333333333333,-0.02962962962962963],[-0.046875,-0.03148148148148148],[-0.046875,-0.03148148148148148],[-0.046875,-0.03148148148148148],[-0.046875,-0.03148148148148148],[-0.046875,-0.03148148148148148],[-0.046875,-0.03148148148148148],[-0.046875,-0.03148148148148148],[-0.046875,-0.03148148148148148],[-0.046875,-0.03148148148148148],[-0.046875,-0.03148148148148148],[-0.046875,-0.03148148148148148],[-0.046875,-0.03148148148148148],[-0.046875,-0.03148148148148148],[-0.046875,-0.03148148148148148],[-0.046875,-0.03148148148148148],[-0.046875,-0.03148148148148148],[-0.046875,-0.03148148148148148],[-0.046875,-0.03148148148148148],[-0.046875,-0.03148148148148148],[-0.046875,-0.03148148148148148],[-0.046875,-0.03148148148148148],[-0.046875,-0.03148148148148148],[-0.046875,-0.03148148148148148],[-0.046875,-0.03148148148148148],[-0.046875,-0.03148148148148148],[-0.04583333333333333,-0.03148148148148148],[-0.042708333333333334,-0.027777777777777776],[-0.03854166666666667,-0.024074074074074074],[-0.0375,-0.022222222222222223],[-0.035416666666666666,-0.020370370370370372],[-0.034375,-0.018518518518518517],[-0.03229166666666667,-0.014814814814814815],[-0.030208333333333334,-0.014814814814814815],[-0.029166666666666667,-0.011111111111111112],[-0.025,-0.007407407407407408],[-0.022916666666666665,-0.003703703703703704],[-0.019791666666666666,-0.003703703703703704],[-0.014583333333333334,0.001851851851851852],[-0.011458333333333333,0.003703703703703704],[-0.007291666666666667,0.005555555555555556],[-0.004166666666666667,0.009259259259259259],[-0.0020833333333333333,0.011111111111111112],[-0.0010416666666666667,0.011111111111111112],[0.0010416666666666667,0.012962962962962963],[0.0010416666666666667,0.012962962962962963],[0.0020833333333333333,0.014814814814814815],[0.0020833333333333333,0.014814814814814815],[0.004166666666666667,0.014814814814814815],[0.004166666666666667,0.014814814814814815],[0.004166666666666667,0.014814814814814815],[0.004166666666666667,0.014814814814814815],[0.004166666666666667,0.014814814814814815],[0.004166666666666667,0.014814814814814815],[0.004166666666666667,0.014814814814814815],[0.004166666666666667,0.014814814814814815],[0.004166666666666667,0.014814814814814815],[0.004166666666666667,0.014814814814814815],[0.004166666666666667,0.014814814814814815],[0.004166666666666667,0.014814814814814815],[0.004166666666666667,0.014814814814814815],[0.004166666666666667,0.014814814814814815],[0.004166666666666667,0.014814814814814815],[0.004166666666666667,0.014814814814814815],[0.004166666666666667,0.014814814814814815],[0.004166666666666667,0.014814814814814815],[0.004166666666666667,0.014814814814814815],[0.004166666666666667,0.014814814814814815],[0.004166666666666667,0.014814814814814815],[0.004166666666666667,0.014814814814814815],[0.004166666666666667,0.014814814814814815],[0.004166666666666667,0.014814814814814815],[0.004166666666666667,0.014814814814814815],[0.004166666666666667,0.014814814814814815],[0.004166666666666667,0.014814814814814815],[0.004166666666666667,0.014814814814814815],[0.004166666666666667,0.014814814814814815],[0.004166666666666667,0.014814814814814815],[0.004166666666666667,0.014814814814814815],[0.004166666666666667,0.014814814814814815],[0.004166666666666667,0.014814814814814815],[0.004166666666666667,0.014814814814814815],[0.004166666666666667,0.014814814814814815],[0.004166666666666667,0.014814814814814815],[0.004166666666666667,0.014814814814814815],[0.004166666666666667,0.014814814814814815],[0.004166666666666667,0.014814814814814815],[0.004166666666666667,0.014814814814814815],[0.004166666666666667,0.014814814814814815],[0.004166666666666667,0.014814814814814815],[0.004166666666666667,0.014814814814814815],[0.004166666666666667,0.014814814814814815],[0.004166666666666667,0.014814814814814815],[0.004166666666666667,0.014814814814814815],[0.004166666666666667,0.014814814814814815],[0.004166666666666667,0.02962962962962963],[0.004166666666666667,0.06296296296296296],[0.004166666666666667,0.08703703703703704],[0.00625,0.1],[0.00625,0.11666666666666667],[0.00625,0.1259259259259259],[0.00625,0.13333333333333333],[0.00625,0.1425925925925926],[0.00625,0.1537037037037037],[0.00625,0.15925925925925927],[0.00625,0.16666666666666666],[0.00625,0.1685185185185185],[0.00625,0.1685185185185185],[0.00625,0.1685185185185185],[0.00625,0.1685185185185185],[0.00625,0.1685185185185185],[0.00625,0.1685185185185185],[0.00625,0.1685185185185185],[0.00625,0.1685185185185185],[0.00625,0.1685185185185185],[0.00625,0.1685185185185185],[0.00625,0.1685185185185185],[0.00625,0.1685185185185185],[0.00625,0.1685185185185185],[0.00625,0.1685185185185185],[0.00625,0.1685185185185185],[0.00625,0.1685185185185185],[0.00625,0.1685185185185185],[0.00625,0.1685185185185185],[0.00625,0.1685185185185185],[0.00625,0.1685185185185185],[0.00625,0.1685185185185185],[0.00625,0.1685185185185185],[0.00625,0.1685185185185185],[0.00625,0.1685185185185185],[0.00625,0.1685185185185185],[0.00625,0.1685185185185185],[0.00625,0.1685185185185185],[0.00625,0.1685185185185185],[0.00625,0.1685185185185185],[0.00625,0.1685185185185185],[0.00625,0.1685185185185185],[0.00625,0.1685185185185185],[0.00625,0.1685185185185185],[0.00625,0.1685185185185185],[0.00625,0.1685185185185185],[0.00625,0.1685185185185185],[0.00625,0.1685185185185185],[0.00625,0.1685185185185185],[0.00625,0.1685185185185185],[0.00625,0.1685185185185185],[0.00625,0.1685185185185185],[0.00625,0.1685185185185185],[0.00625,0.1685185185185185],[0.00625,0.1685185185185185],[0.00625,0.1685185185185185],[0.00625,0.1685185185185185],[0.00625,0.1685185185185185],[0.00625,0.1685185185185185],[0.00625,0.1685185185185185],[0.00625,0.1685185185185185],[0.00625,0.1685185185185185],[0.00625,0.1685185185185185],[0.00625,0.1685185185185185],[0.00625,0.1685185185185185],[0.00625,0.1685185185185185],[0.00625,0.1685185185185185],[0.00625,0.1685185185185185],[0.00625,0.1685185185185185],[0.00625,0.1685185185185185],[0.00625,0.1685185185185185],[0.00625,0.1685185185185185],[0.00625,0.1685185185185185],[0.00625,0.1685185185185185],[0.00625,0.1685185185185185],[0.00625,0.1685185185185185],[0.00625,0.1685185185185185],[0.00625,0.1685185185185185],[0.00625,0.1685185185185185],[0.00625,0.1685185185185185],[0.00625,0.1685185185185185],[0.00625,0.1685185185185185],[0.00625,0.1685185185185185]]","[[0.035625000000000046,-0.20629629629629626],[0.035625000000000046,-0.20629629629629626],[0.005208333333333333,-0.18907407407407412],[0.005208333333333333,-0.18907407407407412],[0.004791666666666691,-0.24129629629629631],[-0.00458333333333331,-0.32407407407407407],[-0.00458333333333331,-0.32407407407407407],[-0.0328125,-0.40259259259259256],[-0.035208333333333286,-0.36648148148148146],[-0.035208333333333286,-0.36648148148148146],[-0.04906250000000002,-0.40499999999999997],[-0.049583333333333354,-0.39037037037037037],[-0.05489583333333338,-0.2953703703703704],[-0.05656249999999995,-0.247037037037037],[-0.06187499999999998,-0.2772222222222222],[-0.05010416666666669,-0.2844444444444445],[-0.03979166666666671,-0.29074074074074074],[-0.022604166666666713,-0.23499999999999996],[-0.022604166666666713,-0.23499999999999996],[-0.003541666666666643,-0.17962962962962964],[-0.008020833333333382,-0.20833333333333334],[-0.008020833333333382,-0.20833333333333334],[0.0021875000000000236,-0.18277777777777776],[0.024166666666666715,-0.21703703703703703],[0.04614583333333329,-0.2512962962962963],[0.04375,-0.2035185185185185],[0.06802083333333328,-0.16833333333333328],[0.06802083333333328,-0.16833333333333328],[0.06843750000000005,-0.13629629629629633],[0.06833333333333323,-0.11500000000000005],[0.0703125,-0.12518518518518523],[0.06645833333333329,-0.11240740740740739],[0.0609375,-0.09370370370370375],[0.04708333333333338,0.001851851851851852],[0.017083333333333308,0.03925925925925934],[-0.021875,0.07611111111111116],[-0.04093749999999995,0.075],[-0.04822916666666662,0.05925925925925926],[-0.034062500000000044,0.052037037037037076],[-0.03729166666666662,0.025],[-0.026979166666666644,0.01907407407407399],[-0.016979166666666618,0.005370370370370328],[-0.007083333333333286,-0.009259259259259259],[0.008333333333333333,-0.0764814814814815],[0.014791666666666713,-0.07888888888888893],[0.03447916666666669,-0.06740740740740736],[0.0453125,-0.0962962962962963],[0.03697916666666667,-0.07999999999999997],[0.015312500000000047,-0.09462962962962967],[0.005729166666666666,-0.08870370370370366],[0.000833333333333286,-0.10055555555555558],[0.0012500000000000473,-0.12314814814814815],[0.0016666666666666904,-0.14574074074074073],[-0.000833333333333286,-0.1844444444444445],[0.01864583333333331,-0.23148148148148148],[-0.0016666666666666904,-0.20999999999999996],[0.00010416666666669035,-0.19148148148148145],[-0.013020833333333334,-0.11129629629629634],[-0.013854166666666619,-0.035740740740740656],[-0.006458333333333381,-0.014814814814814815],[0.009895833333333333,-0.006851851851851936],[0.013750000000000047,0.02444444444444453],[0.03291666666666669,0.024074074074074074],[0.02312500000000005,0.031111111111111027],[-0.00791666666666669,0.05981481481481473],[0.0012500000000000473,0.034999999999999955],[-0.001979166666666643,0.05611111111111103],[-0.018437500000000048,0.019444444444444445],[-0.02374999999999995,-0.005000000000000084],[-0.08718750000000004,0.011481481481481566],[-0.15208333333333332,0.062037037037037036],[-0.18083333333333335,0.10648148148148148],[-0.20843750000000003,0.13962962962962958],[-0.25187499999999996,0.2153703703703703],[-0.2960416666666667,0.2777777777777778],[-0.29885416666666664,0.22314814814814815],[-0.29406249999999995,0.17981481481481484],[-0.2719791666666667,0.10425925925925918],[-0.26,0.052037037037037076],[-0.18531249999999996,0.018888888888888972],[-0.13635416666666664,-0.038703703703703664],[-0.11906249999999995,-0.07240740740740745],[-0.11822916666666666,-0.06314814814814819],[-0.06739583333333338,-0.05870370370370368],[-0.006666666666666643,-0.0492592592592593],[0.00604166666666662,0.018333333333333292],[0.01114583333333338,0.07462962962962955],[0.019166666666666644,0.1581481481481481],[0.033854166666666664,0.22277777777777769],[0.025729166666666713,0.28407407407407403],[0.017604166666666643,0.3453703703703704],[0.020937500000000022,0.327962962962963],[0.020624999999999952,0.3199999999999999],[0.016354166666666715,0.2711111111111111],[0.0021875000000000236,0.21722222222222215],[0.005104166666666643,0.21888888888888897],[-0.0020833333333333333,0.19148148148148145],[0.02374999999999995,0.09666666666666675],[0.02374999999999995,0.09666666666666675],[0.01583333333333338,0.05685185185185194],[0.014791666666666713,0.0477777777777777],[0.022083333333333382,0.09574074074074082],[0.022083333333333382,0.09574074074074082],[0.019895833333333356,0.0816666666666667],[0.02520833333333338,0.06703703703703712],[0.03927083333333338,0.07277777777777769],[0.05604166666666662,0.12240740740740745],[0.04614583333333329,0.06870370370370374],[0.04864583333333338,0.05388888888888893],[0.005520833333333286,0.0955555555555556],[-0.010312499999999976,0.06851851851851852],[0.002291666666666714,0.10037037037037046],[0.002291666666666714,0.10037037037037046],[0.005312500000000024,0.072037037037037],[-0.01875,0.05962962962962971],[-0.0375,0.0544444444444444],[-0.07395833333333333,0.03370370370370379],[-0.09989583333333331,-0.04814814814814815],[-0.1391666666666667,-0.10407407407407405],[-0.15843750000000004,-0.08314814814814811],[-0.15843750000000004,-0.08314814814814811],[-0.16854166666666662,-0.07777777777777778],[-0.16854166666666662,-0.07777777777777778],[-0.18260416666666662,-0.05740740740740741],[-0.18260416666666662,-0.05740740740740741],[-0.2094791666666667,-0.1190740740740741],[-0.2094791666666667,-0.1190740740740741],[-0.23510416666666673,-0.17759259259259255],[-0.23395833333333335,-0.1809259259259259],[-0.23395833333333335,-0.1809259259259259],[-0.22541666666666665,-0.19462962962962968],[-0.22541666666666665,-0.19462962962962968],[-0.1875,-0.16944444444444445],[-0.1875,-0.16944444444444445],[-0.17291666666666666,-0.11703703703703702],[-0.1326041666666666,-0.06629629629629631],[-0.1326041666666666,-0.06629629629629631],[-0.11645833333333329,-0.1],[-0.09177083333333336,-0.13277777777777774],[-0.09177083333333336,-0.13277777777777774],[-0.057187499999999974,-0.16055555555555553],[-0.057187499999999974,-0.16055555555555553],[-0.034375,-0.14611111111111108],[-0.034375,-0.14611111111111108],[-0.019270833333333334,-0.13962962962962958],[-0.013125000000000024,-0.10499999999999998],[-0.02354166666666669,-0.07611111111111116],[-0.016562499999999977,-0.13037037037037033],[0.0005208333333333333,-0.19462962962962968],[-0.009687499999999953,-0.18888888888888888],[-0.018020833333333285,-0.1853703703703704],[-0.022916666666666665,-0.22518518518518524],[-0.034062500000000044,-0.2522222222222222],[-0.02947916666666662,-0.2957407407407407],[-0.0171875,-0.33129629629629626],[0.005833333333333357,-0.32629629629629625],[0.028750000000000022,-0.32111111111111107],[0.009062500000000048,-0.29666666666666663],[-0.005104166666666643,-0.26129629629629636],[0.020937500000000022,-0.23574074074074075],[0.049583333333333354,-0.21055555555555552],[0.06145833333333333,-0.1705555555555556],[0.06708333333333343,-0.11888888888888886],[0.052083333333333336,-0.13907407407407413],[0.03708333333333336,-0.15925925925925927],[0.02958333333333331,-0.2155555555555555],[0.026250000000000048,-0.2337037037037037],[0.03083333333333336,-0.23962962962962958],[0.029895833333333382,-0.2564814814814815],[0.01875,-0.25629629629629624],[0.011249999999999953,-0.24648148148148152],[0.0171875,-0.17537037037037034],[0.02947916666666662,-0.1161111111111111],[0.041666666666666664,-0.04666666666666675],[0.05385416666666672,0.022777777777777692],[0.053125,0.062407407407407495],[0.04833333333333331,0.06370370370370367],[0.06760416666666676,0.05944444444444449],[0.08687500000000009,0.0551851851851851],[0.09135416666666671,0.03777777777777774],[0.08958333333333333,0.011111111111111112],[0.06635416666666671,-0.07481481481481478],[0.049583333333333354,-0.13870370370370366],[0.04718749999999995,-0.09166666666666666],[0.05447916666666662,-0.14166666666666666],[0.052291666666666715,-0.1037037037037037],[0.06375000000000004,-0.12129629629629629],[0.013541666666666667,-0.032037037037036954],[-0.036666666666666715,0.05722222222222218],[-0.03999999999999997,0.07740740740740733],[-0.05364583333333333,0.10037037037037046],[-0.03197916666666671,0.07574074074074069],[-0.05249999999999998,0.049629629629629544],[-0.03697916666666667,-0.04537037037037037],[-0.03114583333333331,-0.04333333333333329],[-0.00791666666666669,-0.10259259259259255],[0.0016666666666666904,-0.10629629629629625],[0.03135416666666669,-0.1948148148148148],[0.06239583333333331,-0.28296296296296297],[0.06343749999999998,-0.23703703703703705],[0.06593749999999995,-0.1824074074074074],[0.04697916666666669,-0.0448148148148149],[0.07364583333333338,-0.008148148148148106],[0.057395833333333354,0.006481481481481481],[0.035000000000000024,0.0933333333333333],[0.02333333333333331,0.1557407407407408],[0.02333333333333331,0.1557407407407408],[0.011666666666666714,0.21814814814814806],[0.02010416666666662,0.2212962962962963],[0.028437499999999952,0.22611111111111115],[0.03114583333333331,0.15592592592592602],[0.02666666666666669,0.06277777777777774],[0.029791666666666692,-0.03092592592592601],[0.0453125,-0.002407407407407323],[0.06489583333333329,0.04148148148148144],[0.06541666666666662,-0.056666666666666705],[0.057291666666666664,-0.13129629629629624],[0.05489583333333338,-0.21888888888888886],[0.051041666666666666,-0.25925925925925924],[0.04895833333333333,-0.2518518518518518],[0.04645833333333336,-0.2485185185185185],[0.06395833333333331,-0.21666666666666667],[0.07364583333333338,-0.19444444444444445],[0.06687500000000005,-0.25388888888888894],[0.060104166666666715,-0.3133333333333333],[0.08010416666666677,-0.2942592592592592],[0.10177083333333338,-0.2814814814814815],[0.09729166666666676,-0.2675925925925926],[0.09281249999999991,-0.2537037037037037],[0.10489583333333338,-0.259074074074074],[0.11739583333333338,-0.2603703703703704],[0.09541666666666657,-0.3001851851851852],[0.08406250000000005,-0.33111111111111113],[0.08406250000000005,-0.33111111111111113],[0.0743750000000001,-0.30648148148148147],[0.06083333333333331,-0.3025925925925925],[0.04572916666666664,-0.3074074074074074],[0.03572916666666662,-0.2940740740740741],[0.04614583333333329,-0.26888888888888884],[0.05520833333333333,-0.22999999999999998]]","[[0.035625000000000046,-0.20629629629629626,0.00020000000297670795],[0.035625000000000046,-0.20629629629629626,0.03960000000149222],[0.005208333333333333,-0.18907407407407412,0.04829999999702039],[0.005208333333333333,-0.18907407407407412,0.06170000000297904],[0.004791666666666691,-0.24129629629629631,0.07839999999850988],[-0.00458333333333331,-0.32407407407407407,0.09860000000148972],[-0.00458333333333331,-0.32407407407407407,0.11189999999850642],[-0.0328125,-0.40259259259259256,0.12839999999850704],[-0.035208333333333286,-0.36648148148148146,0.14979999999702187],[-0.035208333333333286,-0.36648148148148146,0.16170000000298046],[-0.04906250000000002,-0.40499999999999997,0.1783999999985113],[-0.049583333333333354,-0.39037037037037037,0.197499999999998],[-0.05489583333333338,-0.2953703703703704,0.21220000000298],[-0.05656249999999995,-0.247037037037037,0.2282999999970201],[-0.06187499999999998,-0.2772222222222222,0.24499999999999744],[-0.05010416666666669,-0.2844444444444445,0.2617000000029819],[-0.03979166666666671,-0.29074074074074074,0.27829999999701727],[-0.022604166666666713,-0.23499999999999996,0.2950000000000017],[-0.022604166666666713,-0.23499999999999996,0.31170000000297904],[-0.003541666666666643,-0.17962962962962964,0.3286000000014866],[-0.008020833333333382,-0.20833333333333334,0.34870000000297807],[-0.008020833333333382,-0.20833333333333334,0.3647000000029763],[0.0021875000000000236,-0.18277777777777776,0.37839999999850704],[0.024166666666666715,-0.21703703703703703,0.394999999999996],[0.04614583333333329,-0.2512962962962963,0.41170000000298046],[0.04375,-0.2035185185185185,0.42849999999999966],[0.06802083333333328,-0.16833333333333328,0.4450000000000003],[0.06802083333333328,-0.16833333333333328,0.464100000001487],[0.06843750000000005,-0.13629629629629633,0.4784999999999968],[0.06833333333333323,-0.11500000000000005,0.49710000000148824],[0.0703125,-0.12518518518518523,0.5141000000014913],[0.06645833333333329,-0.11240740740740739,0.5301000000014895],[0.0609375,-0.09370370370370375,0.5452000000029784],[0.04708333333333338,0.001851851851851852,0.5637000000029815],[0.017083333333333308,0.03925925925925934,0.5784999999999982],[-0.021875,0.07611111111111116,0.5951000000014872],[-0.04093749999999995,0.075,0.6141000000014856],[-0.04822916666666662,0.05925925925925926,0.6288999999985094],[-0.034062500000000044,0.052037037037037076,0.6452000000029798],[-0.03729166666666662,0.025,0.6637000000029758],[-0.026979166666666644,0.01907407407407399,0.6784999999999997],[-0.016979166666666618,0.005370370370370328,0.6977999999970166],[-0.007083333333333286,-0.009259259259259259,0.7142000000029824],[0.008333333333333333,-0.0764814814814815,0.7304999999999993],[0.014791666666666713,-0.07888888888888893,0.7451000000014858],[0.03447916666666669,-0.06740740740740736,0.7637000000029772],[0.0453125,-0.0962962962962963,0.7783999999985056],[0.03697916666666667,-0.07999999999999997,0.7952000000029784],[0.015312500000000047,-0.09462962962962967,0.8152000000029815],[0.005729166666666666,-0.08870370370370366,0.8311000000014914],[0.000833333333333286,-0.10055555555555558,0.8474999999999966],[0.0012500000000000473,-0.12314814814814815,0.8618999999985064],[0.0016666666666666904,-0.14574074074074073,0.8817000000029793],[-0.000833333333333286,-0.1844444444444445,0.8966000000014915],[0.01864583333333331,-0.23148148148148148,0.9117999999970152],[-0.0016666666666666904,-0.20999999999999996,0.9323999999985091],[0.00010416666666669035,-0.19148148148148145,0.947499999999998],[-0.013020833333333334,-0.11129629629629634,0.9617999999970195],[-0.013854166666666619,-0.035740740740740656,0.9784999999999968],[-0.006458333333333381,-0.014814814814814815,0.9971000000014882],[0.009895833333333333,-0.006851851851851936,1.0117999999970166],[0.013750000000000047,0.02444444444444453,1.0287000000029778],[0.03291666666666669,0.024074074074074074,1.0476000000014878],[0.02312500000000005,0.031111111111111027,1.0630000000000024],[-0.00791666666666669,0.05981481481481473,1.0782999999970215],[0.0012500000000000473,0.034999999999999955,1.0949999999999989],[-0.001979166666666643,0.05611111111111103,1.1116000000014878],[-0.018437500000000048,0.019444444444444445,1.1284999999999954],[-0.02374999999999995,-0.005000000000000084,1.144999999999996],[-0.08718750000000004,0.011481481481481566,1.1617000000029805],[-0.15208333333333332,0.062037037037037036,1.1782999999970158],[-0.18083333333333335,0.10648148148148148,1.1951000000014886],[-0.20843750000000003,0.13962962962962958,1.2117000000029776],[-0.25187499999999996,0.2153703703703703,1.2297999999970202],[-0.2960416666666667,0.2777777777777778,1.245299999997016],[-0.29885416666666664,0.22314814814814815,1.2617000000029819],[-0.29406249999999995,0.17981481481481484,1.2782999999970173],[-0.2719791666666667,0.10425925925925918,1.2950000000000017],[-0.26,0.052037037037037076,1.3116000000014907],[-0.18531249999999996,0.018888888888888972,1.3283999999985099],[-0.13635416666666664,-0.038703703703703664,1.3449999999999989],[-0.11906249999999995,-0.07240740740740745,1.3617000000029762],[-0.11822916666666666,-0.06314814814814819,1.3782999999970187],[-0.06739583333333338,-0.05870370370370368,1.394999999999996],[-0.006666666666666643,-0.0492592592592593,1.4117000000029805],[0.00604166666666662,0.018333333333333292,1.4297000000029811],[0.01114583333333338,0.07462962962962955,1.4450000000000003],[0.019166666666666644,0.1581481481481481,1.4616000000014893],[0.033854166666666664,0.22277777777777769,1.4807999999970178],[0.025729166666666713,0.28407407407407403,1.495299999997016],[0.017604166666666643,0.3453703703703704,1.5144999999999982],[0.020937500000000022,0.327962962962963,1.5327999999970174],[0.020624999999999952,0.3199999999999999,1.5480000000000018],[0.016354166666666715,0.2711111111111111,1.5647000000029792],[0.0021875000000000236,0.21722222222222215,1.5797999999970216],[0.005104166666666643,0.21888888888888897,1.5981000000014873],[-0.0020833333333333333,0.19148148148148145,1.6144999999999996],[0.02374999999999995,0.09666666666666675,1.6336000000014863],[0.02374999999999995,0.09666666666666675,1.6452000000029798],[0.01583333333333338,0.05685185185185194,1.6670000000000016],[0.014791666666666713,0.0477777777777777,1.6816000000014881],[0.022083333333333382,0.09574074074074082,1.6965000000000003],[0.022083333333333382,0.09574074074074082,1.714100000001487],[0.019895833333333356,0.0816666666666667,1.7286000000014923],[0.02520833333333338,0.06703703703703712,1.7460000000000022],[0.03927083333333338,0.07277777777777769,1.7643999999985098],[0.05604166666666662,0.12240740740740745,1.7786000000014894],[0.04614583333333329,0.06870370370370374,1.7948999999985062],[0.04864583333333338,0.05388888888888893,1.811799999997021],[0.005520833333333286,0.0955555555555556,1.8283999999985099],[-0.010312499999999976,0.06851851851851852,1.847200000002978],[0.002291666666666714,0.10037037037037046,1.8622999999970204],[0.002291666666666714,0.10037037037037046,1.8782999999970187],[0.005312500000000024,0.072037037037037,1.8951000000014915],[-0.01875,0.05962962962962971,1.9117000000029805],[-0.0375,0.0544444444444444,1.9283999999985113],[-0.07395833333333333,0.03370370370370379,1.9462000000029818],[-0.09989583333333331,-0.04814814814814815,1.9617000000029776],[-0.1391666666666667,-0.10407407407407405,1.9783999999985085],[-0.15843750000000004,-0.08314814814814811,1.9968999999985115],[-0.15843750000000004,-0.08314814814814811,2.014700000002982],[-0.16854166666666662,-0.07777777777777778,2.0283999999985056],[-0.16854166666666662,-0.07777777777777778,2.045899999998511],[-0.18260416666666662,-0.05740740740740741,2.0616000000014907],[-0.18260416666666662,-0.05740740740740741,2.07839999999851],[-0.2094791666666667,-0.1190740740740741,2.094999999999999],[-0.2094791666666667,-0.1190740740740741,2.111700000002976],[-0.23510416666666673,-0.17759259259259255,2.1284999999999954],[-0.23395833333333335,-0.1809259259259259,2.14839999999851],[-0.23395833333333335,-0.1809259259259259,2.1617000000029805],[-0.22541666666666665,-0.19462962962962968,2.178299999997016],[-0.22541666666666665,-0.19462962962962968,2.1951000000014886],[-0.1875,-0.16944444444444445,2.2117000000029776],[-0.1875,-0.16944444444444445,2.2283999999985085],[-0.17291666666666666,-0.11703703703703702,2.2449999999999974],[-0.1326041666666666,-0.06629629629629631,2.2652000000029773],[-0.1326041666666666,-0.06629629629629631,2.2782999999970173],[-0.11645833333333329,-0.1,2.29510000000149],[-0.09177083333333336,-0.13277777777777774,2.316299999997021],[-0.09177083333333336,-0.13277777777777774,2.32839999999851],[-0.057187499999999974,-0.16055555555555553,2.344999999999999],[-0.057187499999999974,-0.16055555555555553,2.361700000002976],[-0.034375,-0.14611111111111108,2.3782999999970187],[-0.034375,-0.14611111111111108,2.394999999999996],[-0.019270833333333334,-0.13962962962962958,2.411600000001492],[-0.013125000000000024,-0.10499999999999998,2.4284999999999997],[-0.02354166666666669,-0.07611111111111116,2.4450000000000003],[-0.016562499999999977,-0.13037037037037033,2.4616000000014893],[0.0005208333333333333,-0.19462962962962968,2.47829999999702],[-0.009687499999999953,-0.18888888888888888,2.4949999999999974],[-0.018020833333333285,-0.1853703703703704,2.5116000000014864],[-0.022916666666666665,-0.22518518518518524,2.5289999999999964],[-0.034062500000000044,-0.2522222222222222,2.5450000000000017],[-0.02947916666666662,-0.2957407407407407,2.5616000000014907],[-0.0171875,-0.33129629629629626,2.5782999999970215],[0.005833333333333357,-0.32629629629629625,2.594999999999999],[0.028750000000000022,-0.32111111111111107,2.611600000001488],[0.009062500000000048,-0.29666666666666663,2.6307000000029817],[-0.005104166666666643,-0.26129629629629636,2.6451000000014915],[0.020937500000000022,-0.23574074074074075,2.661799999997015],[0.049583333333333354,-0.21055555555555552,2.6784999999999997],[0.06145833333333333,-0.1705555555555556,2.696700000002977],[0.06708333333333343,-0.11888888888888886,2.711899999998508],[0.052083333333333336,-0.13907407407407413,2.729200000002976],[0.03708333333333336,-0.15925925925925927,2.745100000001486],[0.02958333333333331,-0.2155555555555555,2.7642000000029796],[0.026250000000000048,-0.2337037037037037,2.778500000000001],[0.03083333333333336,-0.23962962962962958,2.7952000000029784],[0.029895833333333382,-0.2564814814814815,2.8141000000014884],[0.01875,-0.25629629629629624,2.8312999999970216],[0.011249999999999953,-0.24648148148148152,2.845399999998506],[0.0171875,-0.17537037037037034,2.861600000001488],[0.02947916666666662,-0.1161111111111111,2.8782999999970187],[0.041666666666666664,-0.04666666666666675,2.8948999999985077],[0.05385416666666672,0.022777777777777692,2.911600000001492],[0.053125,0.062407407407407495,2.9283999999985113],[0.04833333333333331,0.06370370370370367,2.944899999998512],[0.06760416666666676,0.05944444444444449,2.9617000000029776],[0.08687500000000009,0.0551851851851851,2.9783999999985085],[0.09135416666666671,0.03777777777777774,2.9949999999999974],[0.08958333333333333,0.011111111111111112,3.011700000002982],[0.06635416666666671,-0.07481481481481478,3.028500000000001],[0.049583333333333354,-0.13870370370370366,3.0450000000000017],[0.04718749999999995,-0.09166666666666666,3.061700000002979],[0.05447916666666662,-0.14166666666666666,3.0782999999970215],[0.052291666666666715,-0.1037037037037037,3.094999999999999],[0.06375000000000004,-0.12129629629629629,3.1148999999985065],[0.013541666666666667,-0.032037037037036954,3.131399999998507],[-0.036666666666666715,0.05722222222222218,3.1472000000029823],[-0.03999999999999997,0.07740740740740733,3.16279999999702],[-0.05364583333333333,0.10037037037037046,3.178299999997016],[-0.03197916666666671,0.07574074074074069,3.1962000000029818],[-0.05249999999999998,0.049629629629629544,3.2116000000014893],[-0.03697916666666667,-0.04537037037037037,3.2297000000029783],[-0.03114583333333331,-0.04333333333333329,3.2461000000014906],[-0.00791666666666669,-0.10259259259259255,3.2616000000014864],[0.0016666666666666904,-0.10629629629629625,3.2782999999970173],[0.03135416666666669,-0.1948148148148148,3.2950000000000017],[0.06239583333333331,-0.28296296296296297,3.3116000000014907],[0.06343749999999998,-0.23703703703703705,3.3282999999970215],[0.06593749999999995,-0.1824074074074074,3.3448999999985105],[0.04697916666666669,-0.0448148148148149,3.361600000001488],[0.07364583333333338,-0.008148148148148106,3.378399999998507],[0.057395833333333354,0.006481481481481481,3.3948999999985077],[0.035000000000000024,0.0933333333333333,3.411600000001492],[0.02333333333333331,0.1557407407407408,3.428299999997016],[0.02333333333333331,0.1557407407407408,3.444899999998512],[0.011666666666666714,0.21814814814814806,3.4616000000014893],[0.02010416666666662,0.2212962962962963,3.4782000000029782],[0.028437499999999952,0.22611111111111115,3.4949999999999974],[0.03114583333333331,0.15592592592592602,3.5116000000014864],[0.02666666666666669,0.06277777777777774,3.531899999998508],[0.029791666666666692,-0.03092592592592601,3.548899999998511],[0.0453125,-0.002407407407407323,3.5634999999999977],[0.06489583333333329,0.04148148148148144,3.5782999999970215],[0.06541666666666662,-0.056666666666666705,3.594999999999999],[0.057291666666666664,-0.13129629629629624,3.611600000001488],[0.05489583333333338,-0.21888888888888886,3.6296000000014885],[0.051041666666666666,-0.25925925925925924,3.644999999999996],[0.04895833333333333,-0.2518518518518518,3.661600000001492],[0.04645833333333336,-0.2485185185185185,3.678299999997016],[0.06395833333333331,-0.21666666666666667,3.6950000000000003],[0.07364583333333338,-0.19444444444444445,3.7117000000029776],[0.06687500000000005,-0.25388888888888894,3.7283999999985085],[0.060104166666666715,-0.3133333333333333,3.7449999999999974],[0.08010416666666677,-0.2942592592592592,3.7616000000014864],[0.10177083333333338,-0.2814814814814815,3.7782999999970173],[0.09729166666666676,-0.2675925925925926,3.7950000000000017],[0.09281249999999991,-0.2537037037037037,3.8116000000014907],[0.10489583333333338,-0.259074074074074,3.82839999999851],[0.11739583333333338,-0.2603703703703704,3.844999999999999],[0.09541666666666657,-0.3001851851851852,3.8647000000029763],[0.08406250000000005,-0.33111111111111113,3.8833999999985096],[0.08406250000000005,-0.33111111111111113,3.898299999997022],[0.0743750000000001,-0.30648148148148147,3.911600000001492],[0.06083333333333331,-0.3025925925925925,3.928299999997016],[0.04572916666666664,-0.3074074074074074,3.9450000000000003],[0.03572916666666662,-0.2940740740740741,3.9617000000029776],[0.04614583333333329,-0.26888888888888884,3.9782000000029782],[0.05520833333333333,-0.22999999999999998,3.9949999999999974]]","[0.00020000000297670795,0.03960000000149222,0.04829999999702039,0.06170000000297904,0.07839999999850988,0.09860000000148972,0.11189999999850642,0.12839999999850704,0.14979999999702187,0.16170000000298046,0.1783999999985113,0.197499999999998,0.21220000000298,0.2282999999970201,0.24499999999999744,0.2617000000029819,0.27829999999701727,0.2950000000000017,0.31170000000297904,0.3286000000014866,0.34870000000297807,0.3647000000029763,0.37839999999850704,0.394999999999996,0.41170000000298046,0.42849999999999966,0.4450000000000003,0.464100000001487,0.4784999999999968,0.49710000000148824,0.5141000000014913,0.5301000000014895,0.5452000000029784,0.5637000000029815,0.5784999999999982,0.5951000000014872,0.6141000000014856,0.6288999999985094,0.6452000000029798,0.6637000000029758,0.6784999999999997,0.6977999999970166,0.7142000000029824,0.7304999999999993,0.7451000000014858,0.7637000000029772,0.7783999999985056,0.7952000000029784,0.8152000000029815,0.8311000000014914,0.8474999999999966,0.8618999999985064,0.8817000000029793,0.8966000000014915,0.9117999999970152,0.9323999999985091,0.947499999999998,0.9617999999970195,0.9784999999999968,0.9971000000014882,1.0117999999970166,1.0287000000029778,1.0476000000014878,1.0630000000000024,1.0782999999970215,1.0949999999999989,1.1116000000014878,1.1284999999999954,1.144999999999996,1.1617000000029805,1.1782999999970158,1.1951000000014886,1.2117000000029776,1.2297999999970202,1.245299999997016,1.2617000000029819,1.2782999999970173,1.2950000000000017,1.3116000000014907,1.3283999999985099,1.3449999999999989,1.3617000000029762,1.3782999999970187,1.394999999999996,1.4117000000029805,1.4297000000029811,1.4450000000000003,1.4616000000014893,1.4807999999970178,1.495299999997016,1.5144999999999982,1.5327999999970174,1.5480000000000018,1.5647000000029792,1.5797999999970216,1.5981000000014873,1.6144999999999996,1.6336000000014863,1.6452000000029798,1.6670000000000016,1.6816000000014881,1.6965000000000003,1.714100000001487,1.7286000000014923,1.7460000000000022,1.7643999999985098,1.7786000000014894,1.7948999999985062,1.811799999997021,1.8283999999985099,1.847200000002978,1.8622999999970204,1.8782999999970187,1.8951000000014915,1.9117000000029805,1.9283999999985113,1.9462000000029818,1.9617000000029776,1.9783999999985085,1.9968999999985115,2.014700000002982,2.0283999999985056,2.045899999998511,2.0616000000014907,2.07839999999851,2.094999999999999,2.111700000002976,2.1284999999999954,2.14839999999851,2.1617000000029805,2.178299999997016,2.1951000000014886,2.2117000000029776,2.2283999999985085,2.2449999999999974,2.2652000000029773,2.2782999999970173,2.29510000000149,2.316299999997021,2.32839999999851,2.344999999999999,2.361700000002976,2.3782999999970187,2.394999999999996,2.411600000001492,2.4284999999999997,2.4450000000000003,2.4616000000014893,2.47829999999702,2.4949999999999974,2.5116000000014864,2.5289999999999964,2.5450000000000017,2.5616000000014907,2.5782999999970215,2.594999999999999,2.611600000001488,2.6307000000029817,2.6451000000014915,2.661799999997015,2.6784999999999997,2.696700000002977,2.711899999998508,2.729200000002976,2.745100000001486,2.7642000000029796,2.778500000000001,2.7952000000029784,2.8141000000014884,2.8312999999970216,2.845399999998506,2.861600000001488,2.8782999999970187,2.8948999999985077,2.911600000001492,2.9283999999985113,2.944899999998512,2.9617000000029776,2.9783999999985085,2.9949999999999974,3.011700000002982,3.028500000000001,3.0450000000000017,3.061700000002979,3.0782999999970215,3.094999999999999,3.1148999999985065,3.131399999998507,3.1472000000029823,3.16279999999702,3.178299999997016,3.1962000000029818,3.2116000000014893,3.2297000000029783,3.2461000000014906,3.2616000000014864,3.2782999999970173,3.2950000000000017,3.3116000000014907,3.3282999999970215,3.3448999999985105,3.361600000001488,3.378399999998507,3.3948999999985077,3.411600000001492,3.428299999997016,3.444899999998512,3.4616000000014893,3.4782000000029782,3.4949999999999974,3.5116000000014864,3.531899999998508,3.548899999998511,3.5634999999999977,3.5782999999970215,3.594999999999999,3.611600000001488,3.6296000000014885,3.644999999999996,3.661600000001492,3.678299999997016,3.6950000000000003,3.7117000000029776,3.7283999999985085,3.7449999999999974,3.7616000000014864,3.7782999999970173,3.7950000000000017,3.8116000000014907,3.82839999999851,3.844999999999999,3.8647000000029763,3.8833999999985096,3.898299999997022,3.911600000001492,3.928299999997016,3.9450000000000003,3.9617000000029776,3.9782000000029782,3.9949999999999974]","[1733294588339,1733294588372,1733294588381,1733294588394,1733294588411,1733294588431,1733294588444,1733294588461,1733294588482,1733294588494,1733294588511,1733294588530,1733294588545,1733294588561,1733294588578,1733294588594,1733294588611,1733294588628,1733294588644,1733294588661,1733294588681,1733294588697,1733294588711,1733294588728,1733294588744,1733294588761,1733294588778,1733294588797,1733294588811,1733294588830,1733294588847,1733294588863,1733294588878,1733294588896,1733294588911,1733294588928,1733294588947,1733294588962,1733294588978,1733294588996,1733294589011,1733294589030,1733294589047,1733294589063,1733294589078,1733294589096,1733294589111,1733294589128,1733294589148,1733294589164,1733294589180,1733294589194,1733294589214,1733294589229,1733294589244,1733294589265,1733294589280,1733294589294,1733294589311,1733294589330,1733294589344,1733294589361,1733294589380,1733294589396,1733294589411,1733294589428,1733294589444,1733294589461,1733294589478,1733294589494,1733294589511,1733294589528,1733294589544,1733294589563,1733294589578,1733294589594,1733294589611,1733294589628,1733294589644,1733294589661,1733294589678,1733294589694,1733294589711,1733294589728,1733294589744,1733294589762,1733294589778,1733294589794,1733294589813,1733294589828,1733294589847,1733294589865,1733294589881,1733294589897,1733294589912,1733294589931,1733294589947,1733294589966,1733294589978,1733294590000,1733294590014,1733294590029,1733294590047,1733294590061,1733294590079,1733294590097,1733294590111,1733294590128,1733294590144,1733294590161,1733294590180,1733294590195,1733294590211,1733294590228,1733294590244,1733294590261,1733294590279,1733294590294,1733294590311,1733294590330,1733294590347,1733294590361,1733294590378,1733294590394,1733294590411,1733294590428,1733294590444,1733294590461,1733294590481,1733294590494,1733294590511,1733294590528,1733294590544,1733294590561,1733294590578,1733294590598,1733294590611,1733294590628,1733294590649,1733294590661,1733294590678,1733294590694,1733294590711,1733294590728,1733294590744,1733294590761,1733294590778,1733294590794,1733294590811,1733294590828,1733294590844,1733294590862,1733294590878,1733294590894,1733294590911,1733294590928,1733294590944,1733294590963,1733294590978,1733294590994,1733294591011,1733294591029,1733294591045,1733294591062,1733294591078,1733294591097,1733294591111,1733294591128,1733294591147,1733294591164,1733294591178,1733294591194,1733294591211,1733294591228,1733294591244,1733294591261,1733294591278,1733294591294,1733294591311,1733294591328,1733294591344,1733294591361,1733294591378,1733294591394,1733294591411,1733294591428,1733294591448,1733294591464,1733294591480,1733294591495,1733294591511,1733294591529,1733294591544,1733294591562,1733294591579,1733294591594,1733294591611,1733294591628,1733294591644,1733294591661,1733294591678,1733294591694,1733294591711,1733294591728,1733294591744,1733294591761,1733294591778,1733294591794,1733294591811,1733294591828,1733294591844,1733294591865,1733294591882,1733294591896,1733294591911,1733294591928,1733294591944,1733294591962,1733294591978,1733294591994,1733294592011,1733294592028,1733294592044,1733294592061,1733294592078,1733294592094,1733294592111,1733294592128,1733294592144,1733294592161,1733294592178,1733294592197,1733294592216,1733294592231,1733294592244,1733294592261,1733294592278,1733294592294,1733294592311,1733294592328]","[[994.2,428.6],[994.2,428.6],[965,437.9],[965,437.9],[964.6,409.7],[955.6,365],[955.6,365],[928.5,322.6],[926.2,342.1],[926.2,342.1],[912.9,321.3],[912.4,329.2],[907.3,380.5],[905.7,406.6],[900.6,390.3],[911.9,386.4],[921.8,383],[938.3,413.1],[938.3,413.1],[956.6,443],[952.3,427.5],[952.3,427.5],[962.1,441.3],[983.2,422.8],[1004.3,404.3],[1002,430.1],[1025.3,449.1],[1025.3,449.1],[1025.7,466.4],[1025.6,477.9],[1027.5,472.4],[1023.8,479.3],[1018.5,489.4],[1005.2,541],[976.4,561.2],[939,581.1],[920.7,580.5],[913.7,572],[927.3,568.1],[924.2,553.5],[934.1,550.3],[943.7,542.9],[953.2,535],[968,498.7],[974.2,497.4],[993.1,503.6],[1003.5,488],[995.5,496.8],[974.7,488.9],[965.5,492.1],[960.8,485.7],[961.2,473.5],[961.6,461.3],[959.2,440.4],[977.9,415],[958.4,426.6],[960.1,436.6],[947.5,479.9],[946.7,520.7],[953.8,532],[969.5,536.3],[973.2,553.2],[991.6,553],[982.2,556.8],[952.4,572.3],[961.2,558.9],[958.1,570.3],[942.3,550.5],[937.2,537.3],[876.3,546.2],[814,573.5],[786.4,597.5],[759.9,615.4],[718.2,656.3],[675.8,690],[673.1,660.5],[677.7,637.1],[698.9,596.3],[710.4,568.1],[782.1,550.2],[829.1,519.1],[845.7,500.9],[846.5,505.9],[895.3,508.3],[953.6,513.4],[965.8,549.9],[970.7,580.3],[978.4,625.4],[992.5,660.3],[984.7,693.4],[976.9,726.5],[980.1,717.1],[979.8,712.8],[975.7,686.4],[962.1,657.3],[964.9,658.2],[958,643.4],[982.8,592.2],[982.8,592.2],[975.2,570.7],[974.2,565.8],[981.2,591.7],[981.2,591.7],[979.1,584.1],[984.2,576.2],[997.7,579.3],[1013.8,606.1],[1004.3,577.1],[1006.7,569.1],[965.3,591.6],[950.1,577],[962.2,594.2],[962.2,594.2],[965.1,578.9],[942,572.2],[924,569.4],[889,558.2],[864.1,514],[826.4,483.8],[807.9,495.1],[807.9,495.1],[798.2,498],[798.2,498],[784.7,509],[784.7,509],[758.9,475.7],[758.9,475.7],[734.3,444.1],[735.4,442.3],[735.4,442.3],[743.6,434.9],[743.6,434.9],[780,448.5],[780,448.5],[794,476.8],[832.7,504.2],[832.7,504.2],[848.2,486],[871.9,468.3],[871.9,468.3],[905.1,453.3],[905.1,453.3],[927,461.1],[927,461.1],[941.5,464.6],[947.4,483.3],[937.4,498.9],[944.1,469.6],[960.5,434.9],[950.7,438],[942.7,439.9],[938,418.4],[927.3,403.8],[931.7,380.3],[943.5,361.1],[965.6,363.8],[987.6,366.6],[968.7,379.8],[955.1,398.9],[980.1,412.7],[1007.6,426.3],[1019,447.9],[1024.4,475.8],[1010,464.9],[995.6,454],[988.4,423.6],[985.2,413.8],[989.6,410.6],[988.7,401.5],[978,401.6],[970.8,406.9],[976.5,445.3],[988.3,477.3],[1000,514.8],[1011.7,552.3],[1011,573.7],[1006.4,574.4],[1024.9,572.1],[1043.4,569.8],[1047.7,560.4],[1046,546],[1023.7,499.6],[1007.6,465.1],[1005.3,490.5],[1012.3,463.5],[1010.2,484],[1021.2,474.5],[973,522.7],[924.8,570.9],[921.6,581.8],[908.5,594.2],[929.3,580.9],[909.6,566.8],[924.5,515.5],[930.1,516.6],[952.4,484.6],[961.6,482.6],[990.1,434.8],[1019.9,387.2],[1020.9,412],[1023.3,441.5],[1005.1,515.8],[1030.7,535.6],[1015.1,543.5],[993.6,590.4],[982.4,624.1],[982.4,624.1],[971.2,657.8],[979.3,659.5],[987.3,662.1],[989.9,624.2],[985.6,573.9],[988.6,523.3],[1003.5,538.7],[1022.3,562.4],[1022.8,509.4],[1015,469.1],[1012.7,421.8],[1009,400],[1007,404],[1004.6,405.8],[1021.4,423],[1030.7,435],[1024.2,402.9],[1017.7,370.8],[1036.9,381.1],[1057.7,388],[1053.4,395.5],[1049.1,403],[1060.7,400.1],[1072.7,399.4],[1051.6,377.9],[1040.7,361.2],[1040.7,361.2],[1031.4,374.5],[1018.4,376.6],[1003.9,374],[994.3,381.2],[1004.3,394.8],[1013,415.8]]","[0,0.151169218]","[0.151169218,0.151169218]","[-0.151169218,0]","[-0.151169218,-0.151169218]","[0,0]","[0.151169218,0]","[0,-0.151169218]","[0.151169218,-0.151169218]",0,0,0,0,1,3,Smartphone,11,9,9,1
