inst1_resp.keys,inst1_resp.rt,calibrationMouse.x,calibrationMouse.y,calibrationMouse.leftButton,calibrationMouse.midButton,calibrationMouse.rightButton,calibrationClick.x,calibrationClick.y,calibrationClick.leftButton,calibrationClick.midButton,calibrationClick.rightButton,trialsc.thisRepN,trialsc.thisTrialN,trialsc.thisN,trialsc.thisIndex,trialsc.ran,calibration_x,calibration_y,participant,session,date,expName,psychopyVersion,OS,frameRate,calibrationClick.clicked_name,ScreenRes_pixels,Camera_pixels,mouse_2.x,mouse_2.y,mouse_2.leftButton,mouse_2.midButton,mouse_2.rightButton,mouse_2.time,mouse_2.clicked_name,mouse.x,mouse.y,mouse.leftButton,mouse.midButton,mouse.rightButton,mouse.time,mouse.clicked_name,Choice,Trial,TrialDuration,MOUSE_GAZE,ET_GAZE,ET_GAZE_x_T,time,unixTime,ET_GAZE_NF,Loc_Option1_label,Loc_Option2_label,Loc_Cost_label,Loc_Qual_label,Loc_Option1_cost,Loc_Option2_cost,Loc_Option1_quality,Loc_Option2_quality,trials.thisRepN,trials.thisTrialN,trials.thisN,trials.thisIndex,trials.ran,Block,Device,cost1,qual1,cost2,qual2
space,2.0506,0.383333333,-0.338888889,1,0,0,0.320833333,-0.685185185,1,0,0,0,0,0,14,1,0.33,-0.67,31,001,2024-12-05_15h15.30.558,Attention_exp_legacy,2023.1.0,Win32,59.88023952,,,,,,,,,,,,,,,,,,,,,,,,,,,,,,,,,,,,,,,,,,,,,
,,,,,,,0.338541667,-0.32962963,1,0,0,0,1,1,15,1,0.33,-0.33,31,001,2024-12-05_15h15.30.558,Attention_exp_legacy,2023.1.0,Win32,59.88023952,calibration_square,,,,,,,,,,,,,,,,,,,,,,,,,,,,,,,,,,,,,,,,,,,,
,,,,,,,0.316666667,0.662962963,1,0,0,0,2,2,18,1,0.33,0.67,31,001,2024-12-05_15h15.30.558,Attention_exp_legacy,2023.1.0,Win32,59.88023952,,,,,,,,,,,,,,,,,,,,,,,,,,,,,,,,,,,,,,,,,,,,,
,,,,,,,-0.003125,0.005555556,1,0,0,0,3,3,11,1,0,0,31,001,2024-12-05_15h15.30.558,Attention_exp_legacy,2023.1.0,Win32,59.88023952,calibration_square,,,,,,,,,,,,,,,,,,,,,,,,,,,,,,,,,,,,,,,,,,,,
,,,,,,,-0.676041667,-0.672222222,1,0,0,0,4,4,0,1,-0.67,-0.67,31,001,2024-12-05_15h15.30.558,Attention_exp_legacy,2023.1.0,Win32,59.88023952,calibration_square,,,,,,,,,,,,,,,,,,,,,,,,,,,,,,,,,,,,,,,,,,,,
,,,,,,,0.330208333,0.003703704,1,0,0,0,5,5,16,1,0.33,0,31,001,2024-12-05_15h15.30.558,Attention_exp_legacy,2023.1.0,Win32,59.88023952,calibration_square,,,,,,,,,,,,,,,,,,,,,,,,,,,,,,,,,,,,,,,,,,,,
,,,,,,,-0.670833333,0.001851852,1,0,0,0,6,6,2,1,-0.67,0,31,001,2024-12-05_15h15.30.558,Attention_exp_legacy,2023.1.0,Win32,59.88023952,calibration_square,,,,,,,,,,,,,,,,,,,,,,,,,,,,,,,,,,,,,,,,,,,,
,,,,,,,-0.323958333,-0.685185185,1,0,0,0,7,7,4,1,-0.33,-0.67,31,001,2024-12-05_15h15.30.558,Attention_exp_legacy,2023.1.0,Win32,59.88023952,,,,,,,,,,,,,,,,,,,,,,,,,,,,,,,,,,,,,,,,,,,,,
,,,,,,,-0.322916667,0.668518519,1,0,0,0,8,8,8,1,-0.33,0.67,31,001,2024-12-05_15h15.30.558,Attention_exp_legacy,2023.1.0,Win32,59.88023952,calibration_square,,,,,,,,,,,,,,,,,,,,,,,,,,,,,,,,,,,,,,,,,,,,
,,,,,,,-0.329166667,-0.340740741,1,0,0,0,9,9,5,1,-0.33,-0.33,31,001,2024-12-05_15h15.30.558,Attention_exp_legacy,2023.1.0,Win32,59.88023952,,,,,,,,,,,,,,,,,,,,,,,,,,,,,,,,,,,,,,,,,,,,,
,,,,,,,-0.658333333,-0.32037037,1,0,0,0,10,10,1,1,-0.67,-0.33,31,001,2024-12-05_15h15.30.558,Attention_exp_legacy,2023.1.0,Win32,59.88023952,,,,,,,,,,,,,,,,,,,,,,,,,,,,,,,,,,,,,,,,,,,,,
,,,,,,,-0.009375,-0.344444444,1,0,0,0,11,11,10,1,0,-0.33,31,001,2024-12-05_15h15.30.558,Attention_exp_legacy,2023.1.0,Win32,59.88023952,,,,,,,,,,,,,,,,,,,,,,,,,,,,,,,,,,,,,,,,,,,,,
,,,,,,,-0.319791667,0.32962963,1,0,0,0,12,12,7,1,-0.33,0.33,31,001,2024-12-05_15h15.30.558,Attention_exp_legacy,2023.1.0,Win32,59.88023952,,,,,,,,,,,,,,,,,,,,,,,,,,,,,,,,,,,,,,,,,,,,,
,,,,,,,0.33125,0.322222222,1,0,0,0,13,13,17,1,0.33,0.33,31,001,2024-12-05_15h15.30.558,Attention_exp_legacy,2023.1.0,Win32,59.88023952,calibration_square,,,,,,,,,,,,,,,,,,,,,,,,,,,,,,,,,,,,,,,,,,,,
,,,,,,,-0.664583333,0.353703704,1,0,0,0,14,14,3,1,-0.67,0.33,31,001,2024-12-05_15h15.30.558,Attention_exp_legacy,2023.1.0,Win32,59.88023952,,,,,,,,,,,,,,,,,,,,,,,,,,,,,,,,,,,,,,,,,,,,,
,,,,,,,-0.336458333,0.009259259,1,0,0,0,15,15,6,1,-0.33,0,31,001,2024-12-05_15h15.30.558,Attention_exp_legacy,2023.1.0,Win32,59.88023952,calibration_square,,,,,,,,,,,,,,,,,,,,,,,,,,,,,,,,,,,,,,,,,,,,
,,,,,,,0.001041667,0.32962963,1,0,0,0,16,16,12,1,0,0.33,31,001,2024-12-05_15h15.30.558,Attention_exp_legacy,2023.1.0,Win32,59.88023952,calibration_square,,,,,,,,,,,,,,,,,,,,,,,,,,,,,,,,,,,,,,,,,,,,
,,,,,,,0.671875,-0.651851852,1,0,0,0,17,17,20,1,0.67,-0.67,31,001,2024-12-05_15h15.30.558,Attention_exp_legacy,2023.1.0,Win32,59.88023952,,,,,,,,,,,,,,,,,,,,,,,,,,,,,,,,,,,,,,,,,,,,,
,,,,,,,-0.001041667,-0.675925926,1,0,0,0,18,18,9,1,0,-0.67,31,001,2024-12-05_15h15.30.558,Attention_exp_legacy,2023.1.0,Win32,59.88023952,calibration_square,,,,,,,,,,,,,,,,,,,,,,,,,,,,,,,,,,,,,,,,,,,,
,,,,,,,0.002083333,0.659259259,1,0,0,0,19,19,13,1,0,0.67,31,001,2024-12-05_15h15.30.558,Attention_exp_legacy,2023.1.0,Win32,59.88023952,,,,,,,,,,,,,,,,,,,,,,,,,,,,,,,,,,,,,,,,,,,,,
,,,,,,,0.677083333,0.666666667,1,0,0,0,20,20,19,1,0.67,0.67,31,001,2024-12-05_15h15.30.558,Attention_exp_legacy,2023.1.0,Win32,59.88023952,calibration_square,,,,,,,,,,,,,,,,,,,,,,,,,,,,,,,,,,,,,,,,,,,,
,,,,,,,,,,,,,,,,,,,31,001,2024-12-05_15h15.30.558,Attention_exp_legacy,2023.1.0,Win32,59.88023952,,"[1920,1080]","[640,480]",[0.03125],[-0.5037037037037037],[1],[0],[0],[3.362599999994039],"[""StartButton""]",[0.03125],[0.4148148148148148],[1],[0],[0],[4.071699999988084],"[""Option1_label""]",Option1_label,1,5.0988,"[[0.03125,-0.5037037037037037],[0.03125,-0.5037037037037037],[0.03125,-0.5037037037037037],[0.03125,-0.5037037037037037],[0.03125,-0.5037037037037037],[0.03125,-0.5037037037037037],[0.03125,-0.5037037037037037],[0.03125,-0.5037037037037037],[0.03125,-0.5037037037037037],[0.03125,-0.5037037037037037],[0.03125,-0.5037037037037037],[0.03125,-0.5037037037037037],[0.03125,-0.5037037037037037],[0.03125,-0.5037037037037037],[0.03125,-0.5037037037037037],[0.03125,-0.5037037037037037],[0.03125,-0.5037037037037037],[0.03125,-0.5037037037037037],[0.03125,-0.5037037037037037],[0.03125,-0.5037037037037037],[0.03125,-0.5037037037037037],[0.03125,-0.5037037037037037],[0.03125,-0.5037037037037037],[0.03125,-0.5037037037037037],[0.03125,-0.5037037037037037],[0.03125,-0.5037037037037037],[0.03125,-0.5037037037037037],[0.03125,-0.5037037037037037],[0.03125,-0.5037037037037037],[0.03125,-0.5037037037037037],[0.03125,-0.5037037037037037],[0.03125,-0.5037037037037037],[0.03125,-0.5037037037037037],[0.03125,-0.5037037037037037],[0.03125,-0.5037037037037037],[0.03125,-0.5037037037037037],[0.03125,-0.5037037037037037],[0.03125,-0.5037037037037037],[0.03125,-0.5037037037037037],[0.03125,-0.5037037037037037],[0.03125,-0.5037037037037037],[0.03125,-0.5037037037037037],[0.03125,-0.5037037037037037],[0.03125,-0.5037037037037037],[0.03125,-0.5037037037037037],[0.03125,-0.5037037037037037],[0.03125,-0.5037037037037037],[0.03125,-0.5037037037037037],[0.03125,-0.5037037037037037],[0.03125,-0.5037037037037037],[0.03125,-0.5037037037037037],[0.03125,-0.5037037037037037],[0.03125,-0.5037037037037037],[0.03125,-0.5037037037037037],[0.03125,-0.5037037037037037],[0.03125,-0.5037037037037037],[0.03125,-0.5037037037037037],[0.03125,-0.5037037037037037],[0.03125,-0.5037037037037037],[0.03125,-0.5037037037037037],[0.03125,-0.5037037037037037],[0.03125,-0.5037037037037037],[0.03125,-0.5037037037037037],[0.03125,-0.5037037037037037],[0.03125,-0.5037037037037037],[0.03125,-0.5037037037037037],[0.03125,-0.5037037037037037],[0.03125,-0.5037037037037037],[0.03125,-0.5037037037037037],[0.03125,-0.5037037037037037],[0.03125,-0.5037037037037037],[0.03125,-0.5037037037037037],[0.03125,-0.5037037037037037],[0.03125,-0.5037037037037037],[0.03125,-0.5037037037037037],[0.03125,-0.5037037037037037],[0.03125,-0.5037037037037037],[0.03125,-0.5037037037037037],[0.03125,-0.5037037037037037],[0.03125,-0.5037037037037037],[0.03125,-0.5037037037037037],[0.03125,-0.5037037037037037],[0.03125,-0.5037037037037037],[0.03125,-0.5037037037037037],[0.03125,-0.5037037037037037],[0.03125,-0.5037037037037037],[0.03125,-0.5037037037037037],[0.03125,-0.5037037037037037],[0.03125,-0.5037037037037037],[0.03125,-0.5037037037037037],[0.03125,-0.5037037037037037],[0.03125,-0.5037037037037037],[0.03125,-0.5037037037037037],[0.03125,-0.5037037037037037],[0.03125,-0.5037037037037037],[0.03125,-0.5037037037037037],[0.03125,-0.5037037037037037],[0.03125,-0.5037037037037037],[0.03125,-0.5037037037037037],[0.03125,-0.5037037037037037],[0.03125,-0.5037037037037037],[0.03125,-0.5037037037037037],[0.03125,-0.5037037037037037],[0.03125,-0.5037037037037037],[0.03125,-0.5037037037037037],[0.03125,-0.5037037037037037],[0.03125,-0.5037037037037037],[0.03125,-0.5037037037037037],[0.03125,-0.5037037037037037],[0.03125,-0.5037037037037037],[0.03125,-0.5037037037037037],[0.03125,-0.5037037037037037],[0.03125,-0.5037037037037037],[0.03125,-0.5037037037037037],[0.03125,-0.5037037037037037],[0.03125,-0.5037037037037037],[0.03125,-0.5037037037037037],[0.03125,-0.5037037037037037],[0.03125,-0.5037037037037037],[0.03125,-0.5037037037037037],[0.03125,-0.5037037037037037],[0.03125,-0.5037037037037037],[0.03125,-0.5037037037037037],[0.03125,-0.5037037037037037],[0.03125,-0.5037037037037037],[0.03125,-0.5037037037037037],[0.03125,-0.5037037037037037],[0.03125,-0.5037037037037037],[0.03125,-0.5037037037037037],[0.03125,-0.5037037037037037],[0.03125,-0.5037037037037037],[0.03125,-0.5037037037037037],[0.03125,-0.5037037037037037],[0.03125,-0.5037037037037037],[0.03125,-0.5037037037037037],[0.03125,-0.5037037037037037],[0.03125,-0.5037037037037037],[0.03125,-0.5037037037037037],[0.03125,-0.5037037037037037],[0.03125,-0.5037037037037037],[0.03125,-0.5037037037037037],[0.03125,-0.5037037037037037],[0.03125,-0.5037037037037037],[0.03125,-0.5037037037037037],[0.03125,-0.5037037037037037],[0.03125,-0.5037037037037037],[0.03125,-0.5037037037037037],[0.03125,-0.5037037037037037],[0.03125,-0.5037037037037037],[0.03125,-0.5037037037037037],[0.03125,-0.5037037037037037],[0.03125,-0.5037037037037037],[0.03125,-0.5037037037037037],[0.03125,-0.5037037037037037],[0.03125,-0.5037037037037037],[0.03125,-0.5037037037037037],[0.03125,-0.5037037037037037],[0.03125,-0.5037037037037037],[0.03125,-0.5037037037037037],[0.03125,-0.5037037037037037],[0.03125,-0.5037037037037037],[0.03125,-0.5037037037037037],[0.03125,-0.5037037037037037],[0.03125,-0.5037037037037037],[0.03125,-0.5037037037037037],[0.03125,-0.5037037037037037],[0.03125,-0.5037037037037037],[0.03125,-0.5037037037037037],[0.03125,-0.5037037037037037],[0.03125,-0.5037037037037037],[0.03125,-0.5037037037037037],[0.03125,-0.5037037037037037],[0.03125,-0.5037037037037037],[0.03125,-0.5037037037037037],[0.03125,-0.5037037037037037],[0.03125,-0.5037037037037037],[0.03125,-0.5037037037037037],[0.03125,-0.5037037037037037],[0.03125,-0.5037037037037037],[0.03125,-0.5037037037037037],[0.03125,-0.5037037037037037],[0.03125,-0.5037037037037037],[0.03125,-0.5037037037037037],[0.03125,-0.5037037037037037],[0.03125,-0.5037037037037037],[0.03125,-0.5037037037037037],[0.03125,-0.5037037037037037],[0.03125,-0.5037037037037037],[0.03125,-0.5037037037037037],[0.03125,-0.5037037037037037],[0.03125,-0.5037037037037037],[0.03125,-0.5037037037037037],[0.03125,-0.5037037037037037],[0.03125,-0.5037037037037037],[0.03125,-0.5037037037037037],[0.03125,-0.5037037037037037],[0.03125,-0.5037037037037037],[0.03125,-0.5037037037037037],[0.03125,-0.5037037037037037],[0.03125,-0.5037037037037037],[0.03125,-0.5037037037037037],[0.03125,-0.5037037037037037],[0.03125,-0.5037037037037037],[0.03125,-0.5037037037037037],[0.03125,-0.5037037037037037],[0.03125,-0.5037037037037037],[0.03125,-0.5037037037037037],[0.03125,-0.5037037037037037],[0.03125,-0.5037037037037037],[0.03125,-0.5037037037037037],[0.03125,-0.5037037037037037],[0.03125,-0.5037037037037037],[0.03125,-0.5037037037037037],[0.03125,-0.5037037037037037],[0.03125,-0.5037037037037037],[0.03125,-0.5037037037037037],[0.03125,-0.5037037037037037],[0.03125,-0.5037037037037037],[0.03125,-0.5037037037037037],[0.03125,-0.4703703703703704],[0.03125,-0.4444444444444444],[0.03125,-0.4222222222222222],[0.03125,-0.4],[0.03125,-0.37222222222222223],[0.03125,-0.3425925925925926],[0.03125,-0.29259259259259257],[0.03125,-0.21296296296296297],[0.03125,-0.0962962962962963],[0.03125,0.05925925925925926],[0.03125,0.12037037037037036],[0.03125,0.19074074074074074],[0.03125,0.2796296296296296],[0.03125,0.31666666666666665],[0.03125,0.34629629629629627],[0.03125,0.3648148148148148],[0.03125,0.37592592592592594],[0.03125,0.387037037037037],[0.03125,0.39444444444444443],[0.03125,0.40370370370370373],[0.03125,0.412962962962963],[0.03125,0.4148148148148148],[0.03125,0.4148148148148148],[0.03125,0.4148148148148148],[0.03125,0.4148148148148148],[0.03125,0.4148148148148148],[0.03125,0.4148148148148148],[0.03125,0.4148148148148148],[0.03125,0.4148148148148148],[0.03125,0.4148148148148148],[0.03125,0.4148148148148148],[0.03125,0.4148148148148148],[0.03125,0.4148148148148148],[0.03125,0.4148148148148148],[0.03125,0.4148148148148148],[0.03125,0.4148148148148148],[0.03125,0.4148148148148148],[0.03125,0.4148148148148148],[0.03125,0.4148148148148148],[0.03125,0.4148148148148148],[0.03125,0.4148148148148148],[0.03125,0.4148148148148148],[0.03125,0.4148148148148148],[0.03125,0.4148148148148148],[0.03125,0.4148148148148148],[0.03125,0.4148148148148148],[0.03125,0.4148148148148148],[0.03125,0.4148148148148148],[0.03125,0.4148148148148148],[0.03125,0.4148148148148148],[0.03125,0.4148148148148148],[0.03125,0.4148148148148148],[0.03125,0.4148148148148148],[0.03125,0.4148148148148148],[0.03125,0.4148148148148148],[0.03125,0.4148148148148148],[0.03125,0.4148148148148148],[0.03125,0.4148148148148148],[0.03125,0.4148148148148148],[0.03125,0.4148148148148148],[0.03125,0.4148148148148148],[0.03125,0.4148148148148148],[0.03125,0.4148148148148148],[0.03125,0.4148148148148148],[0.03125,0.4148148148148148],[0.03125,0.4148148148148148],[0.03125,0.4148148148148148],[0.03125,0.4148148148148148],[0.03125,0.4148148148148148],[0.03125,0.4148148148148148],[0.03125,0.4148148148148148],[0.03125,0.4148148148148148],[0.03125,0.4148148148148148],[0.03125,0.4148148148148148],[0.03125,0.4148148148148148],[0.03125,0.4148148148148148],[0.03125,0.4148148148148148],[0.03125,0.4148148148148148],[0.03125,0.4148148148148148],[0.03125,0.4148148148148148],[0.03125,0.4111111111111111],[0.03229166666666667,0.40925925925925927],[0.03229166666666667,0.40555555555555556],[0.03229166666666667,0.40370370370370373],[0.03229166666666667,0.4],[0.03229166666666667,0.39814814814814814],[0.03229166666666667,0.39444444444444443]]","[[0.1345833333333334,-0.18759259259259262],[0.1345833333333334,-0.18759259259259262],[0.08583333333333343,-0.18185185185185182],[0.08177083333333333,-0.1844444444444445],[0.09281249999999991,-0.18703703703703703],[0.07260416666666672,-0.1557407407407408],[0.09645833333333324,-0.10851851851851856],[0.1212500000000001,-0.0962962962962963],[0.10062499999999991,-0.11277777777777774],[0.12447916666666667,-0.07925925925925928],[0.14770833333333327,-0.056851851851851834],[0.12531249999999997,-0.044444444444444446],[0.14416666666666675,-0.055185185185185205],[0.13479166666666675,-0.040740740740740744],[0.13020833333333334,-0.04277777777777782],[0.10374999999999991,-0.07314814814814814],[0.058124999999999954,-0.1],[0.022812499999999975,-0.06296296296296296],[-0.010104166666666714,-0.008888888888888804],[-0.06041666666666667,-0.0020370370370370794],[-0.12083333333333333,0.023333333333333376],[-0.15093749999999997,0.03296296296296288],[-0.18104166666666663,0.04259259259259259],[-0.21135416666666665,0.07833333333333325],[-0.24927083333333327,0.1198148148148149],[-0.2760416666666667,0.15592592592592602],[-0.30281250000000004,0.19203703703703712],[-0.3416666666666667,0.18722222222222226],[-0.38604166666666667,0.14074074074074075],[-0.3877083333333334,0.1551851851851851],[-0.37552083333333336,0.13351851851851856],[-0.39479166666666665,0.14240740740740737],[-0.38656250000000003,0.17037037037037037],[-0.42781250000000004,0.1603703703703704],[-0.4703125,0.17444444444444454],[-0.4610416666666667,0.147037037037037],[-0.4709375,0.10629629629629625],[-0.4133333333333333,0.01962962962962967],[-0.3363541666666666,-0.009074074074074031],[-0.2997916666666666,-0.10740740740740741],[-0.2795833333333333,-0.1735185185185185],[-0.23489583333333333,-0.2559259259259259],[-0.21770833333333334,-0.3574074074074074],[-0.14020833333333335,-0.45314814814814813],[-0.06270833333333338,-0.5575925925925926],[-0.01593749999999995,-0.6187037037037038],[0.049270833333333285,-0.6698148148148148],[0.050625000000000024,-0.6716666666666666],[0.023958333333333335,-0.6861111111111111],[0.022708333333333285,-0.6674074074074073],[0.05531250000000002,-0.6668518518518519],[0.07687499999999996,-0.6438888888888888],[0.14197916666666663,-0.5951851851851852],[0.1564583333333334,-0.5700000000000001],[0.18916666666666657,-0.5068518518518518],[0.23739583333333342,-0.4853703703703704],[0.23635416666666675,-0.4646296296296296],[0.2864583333333333,-0.4209259259259259],[0.36749999999999994,-0.3896296296296296],[0.39031250000000006,-0.3811111111111111],[0.42645833333333344,-0.34574074074074074],[0.4336458333333333,-0.36444444444444446],[0.4202083333333334,-0.3846296296296296],[0.4127083333333334,-0.3277777777777778],[0.4033333333333334,-0.31148148148148147],[0.30583333333333323,-0.272037037037037],[0.2504166666666668,-0.21333333333333332],[0.1710416666666667,-0.1816666666666667],[0.1710416666666667,-0.1816666666666667],[0.09666666666666662,-0.11870370370370374],[0.09666666666666662,-0.11870370370370374],[0.057083333333333285,-0.04259259259259259],[0.00010416666666669035,0.0003703703703704546],[0.00010416666666669035,0.0003703703703704546],[-0.07145833333333336,0.0962962962962963],[-0.07145833333333336,0.0962962962962963],[-0.14010416666666667,0.15018518518518523],[-0.17385416666666664,0.1527777777777778],[-0.17385416666666664,0.1527777777777778],[-0.19500000000000003,0.175],[-0.19500000000000003,0.175],[-0.1727083333333333,0.19981481481481478],[-0.13239583333333335,0.21648148148148144],[-0.13239583333333335,0.21648148148148144],[-0.08864583333333335,0.20796296296296288],[-0.06604166666666664,0.17851851851851847],[-0.052187500000000026,0.14333333333333328],[-0.06281249999999995,0.1227777777777777],[-0.03312499999999995,0.09814814814814815],[0.010312499999999976,0.10240740740740732],[0.05562499999999997,0.09407407407407399],[0.06885416666666658,0.05259259259259255],[0.1196875000000001,0.028703703703703703],[0.1716666666666666,0.0338888888888888],[0.21135416666666676,0.0588888888888888],[0.24354166666666663,0.06759259259259259],[0.28114583333333343,0.09425925925925922],[0.3071875000000001,0.11259259259259251],[0.3489583333333333,0.1111111111111111],[0.3654166666666666,0.09185185185185189],[0.3693749999999999,0.08537037037037042],[0.3844791666666666,0.09611111111111106],[0.38604166666666656,0.10092592592592593],[0.36739583333333337,0.053703703703703705],[0.34874999999999995,0.006481481481481481],[0.32302083333333326,-0.04537037037037037],[0.3154166666666666,-0.055740740740740785],[0.29052083333333345,-0.11925925925925922],[0.29572916666666677,-0.10648148148148148],[0.2334374999999999,-0.08388888888888892],[0.18895833333333342,-0.07148148148148152],[0.1234375,-0.03777777777777774],[0.050833333333333286,0.011111111111111112],[-0.044062499999999956,0.03314814814814811],[-0.12250000000000003,0.0838888888888888],[-0.16916666666666663,0.15240740740740732],[-0.19260416666666663,0.19592592592592584],[-0.2263541666666666,0.2625925925925925],[-0.29364583333333333,0.2712962962962963],[-0.3163541666666667,0.275],[-0.3555208333333333,0.30462962962962964],[-0.34093749999999995,0.2903703703703703],[-0.3360416666666667,0.2490740740740741],[-0.2796875,0.27833333333333327],[-0.25020833333333337,0.29018518518518527],[-0.23072916666666668,0.27518518518518525],[-0.23687499999999997,0.2361111111111111],[-0.2169791666666666,0.22018518518518515],[-0.18197916666666672,0.24277777777777781],[-0.178125,0.2698148148148149],[-0.17302083333333335,0.27981481481481485],[-0.2748958333333333,0.287962962962963],[-0.36000000000000004,0.3079629629629629],[-0.40375,0.3314814814814815],[-0.4513541666666666,0.3435185185185185],[-0.5289583333333333,0.35611111111111104],[-0.6238541666666666,0.3792592592592592],[-0.6775,0.4125925925925925],[-0.7030208333333333,0.41388888888888886],[-0.7254166666666666,0.4009259259259259],[-0.7340625000000001,0.3905555555555555],[-0.6661458333333333,0.3853703703703704],[-0.5892708333333334,0.3859259259259259],[-0.5829166666666666,0.3494444444444445],[-0.52375,0.28296296296296286],[-0.44562499999999994,0.2081481481481481],[-0.35031249999999997,0.130925925925926],[-0.2538541666666667,0.07833333333333325],[-0.21479166666666671,0.018148148148148063],[-0.1397916666666667,-0.028518518518518478],[-0.08135416666666669,-0.06722222222222224],[-0.021249999999999977,-0.08518518518518518],[-0.01895833333333338,-0.1235185185185185],[0.0068750000000000235,-0.16740740740740737],[-0.0013541666666666192,-0.18462962962962962],[-0.02645833333333331,-0.15851851851851856],[-0.06333333333333328,-0.13499999999999995],[-0.1078125,-0.15240740740740744],[-0.15760416666666663,-0.19240740740740736],[-0.20031249999999995,-0.23592592592592587],[-0.2101041666666667,-0.2588888888888889],[-0.26979166666666665,-0.3020370370370371],[-0.28062499999999996,-0.33055555555555555],[-0.3285416666666666,-0.3101851851851852],[-0.38093750000000004,-0.2862962962962963],[-0.42374999999999996,-0.2651851851851852],[-0.44020833333333337,-0.24148148148148144],[-0.476875,-0.19666666666666666],[-0.5027083333333333,-0.12999999999999998],[-0.5475,-0.1051851851851852],[-0.6223958333333334,-0.11148148148148146],[-0.65375,-0.0727777777777778],[-0.6851041666666667,-0.034074074074074034],[-0.7005208333333334,-0.0301851851851851],[-0.7159375,-0.02629629629629638],[-0.6643749999999999,-0.002407407407407323],[-0.6272916666666667,0.013333333333333417],[-0.5879166666666666,0.01907407407407399],[-0.5485416666666667,0.024814814814814772],[-0.4867708333333333,0.06648148148148143],[-0.425,0.1081481481481481],[-0.35822916666666665,0.1346296296296297],[-0.29145833333333326,0.16111111111111112],[-0.22875000000000004,0.18277777777777787],[-0.16604166666666664,0.2044444444444444],[-0.1538541666666667,0.18481481481481474],[-0.14166666666666666,0.16518518518518527],[-0.10718749999999998,0.15333333333333324],[-0.07270833333333329,0.14148148148148143],[-0.07156250000000004,0.15500000000000008],[-0.0704166666666667,0.1685185185185185],[-0.07989583333333337,0.1698148148148149],[-0.07989583333333337,0.1698148148148149],[-0.08635416666666665,0.16703703703703712],[-0.08635416666666665,0.16703703703703712],[-0.07208333333333337,0.1544444444444444],[-0.07208333333333337,0.1544444444444444],[-0.011770833333333286,0.15537037037037033],[-0.011770833333333286,0.15537037037037033],[-0.0014583333333333095,0.16740740740740737],[-0.0014583333333333095,0.16740740740740737],[0.01552083333333331,0.18074074074074079],[0.01552083333333331,0.18074074074074079],[-0.02374999999999995,0.18185185185185193],[-0.04989583333333331,0.1983333333333334],[-0.050729166666666714,0.1874074074074075],[-0.0515625,0.1764814814814814],[-0.06833333333333336,0.1551851851851851],[-0.08812500000000002,0.13796296296296295],[-0.08822916666666672,0.15481481481481485],[-0.14739583333333334,0.14814814814814814],[-0.14750000000000002,0.13740740740740748],[-0.15427083333333336,0.12537037037037047],[-0.11906249999999995,0.147037037037037],[-0.09697916666666669,0.15333333333333324],[-0.07666666666666669,0.16925925925925922],[-0.08302083333333338,0.18518518518518517],[-0.10520833333333333,0.1992592592592593],[-0.1273958333333333,0.21333333333333343],[-0.16770833333333332,0.20907407407407402],[-0.15031249999999996,0.23962962962962958],[-0.16479166666666673,0.285],[-0.17927083333333335,0.3303703703703703],[-0.2007291666666667,0.29814814814814816],[-0.22218749999999995,0.26592592592592595],[-0.19270833333333334,0.2012962962962964],[-0.16802083333333329,0.2],[-0.12385416666666664,0.20259259259259255],[-0.08562500000000005,0.20203703703703707],[-0.08562500000000005,0.20203703703703707],[-0.04906250000000002,0.15055555555555547],[-0.03343750000000002,0.09833333333333337],[-0.0009374999999999763,0.041111111111111195],[0.02510416666666669,-0.03259259259259263],[0.042812500000000024,-0.04296296296296305],[0.07364583333333338,-0.037037037037037035],[0.04364583333333331,-0.020370370370370372],[0.04510416666666662,-0.06703703703703702],[0.058854166666666666,-0.10537037037037032],[0.09145833333333328,-0.14777777777777779],[0.07687499999999996,-0.15499999999999997],[0.05375000000000003,-0.15722222222222218],[0.030624999999999975,-0.1594444444444445],[0.022395833333333334,-0.14685185185185187],[0.025,-0.14388888888888887],[0.01572916666666669,-0.18833333333333332],[0.016354166666666715,-0.2111111111111111],[0.022812499999999975,-0.22925925925925927],[0.029270833333333357,-0.24740740740740744],[0.014583333333333334,-0.25462962962962965],[0.03708333333333336,-0.25],[0.035208333333333286,-0.2681481481481482],[0.042708333333333334,-0.3020370370370371],[0.03312499999999995,-0.32759259259259255],[0.02354166666666669,-0.3531481481481481],[0.024583333333333356,-0.3466666666666666],[0.025625000000000023,-0.34018518518518515],[0.02791666666666662,-0.3383333333333333],[0.030208333333333334,-0.33648148148148144],[0.02385416666666664,-0.3559259259259259],[0.01895833333333338,-0.35833333333333334],[0.021562500000000047,-0.3622222222222223],[0.014791666666666713,-0.35037037037037033],[0.00916666666666662,-0.3338888888888889],[0.003541666666666643,-0.31740740740740736],[-0.0048958333333333805,-0.31574074074074077],[-0.019583333333333286,-0.3292592592592593],[-0.027395833333333286,-0.3248148148148148],[-0.04885416666666664,-0.3111111111111111],[-0.06197916666666667,-0.30759259259259264],[-0.0765625,-0.32111111111111107],[-0.06437499999999995,-0.3244444444444444],[-0.052187500000000026,-0.3277777777777778],[-0.007604166666666619,-0.3272222222222222],[0.03697916666666667,-0.3266666666666666],[0.06697916666666662,-0.32092592592592595],[0.10322916666666657,-0.3],[0.15041666666666675,-0.3022222222222222],[0.21124999999999997,-0.31370370370370365],[0.23885416666666662,-0.2903703703703704],[0.2669791666666666,-0.2683333333333333],[0.2430208333333333,-0.21388888888888888],[0.2335416666666667,-0.20333333333333337],[0.14895833333333333,-0.1757407407407407],[0.06437499999999995,-0.14814814814814814],[-0.011874999999999976,-0.11574074074074074],[-0.07979166666666669,-0.08481481481481483],[-0.17260416666666673,-0.04870370370370362],[-0.25458333333333333,-0.018703703703703747],[-0.29270833333333335,-0.0001851851851852273],[-0.33135416666666667,0.01962962962962967],[-0.35270833333333335,0.008888888888888804],[-0.3885416666666667,0.04203703703703712],[-0.3862499999999999,0.05018518518518523],[-0.38395833333333335,0.058333333333333334],[-0.3853125,0.04888888888888885],[-0.3914583333333333,0.06481481481481481],[-0.3976041666666667,0.05462962962962963],[-0.4154166666666666,0.04592592592592584],[-0.4244791666666667,0.058333333333333334],[-0.4244791666666667,0.058333333333333334],[-0.39427083333333335,0.023333333333333376],[-0.3667708333333334,-0.016666666666666666],[-0.3295833333333333,-0.07074074074074072],[-0.28875000000000006,-0.11666666666666667],[-0.2625,-0.1655555555555555]]","[[0.1345833333333334,-0.18759259259259262,0.00019999998807662678],[0.1345833333333334,-0.18759259259259262,0.040199999988075774],[0.08583333333333343,-0.18185185185185182,0.04659999999403652],[0.08177083333333333,-0.1844444444444445,0.06439999997615331],[0.09281249999999991,-0.18703703703703703,0.07849999999999824],[0.07260416666666672,-0.1557407407407408,0.09529999998211736],[0.09645833333333324,-0.10851851851851856,0.1121999999880785],[0.1212500000000001,-0.0962962962962963,0.1314999999999955],[0.10062499999999991,-0.11277777777777774,0.14519999998807975],[0.12447916666666667,-0.07925925925925928,0.161899999976157],[0.14770833333333327,-0.056851851851851834,0.17859999999403442],[0.12531249999999997,-0.044444444444444446,0.1951999999880769],[0.14416666666666675,-0.055185185185185205,0.2119999999999962],[0.13479166666666675,-0.040740740740740744,0.22889999997615718],[0.13020833333333334,-0.04277777777777782,0.2453999999761578],[0.10374999999999991,-0.07314814814814814,0.2618999999761584],[0.058124999999999954,-0.1,0.278499999999994],[0.022812499999999975,-0.06296296296296296,0.29539999997615496],[-0.010104166666666714,-0.008888888888888804,0.3119999999999976],[-0.06041666666666667,-0.0020370370370370794,0.3302999999821168],[-0.12083333333333333,0.023333333333333376,0.34529999998211736],[-0.15093749999999997,0.03296296296296288,0.36189999997615274],[-0.18104166666666663,0.04259259259259259,0.37859999999403726],[-0.21135416666666665,0.07833333333333325,0.3952999999821145],[-0.24927083333333327,0.1198148148148149,0.41199999999999903],[-0.2760416666666667,0.15592592592592602,0.43019999998807634],[-0.30281250000000004,0.19203703703703712,0.4451999999880769],[-0.3416666666666667,0.18722222222222226,0.46189999997615416],[-0.38604166666666667,0.14074074074074075,0.4785999999940387],[-0.3877083333333334,0.1551851851851851,0.4955999999940346],[-0.37552083333333336,0.13351851851851856,0.5118999999761584],[-0.39479166666666665,0.14240740740740737,0.529899999976152],[-0.38656250000000003,0.17037037037037037,0.545399999976155],[-0.42781250000000004,0.1603703703703704,0.5618999999761556],[-0.4703125,0.17444444444444454,0.5785999999940401],[-0.4610416666666667,0.147037037037037,0.5951999999880755],[-0.4709375,0.10629629629629625,0.6128999999761575],[-0.4133333333333333,0.01962962962962967,0.6289999999999978],[-0.3363541666666666,-0.009074074074074031,0.6452999999821145],[-0.2997916666666666,-0.10740740740740741,0.661899999976157],[-0.2795833333333333,-0.1735185185185185,0.6785999999940344],[-0.23489583333333333,-0.2559259259259259,0.6951999999880769],[-0.21770833333333334,-0.3574074074074074,0.7119999999999962],[-0.14020833333333335,-0.45314814814814813,0.729099999994034],[-0.06270833333333338,-0.5575925925925926,0.7451999999880741],[-0.01593749999999995,-0.6187037037037038,0.7636999999880771],[0.049270833333333285,-0.6698148148148148,0.7811999999880754],[0.050625000000000024,-0.6716666666666666,0.7978999999761527],[0.023958333333333335,-0.6861111111111111,0.8140999999940348],[0.022708333333333285,-0.6674074074074073,0.830999999999996],[0.05531250000000002,-0.6668518518518519,0.8463999999761569],[0.07687499999999996,-0.6438888888888888,0.8618999999761527],[0.14197916666666663,-0.5951851851851852,0.8784999999999954],[0.1564583333333334,-0.5700000000000001,0.8951999999880798],[0.18916666666666657,-0.5068518518518518,0.911999999999999],[0.23739583333333342,-0.4853703703703704,0.9301999999880763],[0.23635416666666675,-0.4646296296296296,0.9452999999821188],[0.2864583333333333,-0.4209259259259259,0.9622999999821147],[0.36749999999999994,-0.3896296296296296,0.9785999999940387],[0.39031250000000006,-0.3811111111111111,0.9951999999880741],[0.42645833333333344,-0.34574074074074074,1.0125999999940376],[0.4336458333333333,-0.36444444444444446,1.029899999976152],[0.4202083333333334,-0.3846296296296296,1.0451999999880783],[0.4127083333333334,-0.3277777777777778,1.0617999999821137],[0.4033333333333334,-0.31148148148148147,1.0784999999999982],[0.30583333333333323,-0.272037037037037,1.0952999999821174],[0.2504166666666668,-0.21333333333333332,1.1119999999999948],[0.1710416666666667,-0.1816666666666667,1.1338999999761583],[0.1710416666666667,-0.1816666666666667,1.1538999999761543],[0.09666666666666662,-0.11870370370370374,1.1758999999761528],[0.09666666666666662,-0.11870370370370374,1.1825999999940393],[0.057083333333333285,-0.04259259259259259,1.195199999988077],[0.00010416666666669035,0.0003703703703704546,1.2193999999761544],[0.00010416666666669035,0.0003703703703704546,1.2285999999940387],[-0.07145833333333336,0.0962962962962963,1.245199999988074],[-0.07145833333333336,0.0962962962962963,1.2618999999761584],[-0.14010416666666667,0.15018518518518523,1.2785999999940358],[-0.17385416666666664,0.1527777777777778,1.2994999999999948],[-0.17385416666666664,0.1527777777777778,1.3118999999761556],[-0.19500000000000003,0.175,1.3284999999999982],[-0.19500000000000003,0.175,1.3451999999880755],[-0.1727083333333333,0.19981481481481478,1.3618999999761527],[-0.13239583333333335,0.21648148148148144,1.3837999999821164],[-0.13239583333333335,0.21648148148148144,1.3951999999880798],[-0.08864583333333335,0.20796296296296288,1.411899999976157],[-0.06604166666666664,0.17851851851851847,1.4285999999940344],[-0.052187500000000026,0.14333333333333328,1.445199999988077],[-0.06281249999999995,0.1227777777777777,1.4618999999761542],[-0.03312499999999995,0.09814814814814815,1.4785999999940387],[0.010312499999999976,0.10240740740740732,1.495199999988074],[0.05562499999999997,0.09407407407407399,1.5120000000000005],[0.06885416666666658,0.05259259259259255,1.5285999999940358],[0.1196875000000001,0.028703703703703703,1.5451999999880783],[0.1716666666666666,0.0338888888888888,1.5617999999821137],[0.21135416666666676,0.0588888888888888,1.5784999999999982],[0.24354166666666663,0.06759259259259259,1.5951999999880755],[0.28114583333333343,0.09425925925925922,1.6118999999761527],[0.3071875000000001,0.11259259259259251,1.6284999999999954],[0.3489583333333333,0.1111111111111111,1.6452999999821145],[0.3654166666666666,0.09185185185185189,1.661899999976157],[0.3693749999999999,0.08537037037037042,1.6784999999999997],[0.3844791666666666,0.09611111111111106,1.695199999988077],[0.38604166666666656,0.10092592592592593,1.7119999999999962],[0.36739583333333337,0.053703703703703705,1.7285999999940387],[0.34874999999999995,0.006481481481481481,1.745199999988074],[0.32302083333333326,-0.04537037037037037,1.7618999999761584],[0.3154166666666666,-0.055740740740740785,1.7785999999940358],[0.29052083333333345,-0.11925925925925922,1.795299999982113],[0.29572916666666677,-0.10648148148148148,1.8120999999940395],[0.2334374999999999,-0.08388888888888892,1.8284999999999982],[0.18895833333333342,-0.07148148148148152,1.8451999999880755],[0.1234375,-0.03777777777777774,1.8618999999761527],[0.050833333333333286,0.011111111111111112,1.8785999999940373],[-0.044062499999999956,0.03314814814814811,1.8951999999880798],[-0.12250000000000003,0.0838888888888888,1.911899999976157],[-0.16916666666666663,0.15240740740740732,1.9292999999821134],[-0.19260416666666663,0.19592592592592584,1.9452999999821188],[-0.2263541666666666,0.2625925925925925,1.9649999999999963],[-0.29364583333333333,0.2712962962962963,1.9785999999940387],[-0.3163541666666667,0.275,1.995299999982116],[-0.3555208333333333,0.30462962962962964,2.0118999999761584],[-0.34093749999999995,0.2903703703703703,2.028599999994036],[-0.3360416666666667,0.2490740740740741,2.0451999999880783],[-0.2796875,0.27833333333333327,2.0617999999821137],[-0.25020833333333337,0.29018518518518527,2.0784999999999982],[-0.23072916666666668,0.27518518518518525,2.0951999999880755],[-0.23687499999999997,0.2361111111111111,2.1119999999999948],[-0.2169791666666666,0.22018518518518515,2.1285999999940373],[-0.18197916666666672,0.24277777777777781,2.1451999999880798],[-0.178125,0.2698148148148149,2.161899999976157],[-0.17302083333333335,0.27981481481481485,2.1785999999940344],[-0.2748958333333333,0.287962962962963,2.195199999988077],[-0.36000000000000004,0.3079629629629629,2.211999999999996],[-0.40375,0.3314814814814815,2.2285999999940387],[-0.4513541666666666,0.3435185185185185,2.245199999988074],[-0.5289583333333333,0.35611111111111104,2.2618999999761584],[-0.6238541666666666,0.3792592592592592,2.278499999999994],[-0.6775,0.4125925925925925,2.2980999999940366],[-0.7030208333333333,0.41388888888888886,2.3118999999761556],[-0.7254166666666666,0.4009259259259259,2.32859999999404],[-0.7340625000000001,0.3905555555555555,2.345399999976152],[-0.6661458333333333,0.3853703703703704,2.3618999999761527],[-0.5892708333333334,0.3859259259259259,2.3785999999940373],[-0.5829166666666666,0.3494444444444445,2.3951999999880798],[-0.52375,0.28296296296296286,2.411999999999999],[-0.44562499999999994,0.2081481481481481,2.4286999999880763],[-0.35031249999999997,0.130925925925926,2.445199999988077],[-0.2538541666666667,0.07833333333333325,2.461899999976154],[-0.21479166666666671,0.018148148148148063,2.478499999999997],[-0.1397916666666667,-0.028518518518518478,2.495199999988074],[-0.08135416666666669,-0.06722222222222224,2.5118999999761584],[-0.021249999999999977,-0.08518518518518518,2.528599999994036],[-0.01895833333333338,-0.1235185185185185,2.5451999999880783],[0.0068750000000000235,-0.16740740740740737,2.5617999999821137],[-0.0013541666666666192,-0.18462962962962962,2.5784999999999982],[-0.02645833333333331,-0.15851851851851856,2.5951999999880755],[-0.06333333333333328,-0.13499999999999995,2.6118999999761527],[-0.1078125,-0.15240740740740744,2.6299999999999955],[-0.15760416666666663,-0.19240740740740736,2.6451999999880798],[-0.20031249999999995,-0.23592592592592587,2.661899999976157],[-0.2101041666666667,-0.2588888888888889,2.6784999999999997],[-0.26979166666666665,-0.3020370370370371,2.6952999999821188],[-0.28062499999999996,-0.33055555555555555,2.711899999976154],[-0.3285416666666666,-0.3101851851851852,2.728499999999997],[-0.38093750000000004,-0.2862962962962963,2.745199999988074],[-0.42374999999999996,-0.2651851851851852,2.7620000000000005],[-0.44020833333333337,-0.24148148148148144,2.781499999999994],[-0.476875,-0.19666666666666666,2.797099999994039],[-0.5027083333333333,-0.12999999999999998,2.8166999999880744],[-0.5475,-0.1051851851851852,2.8320000000000007],[-0.6223958333333334,-0.11148148148148146,2.847799999982115],[-0.65375,-0.0727777777777778,2.8619999999999948],[-0.6851041666666667,-0.034074074074074034,2.8785999999940373],[-0.7005208333333334,-0.0301851851851851,2.8951999999880798],[-0.7159375,-0.02629629629629638,2.911799999982115],[-0.6643749999999999,-0.002407407407407323,2.9285999999940344],[-0.6272916666666667,0.013333333333333417,2.945199999988077],[-0.5879166666666666,0.01907407407407399,2.961899999976154],[-0.5485416666666667,0.024814814814814772,2.978499999999997],[-0.4867708333333333,0.06648148148148143,2.995199999988074],[-0.425,0.1081481481481481,3.0118999999761584],[-0.35822916666666665,0.1346296296296297,3.028599999994036],[-0.29145833333333326,0.16111111111111112,3.045299999982113],[-0.22875000000000004,0.18277777777777787,3.0618999999761556],[-0.16604166666666664,0.2044444444444444,3.07859999999404],[-0.1538541666666667,0.18481481481481474,3.0951999999880755],[-0.14166666666666666,0.16518518518518527,3.111799999982118],[-0.10718749999999998,0.15333333333333324,3.1285999999940373],[-0.07270833333333329,0.14148148148148143,3.1451999999880798],[-0.07156250000000004,0.15500000000000008,3.161899999976157],[-0.0704166666666667,0.1685185185185185,3.1785999999940344],[-0.07989583333333337,0.1698148148148149,3.1952999999821188],[-0.07989583333333337,0.1698148148148149,3.212099999994038],[-0.08635416666666665,0.16703703703703712,3.2286999999880734],[-0.08635416666666665,0.16703703703703712,3.245299999982116],[-0.07208333333333337,0.1544444444444444,3.2618999999761584],[-0.07208333333333337,0.1544444444444444,3.278599999994036],[-0.011770833333333286,0.15537037037037033,3.2951999999880783],[-0.011770833333333286,0.15537037037037033,3.3118999999761556],[-0.0014583333333333095,0.16740740740740737,3.32859999999404],[-0.0014583333333333095,0.16740740740740737,3.3451999999880755],[0.01552083333333331,0.18074074074074079,3.3618999999761527],[0.01552083333333331,0.18074074074074079,3.3784999999999954],[-0.02374999999999995,0.18185185185185193,3.3952999999821145],[-0.04989583333333331,0.1983333333333334,3.411999999999999],[-0.050729166666666714,0.1874074074074075,3.4284999999999997],[-0.0515625,0.1764814814814814,3.445199999988077],[-0.06833333333333336,0.1551851851851851,3.461899999976154],[-0.08812500000000002,0.13796296296296295,3.4785999999940387],[-0.08822916666666672,0.15481481481481485,3.495199999988074],[-0.14739583333333334,0.14814814814814814,3.5118999999761584],[-0.14750000000000002,0.13740740740740748,3.5297999999821172],[-0.15427083333333336,0.12537037037037047,3.5451999999880783],[-0.11906249999999995,0.147037037037037,3.5618999999761556],[-0.09697916666666669,0.15333333333333324,3.5784999999999982],[-0.07666666666666669,0.16925925925925922,3.5951999999880755],[-0.08302083333333338,0.18518518518518517,3.6118999999761527],[-0.10520833333333333,0.1992592592592593,3.6285999999940373],[-0.1273958333333333,0.21333333333333343,3.645099999994038],[-0.16770833333333332,0.20907407407407402,3.664899999976157],[-0.15031249999999996,0.23962962962962958,3.6786999999880763],[-0.16479166666666673,0.285,3.6952999999821188],[-0.17927083333333335,0.3303703703703703,3.7153999999761567],[-0.2007291666666667,0.29814814814814816,3.7316999999880736],[-0.22218749999999995,0.26592592592592595,3.746899999976158],[-0.19270833333333334,0.2012962962962964,3.7659999999999982],[-0.16802083333333329,0.2,3.781599999994036],[-0.12385416666666664,0.20259259259259255,3.797799999982118],[-0.08562500000000005,0.20203703703703707,3.8173999999761534],[-0.08562500000000005,0.20203703703703707,3.828699999988075],[-0.04906250000000002,0.15055555555555547,3.8452999999821174],[-0.03343750000000002,0.09833333333333337,3.8619999999999948],[-0.0009374999999999763,0.041111111111111195,3.8810000000000002],[0.02510416666666669,-0.03259259259259263,3.8960999999940356],[0.042812500000000024,-0.04296296296296305,3.912099999994034],[0.07364583333333338,-0.037037037037037035,3.9323999999761554],[0.04364583333333331,-0.020370370370370372,3.9480000000000004],[0.04510416666666662,-0.06703703703703702,3.9623999999761566],[0.058854166666666666,-0.10537037037037032,3.9786999999880734],[0.09145833333333328,-0.14777777777777779,3.9985],[0.07687499999999996,-0.15499999999999997,4.015099999994035],[0.05375000000000003,-0.15722222222222218,4.032199999988073],[0.030624999999999975,-0.1594444444444445,4.047699999988076],[0.022395833333333334,-0.14685185185185187,4.062399999976158],[0.025,-0.14388888888888887,4.081799999982117],[0.01572916666666669,-0.18833333333333332,4.0975999999940385],[0.016354166666666715,-0.2111111111111111,4.112399999976155],[0.022812499999999975,-0.22925925925925927,4.129699999988077],[0.029270833333333357,-0.24740740740740744,4.14519999998808],[0.014583333333333334,-0.25462962962962965,4.161799999982115],[0.03708333333333336,-0.25,4.1785],[0.035208333333333286,-0.2681481481481482,4.195099999994035],[0.042708333333333334,-0.3020370370370371,4.2125999999940404],[0.03312499999999995,-0.32759259259259255,4.228599999994039],[0.02354166666666669,-0.3531481481481481,4.245099999994039],[0.024583333333333356,-0.3466666666666666,4.261899999976158],[0.025625000000000023,-0.34018518518518515,4.278499999999994],[0.02791666666666662,-0.3383333333333333,4.295199999988078],[0.030208333333333334,-0.33648148148148144,4.311899999976156],[0.02385416666666664,-0.3559259259259259,4.330799999982119],[0.01895833333333338,-0.35833333333333334,4.345099999994034],[0.021562500000000047,-0.3622222222222223,4.361799999982118],[0.014791666666666713,-0.35037037037037033,4.378399999976153],[0.00916666666666662,-0.3338888888888889,4.3952999999821145],[0.003541666666666643,-0.31740740740740736,4.411899999976157],[-0.0048958333333333805,-0.31574074074074077,4.4285],[-0.019583333333333286,-0.3292592592592593,4.445099999994035],[-0.027395833333333286,-0.3248148148148148,4.461799999982119],[-0.04885416666666664,-0.3111111111111111,4.478599999994039],[-0.06197916666666667,-0.30759259259259264,4.495199999988074],[-0.0765625,-0.32111111111111107,4.511899999976158],[-0.06437499999999995,-0.3244444444444444,4.528499999999994],[-0.052187500000000026,-0.3277777777777778,4.5450999999940365],[-0.007604166666666619,-0.3272222222222222,4.561799999982114],[0.03697916666666667,-0.3266666666666666,4.57859999999404],[0.06697916666666662,-0.32092592592592595,4.5951999999880755],[0.10322916666666657,-0.3,4.612399999976155],[0.15041666666666675,-0.3022222222222222,4.628499999999995],[0.21124999999999997,-0.31370370370370365,4.645099999994038],[0.23885416666666662,-0.2903703703703704,4.661899999976157],[0.2669791666666666,-0.2683333333333333,4.6785],[0.2430208333333333,-0.21388888888888888,4.695599999994037],[0.2335416666666667,-0.20333333333333337,4.712699999988075],[0.14895833333333333,-0.1757407407407407,4.728699999988073],[0.06437499999999995,-0.14814814814814814,4.745199999988074],[-0.011874999999999976,-0.11574074074074074,4.762299999982119],[-0.07979166666666669,-0.08481481481481483,4.778599999994036],[-0.17260416666666673,-0.04870370370370362,4.795299999982113],[-0.25458333333333333,-0.018703703703703747,4.811899999976156],[-0.29270833333333335,-0.0001851851851852273,4.828499999999998],[-0.33135416666666667,0.01962962962962967,4.845099999994034],[-0.35270833333333335,0.008888888888888804,4.861899999976153],[-0.3885416666666667,0.04203703703703712,4.878499999999995],[-0.3862499999999999,0.05018518518518523,4.89519999998808],[-0.38395833333333335,0.058333333333333334,4.911899999976157],[-0.3853125,0.04888888888888885,4.928699999988076],[-0.3914583333333333,0.06481481481481481,4.945099999994035],[-0.3976041666666667,0.05462962962962963,4.961899999976154],[-0.4154166666666666,0.04592592592592584,4.978499999999997],[-0.4244791666666667,0.058333333333333334,4.9978999999761555],[-0.4244791666666667,0.058333333333333334,5.012199999988077],[-0.39427083333333335,0.023333333333333376,5.0287999999821125],[-0.3667708333333334,-0.016666666666666666,5.048299999982113],[-0.3295833333333333,-0.07074074074074072,5.064499999999995],[-0.28875000000000006,-0.11666666666666667,5.080199999988075],[-0.2625,-0.1655555555555555,5.098799999982113]]","[0.00019999998807662678,0.040199999988075774,0.04659999999403652,0.06439999997615331,0.07849999999999824,0.09529999998211736,0.1121999999880785,0.1314999999999955,0.14519999998807975,0.161899999976157,0.17859999999403442,0.1951999999880769,0.2119999999999962,0.22889999997615718,0.2453999999761578,0.2618999999761584,0.278499999999994,0.29539999997615496,0.3119999999999976,0.3302999999821168,0.34529999998211736,0.36189999997615274,0.37859999999403726,0.3952999999821145,0.41199999999999903,0.43019999998807634,0.4451999999880769,0.46189999997615416,0.4785999999940387,0.4955999999940346,0.5118999999761584,0.529899999976152,0.545399999976155,0.5618999999761556,0.5785999999940401,0.5951999999880755,0.6128999999761575,0.6289999999999978,0.6452999999821145,0.661899999976157,0.6785999999940344,0.6951999999880769,0.7119999999999962,0.729099999994034,0.7451999999880741,0.7636999999880771,0.7811999999880754,0.7978999999761527,0.8140999999940348,0.830999999999996,0.8463999999761569,0.8618999999761527,0.8784999999999954,0.8951999999880798,0.911999999999999,0.9301999999880763,0.9452999999821188,0.9622999999821147,0.9785999999940387,0.9951999999880741,1.0125999999940376,1.029899999976152,1.0451999999880783,1.0617999999821137,1.0784999999999982,1.0952999999821174,1.1119999999999948,1.1338999999761583,1.1538999999761543,1.1758999999761528,1.1825999999940393,1.195199999988077,1.2193999999761544,1.2285999999940387,1.245199999988074,1.2618999999761584,1.2785999999940358,1.2994999999999948,1.3118999999761556,1.3284999999999982,1.3451999999880755,1.3618999999761527,1.3837999999821164,1.3951999999880798,1.411899999976157,1.4285999999940344,1.445199999988077,1.4618999999761542,1.4785999999940387,1.495199999988074,1.5120000000000005,1.5285999999940358,1.5451999999880783,1.5617999999821137,1.5784999999999982,1.5951999999880755,1.6118999999761527,1.6284999999999954,1.6452999999821145,1.661899999976157,1.6784999999999997,1.695199999988077,1.7119999999999962,1.7285999999940387,1.745199999988074,1.7618999999761584,1.7785999999940358,1.795299999982113,1.8120999999940395,1.8284999999999982,1.8451999999880755,1.8618999999761527,1.8785999999940373,1.8951999999880798,1.911899999976157,1.9292999999821134,1.9452999999821188,1.9649999999999963,1.9785999999940387,1.995299999982116,2.0118999999761584,2.028599999994036,2.0451999999880783,2.0617999999821137,2.0784999999999982,2.0951999999880755,2.1119999999999948,2.1285999999940373,2.1451999999880798,2.161899999976157,2.1785999999940344,2.195199999988077,2.211999999999996,2.2285999999940387,2.245199999988074,2.2618999999761584,2.278499999999994,2.2980999999940366,2.3118999999761556,2.32859999999404,2.345399999976152,2.3618999999761527,2.3785999999940373,2.3951999999880798,2.411999999999999,2.4286999999880763,2.445199999988077,2.461899999976154,2.478499999999997,2.495199999988074,2.5118999999761584,2.528599999994036,2.5451999999880783,2.5617999999821137,2.5784999999999982,2.5951999999880755,2.6118999999761527,2.6299999999999955,2.6451999999880798,2.661899999976157,2.6784999999999997,2.6952999999821188,2.711899999976154,2.728499999999997,2.745199999988074,2.7620000000000005,2.781499999999994,2.797099999994039,2.8166999999880744,2.8320000000000007,2.847799999982115,2.8619999999999948,2.8785999999940373,2.8951999999880798,2.911799999982115,2.9285999999940344,2.945199999988077,2.961899999976154,2.978499999999997,2.995199999988074,3.0118999999761584,3.028599999994036,3.045299999982113,3.0618999999761556,3.07859999999404,3.0951999999880755,3.111799999982118,3.1285999999940373,3.1451999999880798,3.161899999976157,3.1785999999940344,3.1952999999821188,3.212099999994038,3.2286999999880734,3.245299999982116,3.2618999999761584,3.278599999994036,3.2951999999880783,3.3118999999761556,3.32859999999404,3.3451999999880755,3.3618999999761527,3.3784999999999954,3.3952999999821145,3.411999999999999,3.4284999999999997,3.445199999988077,3.461899999976154,3.4785999999940387,3.495199999988074,3.5118999999761584,3.5297999999821172,3.5451999999880783,3.5618999999761556,3.5784999999999982,3.5951999999880755,3.6118999999761527,3.6285999999940373,3.645099999994038,3.664899999976157,3.6786999999880763,3.6952999999821188,3.7153999999761567,3.7316999999880736,3.746899999976158,3.7659999999999982,3.781599999994036,3.797799999982118,3.8173999999761534,3.828699999988075,3.8452999999821174,3.8619999999999948,3.8810000000000002,3.8960999999940356,3.912099999994034,3.9323999999761554,3.9480000000000004,3.9623999999761566,3.9786999999880734,3.9985,4.015099999994035,4.032199999988073,4.047699999988076,4.062399999976158,4.081799999982117,4.0975999999940385,4.112399999976155,4.129699999988077,4.14519999998808,4.161799999982115,4.1785,4.195099999994035,4.2125999999940404,4.228599999994039,4.245099999994039,4.261899999976158,4.278499999999994,4.295199999988078,4.311899999976156,4.330799999982119,4.345099999994034,4.361799999982118,4.378399999976153,4.3952999999821145,4.411899999976157,4.4285,4.445099999994035,4.461799999982119,4.478599999994039,4.495199999988074,4.511899999976158,4.528499999999994,4.5450999999940365,4.561799999982114,4.57859999999404,4.5951999999880755,4.612399999976155,4.628499999999995,4.645099999994038,4.661899999976157,4.6785,4.695599999994037,4.712699999988075,4.728699999988073,4.745199999988074,4.762299999982119,4.778599999994036,4.795299999982113,4.811899999976156,4.828499999999998,4.845099999994034,4.861899999976153,4.878499999999995,4.89519999998808,4.911899999976157,4.928699999988076,4.945099999994035,4.961899999976154,4.978499999999997,4.9978999999761555,5.012199999988077,5.0287999999821125,5.048299999982113,5.064499999999995,5.080199999988075,5.098799999982113]","[1733382973738,1733382973768,1733382973775,1733382973792,1733382973807,1733382973825,1733382973842,1733382973861,1733382973875,1733382973892,1733382973908,1733382973925,1733382973942,1733382973959,1733382973975,1733382973992,1733382974008,1733382974025,1733382974042,1733382974060,1733382974075,1733382974092,1733382974108,1733382974125,1733382974142,1733382974160,1733382974175,1733382974192,1733382974208,1733382974225,1733382974242,1733382974260,1733382974275,1733382974292,1733382974308,1733382974325,1733382974343,1733382974359,1733382974375,1733382974392,1733382974408,1733382974425,1733382974442,1733382974459,1733382974475,1733382974493,1733382974511,1733382974528,1733382974544,1733382974561,1733382974576,1733382974592,1733382974608,1733382974625,1733382974642,1733382974660,1733382974675,1733382974692,1733382974708,1733382974725,1733382974742,1733382974760,1733382974775,1733382974792,1733382974808,1733382974825,1733382974842,1733382974864,1733382974884,1733382974906,1733382974912,1733382974925,1733382974949,1733382974958,1733382974975,1733382974992,1733382975008,1733382975029,1733382975042,1733382975058,1733382975075,1733382975092,1733382975113,1733382975125,1733382975142,1733382975158,1733382975175,1733382975192,1733382975208,1733382975225,1733382975242,1733382975258,1733382975275,1733382975292,1733382975308,1733382975325,1733382975342,1733382975358,1733382975375,1733382975392,1733382975408,1733382975425,1733382975442,1733382975458,1733382975475,1733382975492,1733382975508,1733382975525,1733382975542,1733382975558,1733382975575,1733382975592,1733382975608,1733382975625,1733382975642,1733382975659,1733382975675,1733382975695,1733382975708,1733382975725,1733382975742,1733382975758,1733382975775,1733382975792,1733382975808,1733382975825,1733382975842,1733382975858,1733382975875,1733382975892,1733382975908,1733382975925,1733382975942,1733382975958,1733382975975,1733382975992,1733382976008,1733382976028,1733382976042,1733382976058,1733382976075,1733382976092,1733382976108,1733382976125,1733382976142,1733382976158,1733382976175,1733382976192,1733382976208,1733382976225,1733382976242,1733382976258,1733382976275,1733382976292,1733382976308,1733382976325,1733382976342,1733382976360,1733382976375,1733382976392,1733382976408,1733382976425,1733382976442,1733382976458,1733382976475,1733382976492,1733382976511,1733382976527,1733382976546,1733382976562,1733382976578,1733382976592,1733382976608,1733382976625,1733382976642,1733382976658,1733382976675,1733382976692,1733382976708,1733382976725,1733382976742,1733382976758,1733382976775,1733382976792,1733382976808,1733382976825,1733382976842,1733382976858,1733382976875,1733382976892,1733382976908,1733382976925,1733382976942,1733382976958,1733382976975,1733382976992,1733382977008,1733382977025,1733382977042,1733382977058,1733382977075,1733382977092,1733382977108,1733382977125,1733382977142,1733382977158,1733382977175,1733382977192,1733382977208,1733382977225,1733382977242,1733382977259,1733382977275,1733382977292,1733382977308,1733382977325,1733382977342,1733382977358,1733382977375,1733382977395,1733382977408,1733382977425,1733382977445,1733382977461,1733382977477,1733382977496,1733382977511,1733382977528,1733382977547,1733382977558,1733382977575,1733382977592,1733382977611,1733382977626,1733382977642,1733382977662,1733382977678,1733382977692,1733382977708,1733382977728,1733382977745,1733382977762,1733382977777,1733382977792,1733382977812,1733382977827,1733382977842,1733382977859,1733382977875,1733382977892,1733382977908,1733382977925,1733382977942,1733382977958,1733382977975,1733382977992,1733382978008,1733382978025,1733382978042,1733382978060,1733382978075,1733382978091,1733382978108,1733382978125,1733382978142,1733382978158,1733382978175,1733382978191,1733382978208,1733382978225,1733382978242,1733382978258,1733382978275,1733382978291,1733382978308,1733382978325,1733382978342,1733382978358,1733382978375,1733382978391,1733382978408,1733382978425,1733382978442,1733382978458,1733382978475,1733382978492,1733382978508,1733382978525,1733382978542,1733382978558,1733382978575,1733382978592,1733382978608,1733382978625,1733382978642,1733382978658,1733382978675,1733382978692,1733382978708,1733382978727,1733382978742,1733382978758,1733382978778,1733382978794,1733382978810,1733382978828]","[[1089.2,438.7],[1089.2,438.7],[1042.4,441.8],[1038.5,440.4],[1049.1,439],[1029.7,455.9],[1052.6,481.4],[1076.4,488],[1056.6,479.1],[1079.5,497.2],[1101.8,509.3],[1080.3,516],[1098.4,510.2],[1089.4,518],[1085,516.9],[1059.6,500.5],[1015.8,486],[981.9,506],[950.3,535.2],[902,538.9],[844,552.6],[815.1,557.8],[786.2,563],[757.1,582.3],[720.7,604.7],[695,624.2],[669.3,643.7],[632,641.1],[589.4,616],[587.8,623.8],[599.5,612.1],[581,616.9],[588.9,632],[549.3,626.6],[508.5,634.2],[517.4,619.4],[507.9,597.4],[563.2,550.6],[637.1,535.1],[672.2,482],[691.6,446.3],[734.5,401.8],[751,347],[825.4,295.3],[899.8,238.9],[944.7,205.9],[1007.3,178.3],[1008.6,177.3],[983,169.5],[981.8,179.6],[1013.1,179.9],[1033.8,192.3],[1096.3,218.6],[1110.2,232.2],[1141.6,266.3],[1187.9,277.9],[1186.9,289.1],[1235,312.7],[1312.8,329.6],[1334.7,334.2],[1369.4,353.3],[1376.3,343.2],[1363.4,332.3],[1356.2,363],[1347.2,371.8],[1253.6,393.1],[1200.4,424.8],[1124.2,441.9],[1124.2,441.9],[1052.8,475.9],[1052.8,475.9],[1014.8,517],[960.1,540.2],[960.1,540.2],[891.4,592],[891.4,592],[825.5,621.1],[793.1,622.5],[793.1,622.5],[772.8,634.5],[772.8,634.5],[794.2,647.9],[832.9,656.9],[832.9,656.9],[874.9,652.3],[896.6,636.4],[909.9,617.4],[899.7,606.3],[928.2,593],[969.9,595.3],[1013.4,590.8],[1026.1,568.4],[1074.9,555.5],[1124.8,558.3],[1162.9,571.8],[1193.8,576.5],[1229.9,590.9],[1254.9,600.8],[1295,600],[1310.8,589.6],[1314.6,586.1],[1329.1,591.9],[1330.6,594.5],[1312.7,569],[1294.8,543.5],[1270.1,515.5],[1262.8,509.9],[1238.9,475.6],[1243.9,482.5],[1184.1,494.7],[1141.4,501.4],[1078.5,519.6],[1008.8,546],[917.7,557.9],[842.4,585.3],[797.6,622.3],[775.1,645.8],[742.7,681.8],[678.1,686.5],[656.3,688.5],[618.7,704.5],[632.7,696.8],[637.4,674.5],[691.5,690.3],[719.8,696.7],[738.5,688.6],[732.6,667.5],[751.7,658.9],[785.3,671.1],[789,685.7],[793.9,691.1],[696.1,695.5],[614.4,706.3],[572.4,719],[526.7,725.5],[452.2,732.3],[361.1,744.8],[309.6,762.8],[285.1,763.5],[263.6,756.5],[255.3,750.9],[320.5,748.1],[394.3,748.4],[400.4,728.7],[457.2,692.8],[532.2,652.4],[623.7,610.7],[716.3,582.3],[753.8,549.8],[825.8,524.6],[881.9,503.7],[939.6,494],[941.8,473.3],[966.6,449.6],[958.7,440.3],[934.6,454.4],[899.2,467.1],[856.5,457.7],[808.7,436.1],[767.7,412.6],[758.3,400.2],[701,376.9],[690.6,361.5],[644.6,372.5],[594.3,385.4],[553.2,396.8],[537.4,409.6],[502.2,433.8],[477.4,469.8],[434.4,483.2],[362.5,479.8],[332.4,500.7],[302.3,521.6],[287.5,523.7],[272.7,525.8],[322.2,538.7],[357.8,547.2],[395.6,550.3],[433.4,553.4],[492.7,575.9],[552,598.4],[616.1,612.7],[680.2,627],[740.4,638.7],[800.6,650.4],[812.3,639.8],[824,629.2],[857.1,622.8],[890.2,616.4],[891.3,623.7],[892.4,631],[883.3,631.7],[883.3,631.7],[877.1,630.2],[877.1,630.2],[890.8,623.4],[890.8,623.4],[948.7,623.9],[948.7,623.9],[958.6,630.4],[958.6,630.4],[974.9,637.6],[974.9,637.6],[937.2,638.2],[912.1,647.1],[911.3,641.2],[910.5,635.3],[894.4,623.8],[875.4,614.5],[875.3,623.6],[818.5,620],[818.4,614.2],[811.9,607.7],[845.7,619.4],[866.9,622.8],[886.4,631.4],[880.3,640],[859,647.6],[837.7,655.2],[799,652.9],[815.7,669.4],[801.8,693.9],[787.9,718.4],[767.3,701],[746.7,683.6],[775,648.7],[798.7,648],[841.1,649.4],[877.8,649.1],[877.8,649.1],[912.9,621.3],[927.9,593.1],[959.1,562.2],[984.1,522.4],[1001.1,516.8],[1030.7,520],[1001.9,529],[1003.3,503.8],[1016.5,483.1],[1047.8,460.2],[1033.8,456.3],[1011.6,455.1],[989.4,453.9],[981.5,460.7],[984,462.3],[975.1,438.3],[975.7,426],[981.9,416.2],[988.1,406.4],[974,402.5],[995.6,405],[993.8,395.2],[1001,376.9],[991.8,363.1],[982.6,349.3],[983.6,352.8],[984.6,356.3],[986.8,357.3],[989,358.3],[982.9,347.8],[978.2,346.5],[980.7,344.4],[974.2,350.8],[968.8,359.7],[963.4,368.6],[955.3,369.5],[941.2,362.2],[933.7,364.6],[913.1,372],[900.5,373.9],[886.5,366.6],[898.2,364.8],[909.9,363],[952.7,363.3],[995.5,363.6],[1024.3,366.7],[1059.1,378],[1104.4,376.8],[1162.8,370.6],[1189.3,383.2],[1216.3,395.1],[1193.3,424.5],[1184.2,430.2],[1103,445.1],[1021.8,460],[948.6,477.5],[883.4,494.2],[794.3,513.7],[715.6,529.9],[679,539.9],[641.9,550.6],[621.4,544.8],[587,562.7],[589.2,567.1],[591.4,571.5],[590.1,566.4],[584.2,575],[578.3,569.5],[561.2,564.8],[552.5,571.5],[552.5,571.5],[581.5,552.6],[607.9,531],[643.6,501.8],[682.8,477],[708,450.6]]","[0,0.5333]","[0.5333,0.5333]","[-0.5333,-0.5333]","[-0.5333,0]","[0,-0.5333]","[0.5333,-0.5333]","[0,0]","[0.5333,0]",0,0,0,0,1,4,Monitor,11,5,13,9
,,,,,,,,,,,,,,,,,,,31,001,2024-12-05_15h15.30.558,Attention_exp_legacy,2023.1.0,Win32,59.88023952,,,,,,,,,,,[0.5552083333333333],[0.6555555555555556],[1],[0],[0],[2.464500000000001],"[""Option2_label""]",Option2_label,2,3.4828,"[[0.03229166666666667,0.24814814814814815],[0.03229166666666667,0.24814814814814815],[0.03229166666666667,0.24814814814814815],[0.03229166666666667,0.24814814814814815],[0.03229166666666667,0.24814814814814815],[0.03229166666666667,0.24814814814814815],[0.03229166666666667,0.24814814814814815],[0.03229166666666667,0.24814814814814815],[0.03229166666666667,0.24814814814814815],[0.03229166666666667,0.24814814814814815],[0.03229166666666667,0.24814814814814815],[0.03229166666666667,0.24814814814814815],[0.03229166666666667,0.24814814814814815],[0.03229166666666667,0.24814814814814815],[0.03229166666666667,0.24814814814814815],[0.03229166666666667,0.24814814814814815],[0.03229166666666667,0.24814814814814815],[0.03229166666666667,0.24814814814814815],[0.03229166666666667,0.24814814814814815],[0.03229166666666667,0.24814814814814815],[0.03229166666666667,0.24814814814814815],[0.03229166666666667,0.24814814814814815],[0.03229166666666667,0.24814814814814815],[0.03229166666666667,0.24814814814814815],[0.03229166666666667,0.24814814814814815],[0.03229166666666667,0.24814814814814815],[0.03229166666666667,0.24814814814814815],[0.03229166666666667,0.24814814814814815],[0.03229166666666667,0.24814814814814815],[0.03229166666666667,0.24814814814814815],[0.03229166666666667,0.24814814814814815],[0.03229166666666667,0.24814814814814815],[0.03229166666666667,0.24814814814814815],[0.03229166666666667,0.24814814814814815],[0.03229166666666667,0.24814814814814815],[0.03229166666666667,0.24814814814814815],[0.03229166666666667,0.24814814814814815],[0.03229166666666667,0.24814814814814815],[0.03229166666666667,0.24814814814814815],[0.03229166666666667,0.24814814814814815],[0.03229166666666667,0.24814814814814815],[0.03229166666666667,0.24814814814814815],[0.03229166666666667,0.24814814814814815],[0.03229166666666667,0.24814814814814815],[0.03229166666666667,0.24814814814814815],[0.03229166666666667,0.24814814814814815],[0.03229166666666667,0.24814814814814815],[0.03229166666666667,0.24814814814814815],[0.03229166666666667,0.24814814814814815],[0.03229166666666667,0.24814814814814815],[0.03229166666666667,0.24814814814814815],[0.03229166666666667,0.24814814814814815],[0.03229166666666667,0.24814814814814815],[0.03229166666666667,0.24814814814814815],[0.03229166666666667,0.24814814814814815],[0.03229166666666667,0.24814814814814815],[0.03229166666666667,0.24814814814814815],[0.03229166666666667,0.24814814814814815],[0.03229166666666667,0.24814814814814815],[0.03229166666666667,0.24814814814814815],[0.03229166666666667,0.24814814814814815],[0.03229166666666667,0.24814814814814815],[0.03229166666666667,0.24814814814814815],[0.03229166666666667,0.24814814814814815],[0.03229166666666667,0.24814814814814815],[0.03229166666666667,0.24814814814814815],[0.03229166666666667,0.24814814814814815],[0.03229166666666667,0.24814814814814815],[0.03229166666666667,0.24814814814814815],[0.03229166666666667,0.24814814814814815],[0.03229166666666667,0.24814814814814815],[0.03229166666666667,0.24814814814814815],[0.03229166666666667,0.24814814814814815],[0.03229166666666667,0.24814814814814815],[0.03229166666666667,0.24814814814814815],[0.03229166666666667,0.24814814814814815],[0.03229166666666667,0.24814814814814815],[0.03229166666666667,0.24814814814814815],[0.03229166666666667,0.24814814814814815],[0.03229166666666667,0.24814814814814815],[0.03229166666666667,0.24814814814814815],[0.03229166666666667,0.24814814814814815],[0.03229166666666667,0.24814814814814815],[0.03229166666666667,0.24814814814814815],[0.03229166666666667,0.24814814814814815],[0.03229166666666667,0.24814814814814815],[0.03229166666666667,0.24814814814814815],[0.03229166666666667,0.24814814814814815],[0.03229166666666667,0.24814814814814815],[0.03229166666666667,0.24814814814814815],[0.03229166666666667,0.24814814814814815],[0.03229166666666667,0.24814814814814815],[0.03229166666666667,0.24814814814814815],[0.03229166666666667,0.24814814814814815],[0.03229166666666667,0.24814814814814815],[0.03229166666666667,0.24814814814814815],[0.03229166666666667,0.24814814814814815],[0.03229166666666667,0.24814814814814815],[0.03229166666666667,0.24814814814814815],[0.03229166666666667,0.24814814814814815],[0.03229166666666667,0.24814814814814815],[0.03229166666666667,0.24814814814814815],[0.03229166666666667,0.24814814814814815],[0.03229166666666667,0.24814814814814815],[0.03229166666666667,0.24814814814814815],[0.03229166666666667,0.24814814814814815],[0.03229166666666667,0.24814814814814815],[0.03229166666666667,0.24814814814814815],[0.03229166666666667,0.24814814814814815],[0.03229166666666667,0.24814814814814815],[0.03229166666666667,0.24814814814814815],[0.03229166666666667,0.24814814814814815],[0.03229166666666667,0.24814814814814815],[0.03229166666666667,0.24814814814814815],[0.03229166666666667,0.24814814814814815],[0.03229166666666667,0.24814814814814815],[0.03229166666666667,0.24814814814814815],[0.03229166666666667,0.24814814814814815],[0.03229166666666667,0.24814814814814815],[0.03229166666666667,0.24814814814814815],[0.03229166666666667,0.24814814814814815],[0.03229166666666667,0.24814814814814815],[0.03229166666666667,0.24814814814814815],[0.03229166666666667,0.24814814814814815],[0.03229166666666667,0.24814814814814815],[0.03229166666666667,0.24814814814814815],[0.03229166666666667,0.24814814814814815],[0.03229166666666667,0.24814814814814815],[0.03229166666666667,0.24814814814814815],[0.03229166666666667,0.24814814814814815],[0.03229166666666667,0.24814814814814815],[0.03229166666666667,0.24814814814814815],[0.03229166666666667,0.24814814814814815],[0.03333333333333333,0.2462962962962963],[0.04375,0.2537037037037037],[0.07916666666666666,0.29074074074074074],[0.15104166666666666,0.3574074074074074],[0.2708333333333333,0.45740740740740743],[0.31145833333333334,0.4888888888888889],[0.41458333333333336,0.5703703703703704],[0.4583333333333333,0.6],[0.4947916666666667,0.6240740740740741],[0.5177083333333333,0.6351851851851852],[0.5333333333333333,0.6444444444444445],[0.5458333333333333,0.6518518518518519],[0.5520833333333334,0.6537037037037037],[0.5552083333333333,0.6555555555555556],[0.5552083333333333,0.6555555555555556],[0.5552083333333333,0.6555555555555556],[0.5552083333333333,0.6555555555555556],[0.5552083333333333,0.6555555555555556],[0.5552083333333333,0.6555555555555556],[0.5552083333333333,0.6555555555555556],[0.5552083333333333,0.6555555555555556],[0.5552083333333333,0.6555555555555556],[0.5552083333333333,0.6555555555555556],[0.5552083333333333,0.6555555555555556],[0.5552083333333333,0.6555555555555556],[0.5552083333333333,0.6555555555555556],[0.5552083333333333,0.6555555555555556],[0.5552083333333333,0.6555555555555556],[0.5552083333333333,0.6555555555555556],[0.5552083333333333,0.6555555555555556],[0.5552083333333333,0.6518518518518519],[0.5552083333333333,0.6518518518518519],[0.5552083333333333,0.6462962962962963],[0.5541666666666667,0.6444444444444445],[0.5541666666666667,0.6425925925925926],[0.5541666666666667,0.6407407407407407],[0.5541666666666667,0.6370370370370371],[0.5541666666666667,0.6351851851851852],[0.5520833333333334,0.6296296296296297],[0.5520833333333334,0.6296296296296297],[0.5520833333333334,0.6277777777777778],[0.5510416666666667,0.6240740740740741],[0.5489583333333333,0.6166666666666667],[0.5489583333333333,0.6148148148148148],[0.546875,0.6111111111111112],[0.5447916666666667,0.6055555555555555],[0.54375,0.6],[0.5416666666666666,0.5944444444444444],[0.540625,0.5888888888888889],[0.5385416666666667,0.5851851851851851],[0.5385416666666667,0.5851851851851851],[0.5375,0.5833333333333334],[0.5364583333333334,0.5796296296296296],[0.5364583333333334,0.5796296296296296],[0.5354166666666667,0.5796296296296296],[0.5354166666666667,0.5777777777777777],[0.534375,0.5777777777777777],[0.534375,0.5777777777777777],[0.534375,0.5777777777777777],[0.534375,0.5777777777777777],[0.534375,0.5777777777777777],[0.534375,0.5777777777777777],[0.534375,0.575925925925926],[0.534375,0.575925925925926],[0.534375,0.575925925925926],[0.534375,0.575925925925926],[0.534375,0.575925925925926],[0.534375,0.575925925925926],[0.534375,0.575925925925926],[0.534375,0.575925925925926],[0.534375,0.575925925925926],[0.534375,0.575925925925926],[0.534375,0.575925925925926],[0.534375,0.575925925925926],[0.534375,0.575925925925926],[0.534375,0.575925925925926]]","[[-0.049583333333333354,0.17537037037037045],[-0.01583333333333338,0.10648148148148148],[0.005520833333333286,0.039629629629629584],[0.033749999999999974,-0.07444444444444442],[0.058749999999999976,-0.1346296296296296],[0.09239583333333339,-0.14092592592592595],[0.12791666666666662,-0.1787037037037037],[0.15520833333333334,-0.18907407407407412],[0.19375,-0.23925925925925923],[0.1560416666666666,-0.24870370370370373],[0.11958333333333329,-0.26185185185185184],[0.13614583333333338,-0.297037037037037],[0.10895833333333324,-0.3066666666666667],[0.07552083333333333,-0.2722222222222222],[0.08624999999999995,-0.28055555555555556],[0.0796875,-0.3059259259259259],[0.06458333333333334,-0.3183333333333333],[0.07083333333333333,-0.3131481481481482],[0.00635416666666669,-0.3096296296296296],[0.016875000000000046,-0.3087037037037037],[-0.0010416666666666667,-0.31555555555555553],[-0.026250000000000048,-0.2753703703703704],[-0.006979166666666714,-0.25759259259259265],[-0.01729166666666669,-0.2442592592592592],[-0.10197916666666665,-0.22759259259259254],[-0.17374999999999996,-0.1742592592592593],[-0.22666666666666668,-0.11518518518518517],[-0.2891666666666667,-0.08814814814814818],[-0.3411458333333333,-0.04296296296296305],[-0.4010416666666667,-0.0294444444444444],[-0.4275,0.013518518518518435],[-0.4975,0.012962962962962963],[-0.563125,0.026666666666666623],[-0.59125,0.05388888888888893],[-0.5923958333333333,0.06277777777777774],[-0.6032291666666667,0.05592592592592601],[-0.623125,0.04259259259259259],[-0.5958333333333333,0.0485185185185186],[-0.5207291666666667,0.03518518518518519],[-0.4438541666666667,0.04092592592592597],[-0.41208333333333336,0.005370370370370328],[-0.41208333333333336,0.005370370370370328],[-0.32062499999999994,0.022592592592592678],[-0.27854166666666663,0.025370370370370456],[-0.2569791666666667,0.021481481481481525],[-0.19656250000000006,0.03925925925925934],[-0.1326041666666666,0.04685185185185177],[-0.05666666666666664,0.0911111111111112],[-0.03604166666666669,0.10666666666666672],[-0.03604166666666669,0.10666666666666672],[-0.027083333333333334,0.12518518518518523],[-0.07989583333333337,0.11722222222222214],[-0.057083333333333285,0.16629629629629622],[-0.08187500000000002,0.1737037037037036],[-0.08541666666666667,0.16537037037037028],[-0.0875,0.14518518518518514],[-0.1046875,0.13296296296296287],[-0.12770833333333337,0.15999999999999995],[-0.17531249999999995,0.14944444444444452],[-0.20708333333333329,0.14759259259259266],[-0.23927083333333338,0.15685185185185194],[-0.22625000000000003,0.23444444444444448],[-0.30020833333333335,0.22185185185185177],[-0.33322916666666663,0.23962962962962958],[-0.40499999999999997,0.26185185185185184],[-0.4015625,0.3148148148148148],[-0.43166666666666664,0.3646296296296296],[-0.43166666666666664,0.3646296296296296],[-0.4623958333333333,0.33833333333333343],[-0.4623958333333333,0.33833333333333343],[-0.47729166666666667,0.3416666666666667],[-0.47729166666666667,0.3416666666666667],[-0.49593750000000003,0.34629629629629627],[-0.49593750000000003,0.34629629629629627],[-0.504375,0.37240740740740746],[-0.504375,0.37240740740740746],[-0.5470833333333334,0.34740740740740744],[-0.5470833333333334,0.34740740740740744],[-0.565625,0.3551851851851851],[-0.5834375,0.3655555555555555],[-0.5798958333333334,0.3635185185185184],[-0.6080208333333333,0.34888888888888886],[-0.6203125,0.3333333333333333],[-0.6232291666666666,0.32592592592592595],[-0.6185416666666667,0.29814814814814816],[-0.5911458333333334,0.272037037037037],[-0.5675,0.21092592592592588],[-0.5226041666666666,0.1838888888888888],[-0.4739583333333333,0.1587037037037038],[-0.43427083333333333,0.11018518518518519],[-0.3898958333333333,0.07222222222222222],[-0.3233333333333333,0.016851851851851896],[-0.28635416666666663,-0.03222222222222218],[-0.2376041666666667,-0.07925925925925928],[-0.17895833333333327,-0.13925925925925925],[-0.17937500000000003,-0.17462962962962966],[-0.15187499999999995,-0.19814814814814816],[-0.14916666666666673,-0.21722222222222223],[-0.09416666666666665,-0.24888888888888885],[-0.09083333333333338,-0.2544444444444444],[-0.050312499999999954,-0.26888888888888884],[-0.03218749999999997,-0.2712962962962963],[0.00947916666666669,-0.2814814814814815],[0.04791666666666667,-0.27259259259259255],[0.0834374999999999,-0.2611111111111111],[0.14072916666666657,-0.24685185185185188],[0.15739583333333323,-0.24074074074074073],[0.19270833333333334,-0.2681481481481482],[0.16458333333333333,-0.27999999999999997],[0.2275000000000001,-0.28481481481481485],[0.23093750000000005,-0.31851851851851853],[0.21593749999999995,-0.3396296296296296],[0.2078125,-0.3320370370370371],[0.20520833333333333,-0.32888888888888895],[0.19395833333333337,-0.32462962962962966],[0.16062500000000005,-0.35907407407407405],[0.11364583333333324,-0.39351851851851855],[0.10354166666666677,-0.3831481481481481],[0.11124999999999995,-0.3757407407407407],[0.08875000000000005,-0.3581481481481481],[0.10947916666666657,-0.2957407407407407],[0.13010416666666677,-0.21648148148148144],[0.1476041666666667,-0.18888888888888888],[0.13624999999999995,-0.1557407407407408],[0.12208333333333338,-0.12629629629629627],[0.14854166666666657,-0.036481481481481566],[0.19781250000000009,0.025925925925925925],[0.21802083333333327,0.06777777777777783],[0.25,0.11203703703703703],[0.24385416666666657,0.13555555555555565],[0.2296875,0.14666666666666675],[0.23322916666666677,0.13111111111111104],[0.22333333333333344,0.1294444444444444],[0.2241666666666667,0.12537037037037047],[0.21322916666666672,0.10629629629629625],[0.18322916666666675,0.036666666666666584],[0.16875,0.01722222222222214],[0.15791666666666657,-0.02629629629629638],[0.14458333333333329,-0.05055555555555547],[0.09874999999999995,-0.1264814814814815],[0.12156250000000005,-0.15851851851851856],[0.1125,-0.18611111111111112],[0.10906250000000005,-0.20277777777777778],[0.11010416666666671,-0.22851851851851848],[0.1476041666666667,-0.2675925925925926],[0.14427083333333332,-0.3224074074074075],[0.17625000000000005,-0.3653703703703704],[0.20510416666666675,-0.45018518518518524],[0.2328125,-0.5109259259259259],[0.2834374999999999,-0.5698148148148148],[0.27406249999999993,-0.632962962962963],[0.2627083333333334,-0.7327777777777778],[0.24010416666666667,-0.8527777777777777],[0.2140625,-0.9059259259259259],[0.21062500000000003,-0.9748148148148148],[0.20739583333333325,-0.9698148148148149],[0.16989583333333325,-1.0283333333333333],[0.16989583333333325,-1.0283333333333333],[0.16989583333333325,-1.0283333333333333],[0.1609375,-0.9859259259259259],[0.1609375,-0.9859259259259259],[0.18614583333333337,-0.9962962962962963],[0.18614583333333337,-0.9962962962962963],[0.17927083333333324,-0.9340740740740741],[0.17927083333333324,-0.9340740740740741],[0.20010416666666658,-0.917037037037037],[0.20010416666666658,-0.917037037037037],[0.2507291666666667,-0.8646296296296296],[0.2507291666666667,-0.8646296296296296],[0.29874999999999996,-0.7907407407407407],[0.29874999999999996,-0.7907407407407407],[0.35625,-0.7825925925925926],[0.35625,-0.7825925925925926],[0.35625,-0.7825925925925926],[0.35625,-0.7825925925925926],[0.359375,-0.7466666666666667],[0.359375,-0.7466666666666667],[0.4259375000000001,-0.7016666666666667],[0.4735416666666666,-0.5883333333333333],[0.47593750000000007,-0.5362962962962964],[0.4632291666666667,-0.48499999999999993],[0.4917708333333332,-0.5029629629629631],[0.48885416666666665,-0.47074074074074074],[0.48166666666666674,-0.4196296296296297],[0.4930208333333333,-0.41814814814814816],[0.4930208333333333,-0.41814814814814816],[0.37770833333333326,-0.3383333333333333],[0.37770833333333326,-0.3383333333333333],[0.33708333333333323,-0.19129629629629633],[0.33708333333333323,-0.19129629629629633],[0.3241666666666667,-0.18185185185185182],[0.3241666666666667,-0.18185185185185182],[0.25052083333333336,-0.16500000000000004],[0.25052083333333336,-0.16500000000000004],[0.23833333333333329,-0.182962962962963],[0.23833333333333329,-0.182962962962963],[0.22270833333333329,-0.16722222222222224],[0.26614583333333336,-0.1270370370370371],[0.27281250000000007,-0.08462962962962961],[0.27281250000000007,-0.08462962962962961],[0.3256249999999999,-0.08499999999999996],[0.3415625000000001,-0.03314814814814811],[0.5080208333333334,-0.11962962962962967],[0.5944791666666667,-0.2531481481481481],[0.6243750000000001,-0.2381481481481482],[0.7521874999999999,-0.30759259259259264],[0.7896874999999999,-0.29981481481481476],[0.8118750000000001,-0.30481481481481487],[0.7878124999999999,-0.3020370370370371]]","[[-0.049583333333333354,0.17537037037037045,0.00009999999403476068],[-0.01583333333333338,0.10648148148148148,0.01950000000000074],[0.005520833333333286,0.039629629629629584,0.033300000011919906],[0.033749999999999974,-0.07444444444444442,0.049599999994036637],[0.058749999999999976,-0.1346296296296296,0.06630000001192116],[0.09239583333333339,-0.14092592592592595,0.08299999999999841],[0.12791666666666662,-0.1787037037037037,0.09969999998807566],[0.15520833333333334,-0.18907407407407412,0.11649999999999494],[0.19375,-0.23925925925925923,0.1329000000059608],[0.1560416666666666,-0.24870370370370373,0.14969999998807992],[0.11958333333333329,-0.26185185185185184,0.16630000001191547],[0.13614583333333338,-0.297037037037037,0.18290000000595796],[0.10895833333333324,-0.3066666666666667,0.19959999999403522],[0.07552083333333333,-0.2722222222222222,0.2166999999880801],[0.08624999999999995,-0.28055555555555556,0.23290000000595512],[0.0796875,-0.3059259259259259,0.24959999999403948],[0.06458333333333334,-0.3183333333333333,0.2700999999940379],[0.07083333333333333,-0.3131481481481482,0.28580000001191763],[0.00635416666666669,-0.3096296296296296,0.30259999999403675],[0.016875000000000046,-0.3087037037037037,0.3175999999940373],[-0.0010416666666666667,-0.31555555555555553,0.3329999999999984],[-0.026250000000000048,-0.2753703703703704,0.3495999999940409],[-0.006979166666666714,-0.25759259259259265,0.3663000000119183],[-0.01729166666666669,-0.2442592592592592,0.38299999999999557],[-0.10197916666666665,-0.22759259259259254,0.40309999999404056],[-0.17374999999999996,-0.1742592592592593,0.4194999999999993],[-0.22666666666666668,-0.11518518518518517,0.43319999998807646],[-0.2891666666666667,-0.08814814814814818,0.44950000000000045],[-0.3411458333333333,-0.04296296296296305,0.46630000001191974],[-0.4010416666666667,-0.0294444444444444,0.48330000001191564],[-0.4275,0.013518518518518435,0.4995999999940395],[-0.4975,0.012962962962962963,0.5163000000119169],[-0.563125,0.026666666666666623,0.5329000000059594],[-0.59125,0.05388888888888893,0.5495999999940366],[-0.5923958333333333,0.06277777777777774,0.5664000000059559],[-0.6032291666666667,0.05592592592592601,0.5829000000059565],[-0.623125,0.04259259259259259,0.5995999999940409],[-0.5958333333333333,0.0485185185185186,0.6164000000059602],[-0.5207291666666667,0.03518518518518519,0.6329999999999956],[-0.4438541666666667,0.04092592592592597,0.6514000000059568],[-0.41208333333333336,0.005370370370370328,0.6703000000119204],[-0.41208333333333336,0.005370370370370328,0.6829999999999998],[-0.32062499999999994,0.022592592592592678,0.6996999999880771],[-0.27854166666666663,0.025370370370370456,0.7184999999999988],[-0.2569791666666667,0.021481481481481525,0.7331999999880736],[-0.19656250000000006,0.03925925925925934,0.7496999999880742],[-0.1326041666666666,0.04685185185185177,0.7666999999880773],[-0.05666666666666664,0.0911111111111112,0.7830000000000013],[-0.03604166666666669,0.10666666666666672,0.8024000000059601],[-0.03604166666666669,0.10666666666666672,0.8164000000059559],[-0.027083333333333334,0.12518518518518523,0.8329999999999984],[-0.07989583333333337,0.11722222222222214,0.8500999999940362],[-0.057083333333333285,0.16629629629629622,0.8663000000119183],[-0.08187500000000002,0.1737037037037036,0.8855000000000004],[-0.08541666666666667,0.16537037037037028,0.9020999999940358],[-0.0875,0.14518518518518514,0.9169000000059597],[-0.1046875,0.13296296296296287,0.932900000005958],[-0.12770833333333337,0.15999999999999995,0.9495999999940352],[-0.17531249999999995,0.14944444444444452,0.9663000000119197],[-0.20708333333333329,0.14759259259259266,0.982999999999997],[-0.23927083333333338,0.15685185185185194,0.9995999999940395],[-0.22625000000000003,0.23444444444444448,1.0161999999880749],[-0.30020833333333335,0.22185185185185177,1.0330000000000013],[-0.33322916666666663,0.23962962962962958,1.0499000000059553],[-0.40499999999999997,0.26185185185185184,1.0661999999880791],[-0.4015625,0.3148148148148148,1.0829000000059565],[-0.43166666666666664,0.3646296296296296,1.1091999999880784],[-0.43166666666666664,0.3646296296296296,1.117199999988074],[-0.4623958333333333,0.33833333333333343,1.1329000000059608],[-0.4623958333333333,0.33833333333333343,1.14969999998808],[-0.47729166666666667,0.3416666666666667,1.1663000000119155],[-0.47729166666666667,0.3416666666666667,1.1829999999999998],[-0.49593750000000003,0.34629629629629627,1.199800000011919],[-0.49593750000000003,0.34629629629629627,1.2163000000119197],[-0.504375,0.37240740740740746,1.2329000000059551],[-0.504375,0.37240740740740746,1.2495999999940395],[-0.5470833333333334,0.34740740740740744,1.266300000011917],[-0.5470833333333334,0.34740740740740744,1.2829000000059594],[-0.565625,0.3551851851851851,1.2996999999880785],[-0.5834375,0.3655555555555555,1.3190999999940374],[-0.5798958333333334,0.3635185185185184,1.3344000000059566],[-0.6080208333333333,0.34888888888888886,1.3500000000000014],[-0.6203125,0.3333333333333333,1.3663000000119183],[-0.6232291666666666,0.32592592592592595,1.3838000000119166],[-0.6185416666666667,0.29814814814814816,1.399599999994038],[-0.5911458333333334,0.272037037037037,1.4164000000059573],[-0.5675,0.21092592592592588,1.432900000005958],[-0.5226041666666666,0.1838888888888888,1.449699999988077],[-0.4739583333333333,0.1587037037037038,1.4661999999880777],[-0.43427083333333333,0.11018518518518519,1.482999999999997],[-0.3898958333333333,0.07222222222222222,1.4996999999880742],[-0.3233333333333333,0.016851851851851896,1.5188000000119217],[-0.28635416666666663,-0.03222222222222218,1.5349000000059618],[-0.2376041666666667,-0.07925925925925928,1.5495999999940366],[-0.17895833333333327,-0.13925925925925925,1.5663000000119212],[-0.17937500000000003,-0.17462962962962966,1.5829000000059565],[-0.15187499999999995,-0.19814814814814816,1.5996999999880757],[-0.14916666666666673,-0.21722222222222223,1.6185999999940393],[-0.09416666666666665,-0.24888888888888885,1.633499999999998],[-0.09083333333333338,-0.2544444444444444,1.649599999994038],[-0.050312499999999954,-0.26888888888888884,1.6670999999940364],[-0.03218749999999997,-0.2712962962962963,1.6829999999999998],[0.00947916666666669,-0.2814814814814815,1.699699999988077],[0.04791666666666667,-0.27259259259259255,1.71669999998808],[0.0834374999999999,-0.2611111111111111,1.7329000000059551],[0.14072916666666657,-0.24685185185185188,1.7495999999940395],[0.15739583333333323,-0.24074074074074073,1.7661999999880749],[0.19270833333333334,-0.2681481481481482,1.783099999994036],[0.16458333333333333,-0.27999999999999997,1.7995999999940366],[0.2275000000000001,-0.28481481481481485,1.816400000005956],[0.23093750000000005,-0.31851851851851853,1.8329999999999984],[0.21593749999999995,-0.3396296296296296,1.849599999994041],[0.2078125,-0.3320370370370371,1.8661999999880763],[0.20520833333333333,-0.32888888888888895,1.8830999999940374],[0.19395833333333337,-0.32462962962962966,1.899599999994038],[0.16062500000000005,-0.35907407407407405,1.9185999999940364],[0.11364583333333324,-0.39351851851851855,1.9329999999999998],[0.10354166666666677,-0.3831481481481481,1.9509000000059586],[0.11124999999999995,-0.3757407407407407,1.9663000000119197],[0.08875000000000005,-0.3581481481481481,1.982999999999997],[0.10947916666666657,-0.2957407407407407,1.9995999999940395],[0.13010416666666677,-0.21648148148148144,2.0164000000059588],[0.1476041666666667,-0.18888888888888888,2.033099999994036],[0.13624999999999995,-0.1557407407407408,2.0494999999999948],[0.12208333333333338,-0.12629629629629627,2.0700000000000003],[0.14854166666666657,-0.036481481481481566,2.085800000011922],[0.19781250000000009,0.025925925925925925,2.102599999994041],[0.21802083333333327,0.06777777777777783,2.1205],[0.25,0.11203703703703703,2.135599999994035],[0.24385416666666657,0.13555555555555565,2.149599999994038],[0.2296875,0.14666666666666675,2.1663000000119155],[0.23322916666666677,0.13111111111111104,2.183],[0.22333333333333344,0.1294444444444444,2.201199999988077],[0.2241666666666667,0.12537037037037047,2.2185999999940407],[0.21322916666666672,0.10629629629629625,2.233099999994039],[0.18322916666666675,0.036666666666666584,2.2504000000059605],[0.16875,0.01722222222222214,2.2701999999880798],[0.15791666666666657,-0.02629629629629638,2.2860000000000014],[0.14458333333333329,-0.05055555555555547,2.3014000000059553],[0.09874999999999995,-0.1264814814814815,2.3204999999999956],[0.12156250000000005,-0.15851851851851856,2.335599999994038],[0.1125,-0.18611111111111112,2.3500000000000014],[0.10906250000000005,-0.20277777777777778,2.36640000000596],[0.11010416666666671,-0.22851851851851848,2.3855000000000004],[0.1476041666666667,-0.2675925925925926,2.400500000000001],[0.14427083333333332,-0.3224074074074075,2.4178000000119155],[0.17625000000000005,-0.3653703703703704,2.433],[0.20510416666666675,-0.45018518518518524,2.4495000000000005],[0.2328125,-0.5109259259259259,2.4663000000119197],[0.2834374999999999,-0.5698148148148148,2.4834000000059575],[0.27406249999999993,-0.632962962962963,2.5018000000119187],[0.2627083333333334,-0.7327777777777778,2.5188000000119217],[0.24010416666666667,-0.8527777777777777,2.533199999988078],[0.2140625,-0.9059259259259259,2.5494999999999948],[0.21062500000000003,-0.9748148148148148,2.566300000011921],[0.20739583333333325,-0.9698148148148149,2.5829000000059565],[0.16989583333333325,-1.0283333333333333,2.6006999999880804],[0.16989583333333325,-1.0283333333333333,2.6199000000059556],[0.16989583333333325,-1.0283333333333333,2.6359999999999957],[0.1609375,-0.9859259259259259,2.6670999999940364],[0.1609375,-0.9859259259259259,2.6744999999999948],[0.18614583333333337,-0.9962962962962963,2.702300000011917],[0.18614583333333337,-0.9962962962962963,2.709699999988075],[0.17927083333333324,-0.9340740740740741,2.7359000000059552],[0.17927083333333324,-0.9340740740740741,2.7419999999999973],[0.20010416666666658,-0.917037037037037,2.7710999999940356],[0.20010416666666658,-0.917037037037037,2.7786999999880777],[0.2507291666666667,-0.8646296296296296,2.8050999999940345],[0.2507291666666667,-0.8646296296296296,2.813199999988079],[0.29874999999999996,-0.7907407407407407,2.8354000000059614],[0.29874999999999996,-0.7907407407407407,2.8429000000059617],[0.35625,-0.7825925925925926,2.8699000000059556],[0.35625,-0.7825925925925926,2.8768000000119187],[0.35625,-0.7825925925925926,2.8829999999999956],[0.35625,-0.7825925925925926,2.9009000000059615],[0.359375,-0.7466666666666667,2.9371999999880742],[0.359375,-0.7466666666666667,2.9545999999940378],[0.4259375000000001,-0.7016666666666667,2.9664999999999964],[0.4735416666666666,-0.5883333333333333,2.983099999994039],[0.47593750000000007,-0.5362962962962964,3.003099999994035],[0.4632291666666667,-0.48499999999999993,3.0180000000000007],[0.4917708333333332,-0.5029629629629631,3.033099999994036],[0.48885416666666665,-0.47074074074074074,3.051800000011916],[0.48166666666666674,-0.4196296296296297,3.066300000011921],[0.4930208333333333,-0.41814814814814816,3.0830999999940403],[0.4930208333333333,-0.41814814814814816,3.0996999999880757],[0.37770833333333326,-0.3383333333333333,3.1163000000119183],[0.37770833333333326,-0.3383333333333333,3.1369000000059586],[0.33708333333333323,-0.19129629629629633,3.14969999998808],[0.33708333333333323,-0.19129629629629633,3.166499999999999],[0.3241666666666667,-0.18185185185185182,3.182900000005958],[0.3241666666666667,-0.18185185185185182,3.199599999994035],[0.25052083333333336,-0.16500000000000004,3.2163000000119197],[0.25052083333333336,-0.16500000000000004,3.2328000000119204],[0.23833333333333329,-0.182962962962963,3.2495999999940395],[0.23833333333333329,-0.182962962962963,3.272300000011917],[0.22270833333333329,-0.16722222222222224,3.2829000000059594],[0.26614583333333336,-0.1270370370370371,3.2995999999940366],[0.27281250000000007,-0.08462962962962961,3.316199999988079],[0.27281250000000007,-0.08462962962962961,3.3329000000059565],[0.3256249999999999,-0.08499999999999996,3.349599999994041],[0.3415625000000001,-0.03314814814814811,3.3663000000119183],[0.5080208333333334,-0.11962962962962967,3.3829999999999956],[0.5944791666666667,-0.2531481481481481,3.399599999994038],[0.6243750000000001,-0.2381481481481482,3.4163000000119155],[0.7521874999999999,-0.30759259259259264,3.432900000005958],[0.7896874999999999,-0.29981481481481476,3.4495000000000005],[0.8118750000000001,-0.30481481481481487,3.4663000000119197],[0.7878124999999999,-0.3020370370370371,3.4828000000119204]]","[0.00009999999403476068,0.01950000000000074,0.033300000011919906,0.049599999994036637,0.06630000001192116,0.08299999999999841,0.09969999998807566,0.11649999999999494,0.1329000000059608,0.14969999998807992,0.16630000001191547,0.18290000000595796,0.19959999999403522,0.2166999999880801,0.23290000000595512,0.24959999999403948,0.2700999999940379,0.28580000001191763,0.30259999999403675,0.3175999999940373,0.3329999999999984,0.3495999999940409,0.3663000000119183,0.38299999999999557,0.40309999999404056,0.4194999999999993,0.43319999998807646,0.44950000000000045,0.46630000001191974,0.48330000001191564,0.4995999999940395,0.5163000000119169,0.5329000000059594,0.5495999999940366,0.5664000000059559,0.5829000000059565,0.5995999999940409,0.6164000000059602,0.6329999999999956,0.6514000000059568,0.6703000000119204,0.6829999999999998,0.6996999999880771,0.7184999999999988,0.7331999999880736,0.7496999999880742,0.7666999999880773,0.7830000000000013,0.8024000000059601,0.8164000000059559,0.8329999999999984,0.8500999999940362,0.8663000000119183,0.8855000000000004,0.9020999999940358,0.9169000000059597,0.932900000005958,0.9495999999940352,0.9663000000119197,0.982999999999997,0.9995999999940395,1.0161999999880749,1.0330000000000013,1.0499000000059553,1.0661999999880791,1.0829000000059565,1.1091999999880784,1.117199999988074,1.1329000000059608,1.14969999998808,1.1663000000119155,1.1829999999999998,1.199800000011919,1.2163000000119197,1.2329000000059551,1.2495999999940395,1.266300000011917,1.2829000000059594,1.2996999999880785,1.3190999999940374,1.3344000000059566,1.3500000000000014,1.3663000000119183,1.3838000000119166,1.399599999994038,1.4164000000059573,1.432900000005958,1.449699999988077,1.4661999999880777,1.482999999999997,1.4996999999880742,1.5188000000119217,1.5349000000059618,1.5495999999940366,1.5663000000119212,1.5829000000059565,1.5996999999880757,1.6185999999940393,1.633499999999998,1.649599999994038,1.6670999999940364,1.6829999999999998,1.699699999988077,1.71669999998808,1.7329000000059551,1.7495999999940395,1.7661999999880749,1.783099999994036,1.7995999999940366,1.816400000005956,1.8329999999999984,1.849599999994041,1.8661999999880763,1.8830999999940374,1.899599999994038,1.9185999999940364,1.9329999999999998,1.9509000000059586,1.9663000000119197,1.982999999999997,1.9995999999940395,2.0164000000059588,2.033099999994036,2.0494999999999948,2.0700000000000003,2.085800000011922,2.102599999994041,2.1205,2.135599999994035,2.149599999994038,2.1663000000119155,2.183,2.201199999988077,2.2185999999940407,2.233099999994039,2.2504000000059605,2.2701999999880798,2.2860000000000014,2.3014000000059553,2.3204999999999956,2.335599999994038,2.3500000000000014,2.36640000000596,2.3855000000000004,2.400500000000001,2.4178000000119155,2.433,2.4495000000000005,2.4663000000119197,2.4834000000059575,2.5018000000119187,2.5188000000119217,2.533199999988078,2.5494999999999948,2.566300000011921,2.5829000000059565,2.6006999999880804,2.6199000000059556,2.6359999999999957,2.6670999999940364,2.6744999999999948,2.702300000011917,2.709699999988075,2.7359000000059552,2.7419999999999973,2.7710999999940356,2.7786999999880777,2.8050999999940345,2.813199999988079,2.8354000000059614,2.8429000000059617,2.8699000000059556,2.8768000000119187,2.8829999999999956,2.9009000000059615,2.9371999999880742,2.9545999999940378,2.9664999999999964,2.983099999994039,3.003099999994035,3.0180000000000007,3.033099999994036,3.051800000011916,3.066300000011921,3.0830999999940403,3.0996999999880757,3.1163000000119183,3.1369000000059586,3.14969999998808,3.166499999999999,3.182900000005958,3.199599999994035,3.2163000000119197,3.2328000000119204,3.2495999999940395,3.272300000011917,3.2829000000059594,3.2995999999940366,3.316199999988079,3.3329000000059565,3.349599999994041,3.3663000000119183,3.3829999999999956,3.399599999994038,3.4163000000119155,3.432900000005958,3.4495000000000005,3.4663000000119197,3.4828000000119204]","[1733382979844,1733382979861,1733382979875,1733382979891,1733382979908,1733382979925,1733382979942,1733382979958,1733382979975,1733382979991,1733382980008,1733382980025,1733382980042,1733382980059,1733382980075,1733382980091,1733382980112,1733382980128,1733382980144,1733382980160,1733382980175,1733382980191,1733382980208,1733382980225,1733382980245,1733382980261,1733382980275,1733382980291,1733382980308,1733382980325,1733382980341,1733382980358,1733382980375,1733382980391,1733382980408,1733382980425,1733382980442,1733382980458,1733382980475,1733382980493,1733382980512,1733382980525,1733382980542,1733382980560,1733382980575,1733382980592,1733382980609,1733382980625,1733382980644,1733382980658,1733382980675,1733382980692,1733382980708,1733382980727,1733382980744,1733382980759,1733382980775,1733382980791,1733382980808,1733382980825,1733382980841,1733382980858,1733382980875,1733382980892,1733382980908,1733382980925,1733382980951,1733382980959,1733382980975,1733382980991,1733382981008,1733382981025,1733382981042,1733382981058,1733382981075,1733382981091,1733382981108,1733382981125,1733382981142,1733382981161,1733382981176,1733382981192,1733382981208,1733382981226,1733382981242,1733382981258,1733382981275,1733382981291,1733382981308,1733382981325,1733382981342,1733382981361,1733382981377,1733382981392,1733382981408,1733382981425,1733382981442,1733382981460,1733382981475,1733382981492,1733382981509,1733382981525,1733382981542,1733382981559,1733382981575,1733382981591,1733382981608,1733382981625,1733382981641,1733382981658,1733382981675,1733382981692,1733382981708,1733382981725,1733382981741,1733382981760,1733382981775,1733382981793,1733382981808,1733382981825,1733382981842,1733382981858,1733382981875,1733382981891,1733382981912,1733382981928,1733382981944,1733382981962,1733382981977,1733382981991,1733382982008,1733382982025,1733382982043,1733382982061,1733382982075,1733382982092,1733382982112,1733382982128,1733382982143,1733382982162,1733382982177,1733382982192,1733382982208,1733382982227,1733382982242,1733382982260,1733382982275,1733382982291,1733382982308,1733382982325,1733382982344,1733382982361,1733382982375,1733382982391,1733382982408,1733382982425,1733382982443,1733382982462,1733382982478,1733382982509,1733382982516,1733382982544,1733382982552,1733382982578,1733382982584,1733382982613,1733382982621,1733382982647,1733382982655,1733382982677,1733382982685,1733382982712,1733382982719,1733382982725,1733382982743,1733382982779,1733382982796,1733382982808,1733382982825,1733382982845,1733382982860,1733382982875,1733382982894,1733382982908,1733382982925,1733382982942,1733382982958,1733382982979,1733382982992,1733382983008,1733382983025,1733382983041,1733382983058,1733382983075,1733382983091,1733382983114,1733382983125,1733382983141,1733382983158,1733382983175,1733382983191,1733382983208,1733382983225,1733382983241,1733382983258,1733382983275,1733382983291,1733382983308,1733382983325]","[[912.4,634.7],[944.8,597.5],[965.3,561.4],[992.4,499.8],[1016.4,467.3],[1048.7,463.9],[1082.8,443.5],[1109,437.9],[1146,410.8],[1109.8,405.7],[1074.8,398.6],[1090.7,379.6],[1064.6,374.4],[1032.5,393],[1042.8,388.5],[1036.5,374.8],[1022,368.1],[1028,370.9],[966.1,372.8],[976.2,373.3],[959,369.6],[934.8,391.3],[953.3,400.9],[943.4,408.1],[862.1,417.1],[793.2,445.9],[742.4,477.8],[682.4,492.4],[632.5,516.8],[575,524.1],[549.6,547.3],[482.4,547],[419.4,554.4],[392.4,569.1],[391.3,573.9],[380.9,570.2],[361.8,563],[388,566.2],[460.1,559],[533.9,562.1],[564.4,542.9],[564.4,542.9],[652.2,552.2],[692.6,553.7],[713.3,551.6],[771.3,561.2],[832.7,565.3],[905.6,589.2],[925.4,597.6],[925.4,597.6],[934,607.6],[883.3,603.3],[905.2,629.8],[881.4,633.8],[878,629.3],[876,618.4],[859.5,611.8],[837.4,626.4],[791.7,620.7],[761.2,619.7],[730.3,624.7],[742.8,666.6],[671.8,659.8],[640.1,669.4],[571.2,681.4],[574.5,710],[545.6,736.9],[545.6,736.9],[516.1,722.7],[516.1,722.7],[501.8,724.5],[501.8,724.5],[483.9,727],[483.9,727],[475.8,741.1],[475.8,741.1],[434.8,727.6],[434.8,727.6],[417,731.8],[399.9,737.4],[403.3,736.3],[376.3,728.4],[364.5,720],[361.7,716],[366.2,701],[392.5,686.9],[415.2,653.9],[458.3,639.3],[505,625.7],[543.1,599.5],[585.7,579],[649.6,549.1],[685.1,522.6],[731.9,497.2],[788.2,464.8],[787.8,445.7],[814.2,433],[816.8,422.7],[869.6,405.6],[872.8,402.6],[911.7,394.8],[929.1,393.5],[969.1,388],[1006,392.8],[1040.1,399],[1095.1,406.7],[1111.1,410],[1145,395.2],[1118,388.8],[1178.4,386.2],[1181.7,368],[1167.3,356.6],[1159.5,360.7],[1157,362.4],[1146.2,364.7],[1114.2,346.1],[1069.1,327.5],[1059.4,333.1],[1066.8,337.1],[1045.2,346.6],[1065.1,380.3],[1084.9,423.1],[1101.7,438],[1090.8,455.9],[1077.2,471.8],[1102.6,520.3],[1149.9,554],[1169.3,576.6],[1200,600.5],[1194.1,613.2],[1180.5,619.2],[1183.9,610.8],[1174.4,609.9],[1175.2,607.7],[1164.7,597.4],[1135.9,559.8],[1122,549.3],[1111.6,525.8],[1098.8,512.7],[1054.8,471.7],[1076.7,454.4],[1068,439.5],[1064.7,430.5],[1065.7,416.6],[1101.7,395.5],[1098.5,365.9],[1129.2,342.7],[1156.9,296.9],[1183.5,264.1],[1232.1,232.3],[1223.1,198.2],[1212.2,144.3],[1190.5,79.5],[1165.5,50.8],[1162.2,13.6],[1159.1,16.3],[1123.1,-15.3],[1123.1,-15.3],[1123.1,-15.3],[1114.5,7.6],[1114.5,7.6],[1138.7,2],[1138.7,2],[1132.1,35.6],[1132.1,35.6],[1152.1,44.8],[1152.1,44.8],[1200.7,73.1],[1200.7,73.1],[1246.8,113],[1246.8,113],[1302,117.4],[1302,117.4],[1302,117.4],[1302,117.4],[1305,136.8],[1305,136.8],[1368.9,161.1],[1414.6,222.3],[1416.9,250.4],[1404.7,278.1],[1432.1,268.4],[1429.3,285.8],[1422.4,313.4],[1433.3,314.2],[1433.3,314.2],[1322.6,357.3],[1322.6,357.3],[1283.6,436.7],[1283.6,436.7],[1271.2,441.8],[1271.2,441.8],[1200.5,450.9],[1200.5,450.9],[1188.8,441.2],[1188.8,441.2],[1173.8,449.7],[1215.5,471.4],[1221.9,494.3],[1221.9,494.3],[1272.6,494.1],[1287.9,522.1],[1447.7,475.4],[1530.7,403.3],[1559.4,411.4],[1682.1,373.9],[1718.1,378.1],[1739.4,375.4],[1716.3,376.9]]","[0,0.5333]","[0.5333,0.5333]","[-0.5333,0]","[-0.5333,-0.5333]","[0,0]","[0.5333,0]","[0,-0.5333]","[0.5333,-0.5333]",0,1,1,1,1,4,Monitor,5,1,13,7
