inst1_resp.keys,inst1_resp.rt,calibrationMouse.x,calibrationMouse.y,calibrationMouse.leftButton,calibrationMouse.midButton,calibrationMouse.rightButton,calibrationClick.x,calibrationClick.y,calibrationClick.leftButton,calibrationClick.midButton,calibrationClick.rightButton,trialsc.thisRepN,trialsc.thisTrialN,trialsc.thisN,trialsc.thisIndex,trialsc.ran,calibration_x,calibration_y,participant,session,date,expName,psychopyVersion,OS,frameRate,calibrationClick.clicked_name,ScreenRes_pixels,Camera_pixels,mouse_2.x,mouse_2.y,mouse_2.leftButton,mouse_2.midButton,mouse_2.rightButton,mouse_2.time,mouse_2.clicked_name,mouse.x,mouse.y,mouse.leftButton,mouse.midButton,mouse.rightButton,mouse.time,mouse.clicked_name,Choice,Trial,TrialDuration,MOUSE_GAZE,ET_GAZE,ET_GAZE_x_T,time,unixTime,ET_GAZE_NF,Loc_Option1_label,Loc_Option2_label,Loc_Cost_label,Loc_Qual_label,Loc_Option1_cost,Loc_Option2_cost,Loc_Option1_quality,Loc_Option2_quality,trials.thisRepN,trials.thisTrialN,trials.thisN,trials.thisIndex,trials.ran,Block,Device,cost1,qual1,cost2,qual2
space,2.2652,0.034375,0.011111111,1,0,0,0.034375,0.011111111,0,0,0,0,0,0,3,1,-0.67,0.33,35,001,2024-12-04_10h43.47.460,Attention_exp_legacy,2023.1.0,Win32,59.88023952,,,,,,,,,,,,,,,,,,,,,,,,,,,,,,,,,,,,,,,,,,,,,
,,,,,,,-0.334375,0.675925926,1,0,0,0,1,1,8,1,-0.33,0.67,35,001,2024-12-04_10h43.47.460,Attention_exp_legacy,2023.1.0,Win32,59.88023952,calibration_square,,,,,,,,,,,,,,,,,,,,,,,,,,,,,,,,,,,,,,,,,,,,
,,,,,,,-0.332291667,-0.005555556,1,0,0,0,2,2,6,1,-0.33,0,35,001,2024-12-04_10h43.47.460,Attention_exp_legacy,2023.1.0,Win32,59.88023952,calibration_square,,,,,,,,,,,,,,,,,,,,,,,,,,,,,,,,,,,,,,,,,,,,
,,,,,,,0.682291667,0.67962963,1,0,0,0,3,3,19,1,0.67,0.67,35,001,2024-12-04_10h43.47.460,Attention_exp_legacy,2023.1.0,Win32,59.88023952,,,,,,,,,,,,,,,,,,,,,,,,,,,,,,,,,,,,,,,,,,,,,
,,,,,,,0.001041667,0.322222222,1,0,0,0,4,4,12,1,0,0.33,35,001,2024-12-04_10h43.47.460,Attention_exp_legacy,2023.1.0,Win32,59.88023952,calibration_square,,,,,,,,,,,,,,,,,,,,,,,,,,,,,,,,,,,,,,,,,,,,
,,,,,,,0.345833333,0.331481481,1,0,0,0,5,5,17,1,0.33,0.33,35,001,2024-12-04_10h43.47.460,Attention_exp_legacy,2023.1.0,Win32,59.88023952,,,,,,,,,,,,,,,,,,,,,,,,,,,,,,,,,,,,,,,,,,,,,
,,,,,,,-0.004166667,-0.35,1,0,0,0,6,6,10,1,0,-0.33,35,001,2024-12-04_10h43.47.460,Attention_exp_legacy,2023.1.0,Win32,59.88023952,,,,,,,,,,,,,,,,,,,,,,,,,,,,,,,,,,,,,,,,,,,,,
,,,,,,,-0.335416667,-0.674074074,1,0,0,0,7,7,4,1,-0.33,-0.67,35,001,2024-12-04_10h43.47.460,Attention_exp_legacy,2023.1.0,Win32,59.88023952,calibration_square,,,,,,,,,,,,,,,,,,,,,,,,,,,,,,,,,,,,,,,,,,,,
,,,,,,,0.341666667,-0.668518519,1,0,0,0,8,8,14,1,0.33,-0.67,35,001,2024-12-04_10h43.47.460,Attention_exp_legacy,2023.1.0,Win32,59.88023952,,,,,,,,,,,,,,,,,,,,,,,,,,,,,,,,,,,,,,,,,,,,,
,,,,,,,0.682291667,-0.675925926,1,0,0,0,9,9,20,1,0.67,-0.67,35,001,2024-12-04_10h43.47.460,Attention_exp_legacy,2023.1.0,Win32,59.88023952,,,,,,,,,,,,,,,,,,,,,,,,,,,,,,,,,,,,,,,,,,,,,
,,,,,,,-0.336458333,0.338888889,1,0,0,0,10,10,7,1,-0.33,0.33,35,001,2024-12-04_10h43.47.460,Attention_exp_legacy,2023.1.0,Win32,59.88023952,calibration_square,,,,,,,,,,,,,,,,,,,,,,,,,,,,,,,,,,,,,,,,,,,,
,,,,,,,-0.322916667,-0.324074074,1,0,0,0,11,11,5,1,-0.33,-0.33,35,001,2024-12-04_10h43.47.460,Attention_exp_legacy,2023.1.0,Win32,59.88023952,calibration_square,,,,,,,,,,,,,,,,,,,,,,,,,,,,,,,,,,,,,,,,,,,,
,,,,,,,-0.676041667,-0.318518519,1,0,0,0,12,12,1,1,-0.67,-0.33,35,001,2024-12-04_10h43.47.460,Attention_exp_legacy,2023.1.0,Win32,59.88023952,,,,,,,,,,,,,,,,,,,,,,,,,,,,,,,,,,,,,,,,,,,,,
,,,,,,,0.325,-0.322222222,1,0,0,0,13,13,15,1,0.33,-0.33,35,001,2024-12-04_10h43.47.460,Attention_exp_legacy,2023.1.0,Win32,59.88023952,calibration_square,,,,,,,,,,,,,,,,,,,,,,,,,,,,,,,,,,,,,,,,,,,,
,,,,,,,0.336458333,0.005555556,1,0,0,0,14,14,16,1,0.33,0,35,001,2024-12-04_10h43.47.460,Attention_exp_legacy,2023.1.0,Win32,59.88023952,calibration_square,,,,,,,,,,,,,,,,,,,,,,,,,,,,,,,,,,,,,,,,,,,,
,,,,,,,0.326041667,0.674074074,1,0,0,0,15,15,18,1,0.33,0.67,35,001,2024-12-04_10h43.47.460,Attention_exp_legacy,2023.1.0,Win32,59.88023952,calibration_square,,,,,,,,,,,,,,,,,,,,,,,,,,,,,,,,,,,,,,,,,,,,
,,,,,,,0.021875,0.662962963,1,0,0,0,16,16,13,1,0,0.67,35,001,2024-12-04_10h43.47.460,Attention_exp_legacy,2023.1.0,Win32,59.88023952,,,,,,,,,,,,,,,,,,,,,,,,,,,,,,,,,,,,,,,,,,,,,
,,,,,,,-0.010416667,-0.02037037,1,0,0,0,17,17,11,1,0,0,35,001,2024-12-04_10h43.47.460,Attention_exp_legacy,2023.1.0,Win32,59.88023952,,,,,,,,,,,,,,,,,,,,,,,,,,,,,,,,,,,,,,,,,,,,,
,,,,,,,-0.682291667,-0.685185185,1,0,0,0,18,18,0,1,-0.67,-0.67,35,001,2024-12-04_10h43.47.460,Attention_exp_legacy,2023.1.0,Win32,59.88023952,,,,,,,,,,,,,,,,,,,,,,,,,,,,,,,,,,,,,,,,,,,,,
,,,,,,,-0.663541667,0.005555556,1,0,0,0,19,19,2,1,-0.67,0,35,001,2024-12-04_10h43.47.460,Attention_exp_legacy,2023.1.0,Win32,59.88023952,calibration_square,,,,,,,,,,,,,,,,,,,,,,,,,,,,,,,,,,,,,,,,,,,,
,,,,,,,-0.004166667,-0.659259259,1,0,0,0,20,20,9,1,0,-0.67,35,001,2024-12-04_10h43.47.460,Attention_exp_legacy,2023.1.0,Win32,59.88023952,,,,,,,,,,,,,,,,,,,,,,,,,,,,,,,,,,,,,,,,,,,,,
,,,,,,,,,,,,,,,,,,,35,001,2024-12-04_10h43.47.460,Attention_exp_legacy,2023.1.0,Win32,59.88023952,,"[1920,1080]","[640,480]",[-0.016666666666666666],[-0.4666666666666667],[1],[0],[0],[2.1598999999985153],"[""StartButton""]",[-0.005208333333333333],[0.14444444444444443],[1],[0],[0],[5.122],"[""Option1_label""]",Option1_label,1,6.1452,"[[-0.016666666666666666,-0.4666666666666667],[-0.016666666666666666,-0.4666666666666667],[-0.016666666666666666,-0.4666666666666667],[-0.016666666666666666,-0.4666666666666667],[-0.016666666666666666,-0.4666666666666667],[-0.016666666666666666,-0.4666666666666667],[-0.016666666666666666,-0.4666666666666667],[-0.016666666666666666,-0.4666666666666667],[-0.016666666666666666,-0.4666666666666667],[-0.016666666666666666,-0.4666666666666667],[-0.016666666666666666,-0.4666666666666667],[-0.016666666666666666,-0.4666666666666667],[-0.016666666666666666,-0.4666666666666667],[-0.016666666666666666,-0.4666666666666667],[-0.016666666666666666,-0.4666666666666667],[-0.016666666666666666,-0.4666666666666667],[-0.016666666666666666,-0.4666666666666667],[-0.016666666666666666,-0.4666666666666667],[-0.016666666666666666,-0.4666666666666667],[-0.016666666666666666,-0.4666666666666667],[-0.016666666666666666,-0.4666666666666667],[-0.016666666666666666,-0.4666666666666667],[-0.016666666666666666,-0.4666666666666667],[-0.016666666666666666,-0.4666666666666667],[-0.016666666666666666,-0.4666666666666667],[-0.016666666666666666,-0.4666666666666667],[-0.016666666666666666,-0.4666666666666667],[-0.016666666666666666,-0.4666666666666667],[-0.016666666666666666,-0.4666666666666667],[-0.016666666666666666,-0.4666666666666667],[-0.016666666666666666,-0.4666666666666667],[-0.016666666666666666,-0.4666666666666667],[-0.016666666666666666,-0.4666666666666667],[-0.016666666666666666,-0.4666666666666667],[-0.016666666666666666,-0.4666666666666667],[-0.016666666666666666,-0.4666666666666667],[-0.016666666666666666,-0.4666666666666667],[-0.016666666666666666,-0.4666666666666667],[-0.016666666666666666,-0.4666666666666667],[-0.016666666666666666,-0.4666666666666667],[-0.016666666666666666,-0.4666666666666667],[-0.016666666666666666,-0.4666666666666667],[-0.016666666666666666,-0.4666666666666667],[-0.016666666666666666,-0.4666666666666667],[-0.016666666666666666,-0.4666666666666667],[-0.016666666666666666,-0.4666666666666667],[-0.016666666666666666,-0.4666666666666667],[-0.016666666666666666,-0.4666666666666667],[-0.016666666666666666,-0.4666666666666667],[-0.016666666666666666,-0.4666666666666667],[-0.016666666666666666,-0.4666666666666667],[-0.016666666666666666,-0.4666666666666667],[-0.016666666666666666,-0.4666666666666667],[-0.016666666666666666,-0.4666666666666667],[-0.016666666666666666,-0.4666666666666667],[-0.016666666666666666,-0.4666666666666667],[-0.016666666666666666,-0.4666666666666667],[-0.016666666666666666,-0.4666666666666667],[-0.016666666666666666,-0.4666666666666667],[-0.016666666666666666,-0.4666666666666667],[-0.016666666666666666,-0.4666666666666667],[-0.016666666666666666,-0.4666666666666667],[-0.016666666666666666,-0.4666666666666667],[-0.016666666666666666,-0.4666666666666667],[-0.016666666666666666,-0.4666666666666667],[-0.016666666666666666,-0.4666666666666667],[-0.016666666666666666,-0.4666666666666667],[-0.016666666666666666,-0.4666666666666667],[-0.016666666666666666,-0.4666666666666667],[-0.016666666666666666,-0.4666666666666667],[-0.016666666666666666,-0.4666666666666667],[-0.016666666666666666,-0.4666666666666667],[-0.016666666666666666,-0.4666666666666667],[-0.016666666666666666,-0.4666666666666667],[-0.016666666666666666,-0.4666666666666667],[-0.016666666666666666,-0.4666666666666667],[-0.016666666666666666,-0.4666666666666667],[-0.016666666666666666,-0.4666666666666667],[-0.016666666666666666,-0.4666666666666667],[-0.016666666666666666,-0.4666666666666667],[-0.016666666666666666,-0.4666666666666667],[-0.016666666666666666,-0.4666666666666667],[-0.016666666666666666,-0.4666666666666667],[-0.016666666666666666,-0.4666666666666667],[-0.016666666666666666,-0.4666666666666667],[-0.016666666666666666,-0.4666666666666667],[-0.016666666666666666,-0.4666666666666667],[-0.016666666666666666,-0.4666666666666667],[-0.016666666666666666,-0.4666666666666667],[-0.016666666666666666,-0.4666666666666667],[-0.016666666666666666,-0.4666666666666667],[-0.016666666666666666,-0.4666666666666667],[-0.016666666666666666,-0.4666666666666667],[-0.016666666666666666,-0.4666666666666667],[-0.016666666666666666,-0.4666666666666667],[-0.016666666666666666,-0.4666666666666667],[-0.016666666666666666,-0.4666666666666667],[-0.016666666666666666,-0.4666666666666667],[-0.016666666666666666,-0.4666666666666667],[-0.016666666666666666,-0.4666666666666667],[-0.016666666666666666,-0.4666666666666667],[-0.016666666666666666,-0.4666666666666667],[-0.016666666666666666,-0.4666666666666667],[-0.016666666666666666,-0.4666666666666667],[-0.016666666666666666,-0.4666666666666667],[-0.016666666666666666,-0.4666666666666667],[-0.016666666666666666,-0.4666666666666667],[-0.016666666666666666,-0.4666666666666667],[-0.016666666666666666,-0.4666666666666667],[-0.016666666666666666,-0.4666666666666667],[-0.016666666666666666,-0.4666666666666667],[-0.016666666666666666,-0.4666666666666667],[-0.016666666666666666,-0.4666666666666667],[-0.016666666666666666,-0.4666666666666667],[-0.016666666666666666,-0.4666666666666667],[-0.016666666666666666,-0.4666666666666667],[-0.016666666666666666,-0.4666666666666667],[-0.016666666666666666,-0.4666666666666667],[-0.016666666666666666,-0.4666666666666667],[-0.016666666666666666,-0.4666666666666667],[-0.016666666666666666,-0.4666666666666667],[-0.016666666666666666,-0.4666666666666667],[-0.016666666666666666,-0.4666666666666667],[-0.016666666666666666,-0.4666666666666667],[-0.016666666666666666,-0.4666666666666667],[-0.016666666666666666,-0.4666666666666667],[-0.016666666666666666,-0.4666666666666667],[-0.016666666666666666,-0.4666666666666667],[-0.016666666666666666,-0.4666666666666667],[-0.016666666666666666,-0.4666666666666667],[-0.016666666666666666,-0.4666666666666667],[-0.016666666666666666,-0.4666666666666667],[-0.016666666666666666,-0.4666666666666667],[-0.016666666666666666,-0.4666666666666667],[-0.016666666666666666,-0.4666666666666667],[-0.016666666666666666,-0.4666666666666667],[-0.016666666666666666,-0.4666666666666667],[-0.016666666666666666,-0.4666666666666667],[-0.016666666666666666,-0.4666666666666667],[-0.016666666666666666,-0.4666666666666667],[-0.016666666666666666,-0.4666666666666667],[-0.016666666666666666,-0.4666666666666667],[-0.016666666666666666,-0.4666666666666667],[-0.016666666666666666,-0.4666666666666667],[-0.016666666666666666,-0.4666666666666667],[-0.016666666666666666,-0.4666666666666667],[-0.016666666666666666,-0.4666666666666667],[-0.016666666666666666,-0.4666666666666667],[-0.016666666666666666,-0.4666666666666667],[-0.016666666666666666,-0.4666666666666667],[-0.016666666666666666,-0.4666666666666667],[-0.016666666666666666,-0.4666666666666667],[-0.016666666666666666,-0.4666666666666667],[-0.016666666666666666,-0.4666666666666667],[-0.016666666666666666,-0.4666666666666667],[-0.016666666666666666,-0.4666666666666667],[-0.016666666666666666,-0.4666666666666667],[-0.016666666666666666,-0.4666666666666667],[-0.016666666666666666,-0.4666666666666667],[-0.016666666666666666,-0.4666666666666667],[-0.016666666666666666,-0.4666666666666667],[-0.016666666666666666,-0.4666666666666667],[-0.016666666666666666,-0.4666666666666667],[-0.016666666666666666,-0.4666666666666667],[-0.016666666666666666,-0.4666666666666667],[-0.016666666666666666,-0.4666666666666667],[-0.016666666666666666,-0.4666666666666667],[-0.016666666666666666,-0.4666666666666667],[-0.016666666666666666,-0.4666666666666667],[-0.016666666666666666,-0.4666666666666667],[-0.016666666666666666,-0.4666666666666667],[-0.016666666666666666,-0.4666666666666667],[-0.016666666666666666,-0.4666666666666667],[-0.016666666666666666,-0.4666666666666667],[-0.016666666666666666,-0.4666666666666667],[-0.016666666666666666,-0.4666666666666667],[-0.016666666666666666,-0.4666666666666667],[-0.016666666666666666,-0.4666666666666667],[-0.016666666666666666,-0.4666666666666667],[-0.016666666666666666,-0.4666666666666667],[-0.016666666666666666,-0.4666666666666667],[-0.016666666666666666,-0.4666666666666667],[-0.016666666666666666,-0.4666666666666667],[-0.016666666666666666,-0.4666666666666667],[-0.016666666666666666,-0.4666666666666667],[-0.016666666666666666,-0.4666666666666667],[-0.016666666666666666,-0.4666666666666667],[-0.016666666666666666,-0.4666666666666667],[-0.0125,-0.45925925925925926],[-0.00625,-0.44814814814814813],[-0.003125,-0.4425925925925926],[0.003125,-0.4351851851851852],[0.009375,-0.42777777777777776],[0.014583333333333334,-0.4203703703703704],[0.020833333333333332,-0.4074074074074074],[0.027083333333333334,-0.3925925925925926],[0.03229166666666667,-0.3685185185185185],[0.0375,-0.3314814814814815],[0.03854166666666667,-0.3111111111111111],[0.03958333333333333,-0.29444444444444445],[0.03958333333333333,-0.2759259259259259],[0.03958333333333333,-0.25],[0.03958333333333333,-0.22037037037037038],[0.034375,-0.1925925925925926],[0.029166666666666667,-0.16111111111111112],[0.020833333333333332,-0.12777777777777777],[0.013541666666666667,-0.09814814814814815],[0.010416666666666666,-0.07962962962962963],[0.008333333333333333,-0.06666666666666667],[0.00625,-0.046296296296296294],[0.005208333333333333,-0.03148148148148148],[0.004166666666666667,-0.014814814814814815],[0.0010416666666666667,0.005555555555555556],[0,0.025925925925925925],[-0.0010416666666666667,0.040740740740740744],[-0.0010416666666666667,0.04814814814814815],[-0.0010416666666666667,0.05555555555555555],[-0.0010416666666666667,0.05925925925925926],[-0.0010416666666666667,0.06481481481481481],[0.0020833333333333333,0.07407407407407407],[0.005208333333333333,0.08148148148148149],[0.010416666666666666,0.09444444444444444],[0.013541666666666667,0.10185185185185185],[0.016666666666666666,0.10925925925925926],[0.016666666666666666,0.1111111111111111],[0.01875,0.11666666666666667],[0.01875,0.12037037037037036],[0.019791666666666666,0.1259259259259259],[0.020833333333333332,0.13333333333333333],[0.022916666666666665,0.14814814814814814],[0.022916666666666665,0.15],[0.022916666666666665,0.15185185185185185],[0.022916666666666665,0.15555555555555556],[0.022916666666666665,0.1574074074074074],[0.022916666666666665,0.1574074074074074],[0.022916666666666665,0.1574074074074074],[0.022916666666666665,0.1574074074074074],[0.022916666666666665,0.1574074074074074],[0.022916666666666665,0.15925925925925927],[0.021875,0.15925925925925927],[0.021875,0.16111111111111112],[0.021875,0.16111111111111112],[0.020833333333333332,0.16111111111111112],[0.019791666666666666,0.16111111111111112],[0.019791666666666666,0.16296296296296298],[0.01875,0.16296296296296298],[0.017708333333333333,0.16296296296296298],[0.016666666666666666,0.16296296296296298],[0.016666666666666666,0.16296296296296298],[0.015625,0.1648148148148148],[0.015625,0.1648148148148148],[0.015625,0.1648148148148148],[0.014583333333333334,0.1648148148148148],[0.014583333333333334,0.1648148148148148],[0.014583333333333334,0.1648148148148148],[0.014583333333333334,0.1648148148148148],[0.014583333333333334,0.1648148148148148],[0.014583333333333334,0.1648148148148148],[0.014583333333333334,0.1648148148148148],[0.014583333333333334,0.1648148148148148],[0.014583333333333334,0.1648148148148148],[0.014583333333333334,0.1648148148148148],[0.014583333333333334,0.1648148148148148],[0.014583333333333334,0.1648148148148148],[0.014583333333333334,0.1648148148148148],[0.014583333333333334,0.1648148148148148],[0.014583333333333334,0.1648148148148148],[0.014583333333333334,0.1648148148148148],[0.014583333333333334,0.1648148148148148],[0.014583333333333334,0.1648148148148148],[0.014583333333333334,0.1648148148148148],[0.014583333333333334,0.1648148148148148],[0.014583333333333334,0.1648148148148148],[0.014583333333333334,0.1648148148148148],[0.014583333333333334,0.1648148148148148],[0.014583333333333334,0.1648148148148148],[0.014583333333333334,0.1648148148148148],[0.014583333333333334,0.1648148148148148],[0.014583333333333334,0.1648148148148148],[0.014583333333333334,0.1648148148148148],[0.014583333333333334,0.1648148148148148],[0.013541666666666667,0.1648148148148148],[0.010416666666666666,0.16296296296296298],[0.007291666666666667,0.16111111111111112],[0.004166666666666667,0.1574074074074074],[0.003125,0.15555555555555556],[0,0.1537037037037037],[-0.0010416666666666667,0.15],[-0.0020833333333333333,0.15],[-0.0020833333333333333,0.14814814814814814],[-0.003125,0.14814814814814814],[-0.004166666666666667,0.14629629629629629],[-0.005208333333333333,0.14444444444444443],[-0.005208333333333333,0.14444444444444443],[-0.005208333333333333,0.14444444444444443],[-0.005208333333333333,0.14444444444444443],[-0.005208333333333333,0.14444444444444443],[-0.005208333333333333,0.14444444444444443],[-0.005208333333333333,0.14444444444444443],[-0.005208333333333333,0.14444444444444443],[-0.005208333333333333,0.14444444444444443],[-0.005208333333333333,0.14444444444444443],[-0.005208333333333333,0.14444444444444443],[-0.005208333333333333,0.14444444444444443],[-0.005208333333333333,0.14444444444444443],[-0.005208333333333333,0.14444444444444443],[-0.005208333333333333,0.14444444444444443],[-0.005208333333333333,0.14444444444444443],[-0.005208333333333333,0.14444444444444443],[-0.005208333333333333,0.14444444444444443],[-0.005208333333333333,0.14444444444444443],[-0.005208333333333333,0.14444444444444443],[-0.005208333333333333,0.14444444444444443],[-0.005208333333333333,0.14444444444444443],[-0.005208333333333333,0.14444444444444443],[-0.005208333333333333,0.14444444444444443],[-0.005208333333333333,0.14444444444444443],[-0.005208333333333333,0.14444444444444443],[-0.005208333333333333,0.14444444444444443],[-0.005208333333333333,0.14444444444444443],[-0.005208333333333333,0.14444444444444443],[-0.005208333333333333,0.14444444444444443],[-0.005208333333333333,0.14444444444444443],[-0.005208333333333333,0.14444444444444443],[-0.005208333333333333,0.14444444444444443],[-0.005208333333333333,0.14444444444444443],[-0.005208333333333333,0.14444444444444443],[-0.005208333333333333,0.14444444444444443],[-0.005208333333333333,0.14444444444444443],[-0.005208333333333333,0.14444444444444443],[-0.005208333333333333,0.14444444444444443],[-0.005208333333333333,0.14444444444444443],[-0.005208333333333333,0.14444444444444443],[-0.005208333333333333,0.14444444444444443],[-0.005208333333333333,0.14444444444444443],[-0.005208333333333333,0.14444444444444443],[-0.005208333333333333,0.14444444444444443],[-0.005208333333333333,0.14444444444444443],[-0.005208333333333333,0.14444444444444443],[-0.005208333333333333,0.14444444444444443],[-0.005208333333333333,0.14444444444444443],[-0.005208333333333333,0.14444444444444443],[-0.005208333333333333,0.14444444444444443],[-0.005208333333333333,0.14444444444444443],[-0.005208333333333333,0.14444444444444443],[-0.005208333333333333,0.14444444444444443],[-0.005208333333333333,0.14444444444444443],[-0.005208333333333333,0.14444444444444443],[-0.005208333333333333,0.14444444444444443],[-0.005208333333333333,0.14444444444444443],[-0.005208333333333333,0.14444444444444443],[-0.005208333333333333,0.14444444444444443],[-0.005208333333333333,0.14444444444444443],[-0.005208333333333333,0.14444444444444443],[-0.005208333333333333,0.14444444444444443],[-0.005208333333333333,0.14444444444444443],[-0.005208333333333333,0.14444444444444443],[-0.005208333333333333,0.14444444444444443],[-0.005208333333333333,0.14444444444444443],[-0.005208333333333333,0.14444444444444443],[-0.005208333333333333,0.14444444444444443],[-0.005208333333333333,0.14444444444444443],[-0.005208333333333333,0.14444444444444443],[-0.005208333333333333,0.14444444444444443],[-0.005208333333333333,0.14444444444444443],[-0.005208333333333333,0.14444444444444443],[-0.005208333333333333,0.14444444444444443],[-0.005208333333333333,0.14444444444444443],[-0.005208333333333333,0.14444444444444443]]","[[-0.41124999999999995,-0.5742592592592592],[-0.41124999999999995,-0.5742592592592592],[-0.4127083333333334,-0.5761111111111111],[-0.40656249999999994,-0.5914814814814814],[-0.40041666666666664,-0.6068518518518519],[-0.39562499999999995,-0.6157407407407407],[-0.39083333333333337,-0.6246296296296296],[-0.39895833333333336,-0.6033333333333334],[-0.4070833333333333,-0.582037037037037],[-0.41625,-0.575925925925926],[-0.4436458333333333,-0.5718518518518518],[-0.4552083333333333,-0.5911111111111111],[-0.4689583333333333,-0.5896296296296296],[-0.489375,-0.5822222222222222],[-0.5097916666666666,-0.5748148148148148],[-0.4643749999999999,-0.462037037037037],[-0.42250000000000004,-0.3557407407407408],[-0.3732291666666666,-0.31444444444444447],[-0.3359375,-0.28833333333333333],[-0.2833333333333333,-0.24833333333333338],[-0.23072916666666668,-0.20833333333333334],[-0.19166666666666668,-0.16925925925925922],[-0.15260416666666668,-0.1301851851851852],[-0.11864583333333331,-0.01907407407407399],[-0.08468749999999996,0.09203703703703713],[-0.0640625,0.10944444444444448],[-0.03989583333333328,0.13333333333333333],[-0.04468749999999998,0.1766666666666666],[-0.034062500000000044,0.25555555555555554],[-0.03197916666666671,0.3198148148148149],[-0.029895833333333382,0.384074074074074],[-0.024479166666666666,0.4225925925925927],[-0.01906249999999995,0.46111111111111114],[-0.005312500000000024,0.4583333333333333],[0.008437500000000023,0.45555555555555555],[-0.02520833333333338,0.41444444444444434],[-0.058854166666666666,0.37333333333333335],[-0.06625000000000002,0.35796296296296287],[-0.07708333333333334,0.32222222222222224],[-0.09895833333333333,0.3074074074074074],[-0.12083333333333333,0.29259259259259257],[-0.12083333333333333,0.29259259259259257],[-0.1482291666666666,0.2898148148148148],[-0.16770833333333332,0.26296296296296295],[-0.16770833333333332,0.26296296296296295],[-0.18041666666666673,0.2175925925925926],[-0.18041666666666673,0.2175925925925926],[-0.1985416666666667,0.20425925925925917],[-0.2172916666666667,0.18981481481481483],[-0.2172916666666667,0.18981481481481483],[-0.23479166666666665,0.17537037037037045],[-0.23479166666666665,0.17537037037037045],[-0.2552083333333333,0.12685185185185185],[-0.2677083333333333,0.08425925925925926],[-0.2639583333333333,0.026481481481481398],[-0.2796875,-0.02388888888888885],[-0.2794791666666666,-0.05611111111111113],[-0.28312499999999996,-0.0492592592592593],[-0.29,-0.03555555555555564],[-0.28093750000000006,-0.04685185185185177],[-0.2704166666666667,-0.04537037037037037],[-0.24614583333333329,-0.046296296296296294],[-0.2171875,-0.016851851851851896],[-0.19333333333333336,-0.012037037037037037],[-0.1694791666666667,-0.00722222222222218],[-0.13687499999999997,0.018703703703703747],[-0.11520833333333336,0.04814814814814815],[-0.08374999999999998,0.02240740740740745],[-0.052291666666666715,-0.003333333333333249],[-0.030312500000000023,-0.00851851851851856],[-0.008333333333333333,-0.013703703703703662],[-0.003958333333333286,-0.003888888888888931],[-0.0009374999999999763,0.00851851851851856],[0.0016666666666666904,0.009259259259259259],[0.004270833333333357,0.009999999999999959],[0.01552083333333331,-0.007592592592592635],[0.02677083333333338,-0.025185185185185227],[0.02635416666666662,-0.008148148148148106],[0.025937499999999978,0.008888888888888804],[0.019687499999999976,0.0003703703703704546],[0.013437499999999976,-0.008148148148148106],[0.008749999999999977,0.0014814814814813973],[0.005416666666666714,0.00851851851851856],[-0.008749999999999977,0.024629629629629547],[-0.022916666666666665,0.040740740740740744],[-0.017083333333333308,0.037037037037037035],[-0.011249999999999953,0.03333333333333333],[-0.0034374999999999527,0.06944444444444445],[0.004375000000000047,0.10555555555555556],[0.000833333333333286,0.10574074074074079],[-0.002708333333333357,0.105925925925926],[0.009375,0.09388888888888898],[0.021458333333333357,0.08185185185185194],[0.02822916666666669,0.08407407407407404],[0.043437500000000046,0.08777777777777773],[0.026041666666666668,0.11333333333333341],[0.008645833333333287,0.1388888888888889],[-0.0018749999999999527,0.13944444444444437],[0.005312500000000024,0.144074074074074],[0.0015625,0.15407407407407417],[-0.0021875000000000236,0.16407407407407412],[-0.010520833333333358,0.15703703703703695],[-0.02958333333333331,0.1801851851851851],[-0.03791666666666664,0.17777777777777778],[-0.059791666666666646,0.16537037037037028],[-0.05687500000000002,0.1264814814814814],[-0.05364583333333333,0.0962962962962963],[-0.05916666666666662,0.06759259259259259],[-0.08239583333333336,0.03481481481481473],[-0.08520833333333329,0.03777777777777774],[-0.08802083333333334,0.040740740740740744],[-0.11447916666666665,0.058333333333333334],[-0.13020833333333334,0.045740740740740825],[-0.14958333333333335,0.06074074074074066],[-0.17552083333333332,0.0625925925925925],[-0.1944791666666667,0.09740740740740746],[-0.21375000000000005,0.1235185185185186],[-0.25364583333333335,0.1455555555555556],[-0.29354166666666665,0.1675925925925926],[-0.3359375,0.18055555555555555],[-0.37833333333333335,0.1935185185185185],[-0.3875,0.18111111111111103],[-0.38864583333333336,0.20277777777777778],[-0.39416666666666667,0.21592592592592597],[-0.3950000000000001,0.247037037037037],[-0.3988541666666666,0.25833333333333336],[-0.3890625,0.27537037037037043],[-0.3597916666666666,0.3031481481481482],[-0.33052083333333326,0.330925925925926],[-0.3168750000000001,0.3307407407407408],[-0.3032291666666667,0.33055555555555555],[-0.29239583333333335,0.38555555555555565],[-0.28927083333333337,0.3877777777777777],[-0.26322916666666674,0.34814814814814815],[-0.22104166666666672,0.28888888888888886],[-0.22072916666666664,0.2814814814814815],[-0.23406250000000003,0.2683333333333333],[-0.22791666666666663,0.1933333333333333],[-0.22520833333333337,0.122037037037037],[-0.18531249999999996,0.10425925925925918],[-0.14010416666666667,0.07814814814814823],[-0.12177083333333331,0.0025925925925925505],[-0.10375000000000002,-0.05425925925925928],[-0.09916666666666671,0.0035185185185184764],[-0.10375000000000002,0.08462962962962971],[-0.09416666666666665,0.13333333333333333],[-0.08645833333333333,0.1685185185185185],[-0.08302083333333338,0.2661111111111112],[-0.059791666666666646,0.3625925925925925],[-0.07104166666666671,0.41944444444444445],[-0.08760416666666669,0.4846296296296297],[-0.09135416666666671,0.5338888888888889],[-0.09510416666666661,0.5831481481481481],[-0.11916666666666664,0.5551851851851851],[-0.14322916666666666,0.5272222222222223],[-0.13729166666666662,0.47166666666666673],[-0.12947916666666662,0.42962962962962964],[-0.11947916666666672,0.3635185185185184],[-0.1296875,0.2946296296296297],[-0.12635416666666663,0.23666666666666658],[-0.12635416666666663,0.23666666666666658],[-0.12302083333333336,0.1787037037037037],[-0.12593749999999998,0.15833333333333333],[-0.12593749999999998,0.15833333333333333],[-0.12166666666666662,0.12370370370370362],[-0.12166666666666662,0.12370370370370362],[-0.09260416666666664,0.13055555555555556],[-0.09260416666666664,0.13055555555555556],[-0.06895833333333339,0.1257407407407407],[-0.06895833333333339,0.1257407407407407],[-0.06895833333333339,0.09796296296296292],[-0.07093750000000003,0.09962962962962954],[-0.09145833333333328,0.10740740740740741],[-0.09145833333333328,0.10740740740740741],[-0.10218750000000003,0.0992592592592593],[-0.10031249999999996,0.10611111111111103],[-0.0984375,0.11296296296296296],[-0.08374999999999998,0.08648148148148156],[-0.07625000000000005,0.0742592592592593],[-0.09187500000000005,0.04296296296296305],[-0.10208333333333333,0.023333333333333376],[-0.11489583333333328,0.054074074074074156],[-0.12572916666666673,0.05537037037037033],[-0.12541666666666665,0.060370370370370414],[-0.14395833333333338,0.07666666666666662],[-0.1672916666666667,0.07277777777777769],[-0.190625,0.06888888888888897],[-0.21124999999999997,0.10907407407407403],[-0.23187500000000003,0.1492592592592593],[-0.22937500000000005,0.1675925925925926],[-0.22687499999999997,0.18592592592592588],[-0.21062500000000003,0.1874074074074075],[-0.1829166666666667,0.21370370370370367],[-0.18177083333333333,0.19037037037037027],[-0.16770833333333332,0.17185185185185176],[-0.1514583333333333,0.16944444444444445],[-0.12000000000000005,0.1874074074074075],[-0.10072916666666672,0.16370370370370366],[-0.08145833333333338,0.14000000000000004],[-0.06020833333333329,0.13833333333333342],[-0.0375,0.14370370370370375],[-0.033645833333333285,0.14148148148148143],[-0.029999999999999954,0.12296296296296293],[-0.020729166666666642,0.14888888888888885],[-0.011458333333333333,0.17481481481481478],[-0.005208333333333333,0.1985185185185186],[-0.01416666666666669,0.20185185185185187],[-0.008541666666666715,0.20037037037037045],[0.005520833333333286,0.2270370370370371],[-0.006562499999999953,0.225],[-0.01395833333333331,0.2153703703703703],[-0.0010416666666666667,0.27981481481481485],[-0.004479166666666619,0.2564814814814815],[0.011354166666666643,0.26944444444444443],[0.027187500000000024,0.2824074074074074],[0.02635416666666662,0.22462962962962954],[0.025520833333333333,0.1668518518518519],[0.018020833333333285,0.17629629629629637],[0.0020833333333333333,0.15759259259259265],[0.030104166666666644,0.22277777777777769],[0.051979166666666646,0.28851851851851845],[0.035520833333333356,0.17166666666666675],[0.03604166666666669,0.16055555555555565],[0.02385416666666664,0.12833333333333324],[0.011666666666666714,0.09611111111111106],[0.0328125,0.14759259259259266],[0.043020833333333286,0.16666666666666666],[0.04874999999999995,0.1418518518518519],[0.05447916666666662,0.11703703703703712],[0.05479166666666669,0.003333333333333249],[0.04666666666666662,-0.0868518518518518],[0.0709374999999999,-0.03537037037037041],[0.08333333333333333,-0.010370370370370412],[0.10458333333333343,-0.06592592592592597],[0.1258333333333333,-0.12148148148148152],[0.10864583333333329,-0.16444444444444448],[0.10239583333333328,-0.175],[0.0775000000000001,-0.1690740740740741],[0.05260416666666667,-0.16314814814814818],[0.041458333333333285,-0.125],[0.02833333333333338,-0.10462962962962963],[0.011770833333333286,-0.1235185185185185],[-0.004791666666666691,-0.14240740740740737],[-0.025833333333333285,-0.09722222222222222],[-0.046875,-0.052037037037037076],[-0.041562499999999974,-0.022037037037036994],[-0.035416666666666666,-0.016111111111111194],[-0.0140625,-0.014629629629629588],[0.015312500000000047,-0.0257407407407407],[0.0020833333333333333,0.007777777777777862],[0.002708333333333357,-0.017592592592592594],[-0.0046875,0.0035185185185184764],[-0.012083333333333357,0.024629629629629547],[-0.012083333333333357,0.024629629629629547],[-0.004166666666666667,-0.0035185185185184764],[0.008020833333333382,-0.014259259259259343],[0.0171875,-0.039074074074074115],[0.01604166666666664,-0.04722222222222222],[0.015104166666666667,-0.07314814814814814],[0.01854166666666662,-0.10185185185185185],[0.03354166666666671,-0.17833333333333334],[0.036458333333333336,-0.147037037037037],[0.049791666666666616,-0.1485185185185185],[0.06343749999999998,-0.18722222222222226],[0.06062500000000005,-0.17388888888888884],[0.06062500000000005,-0.17388888888888884],[0.07208333333333337,-0.16129629629629633],[0.07864583333333333,-0.15648148148148147],[0.07947916666666661,-0.12666666666666662],[0.09552083333333337,-0.14462962962962966],[0.09104166666666676,-0.0742592592592593],[0.0696875000000001,-0.000925925925925926],[0.050520833333333334,0.032777777777777864],[0.03854166666666667,0.05611111111111103],[0.026250000000000048,0.11666666666666667],[0.02510416666666669,0.1853703703703704],[0.008749999999999977,0.22685185185185186],[-0.02000000000000005,0.3337037037037038],[-0.03354166666666671,0.42296296296296293],[-0.049374999999999974,0.5468518518518518],[-0.049374999999999974,0.5468518518518518],[-0.057083333333333285,0.5977777777777777],[-0.057083333333333285,0.5977777777777777],[-0.05416666666666667,0.47018518518518515],[-0.05416666666666667,0.47018518518518515],[-0.052187500000000026,0.39296296296296307],[-0.052187500000000026,0.39296296296296307],[-0.049374999999999974,0.3588888888888888],[-0.049374999999999974,0.3588888888888888],[-0.04041666666666662,0.3044444444444444],[-0.04041666666666662,0.3044444444444444],[-0.057291666666666664,0.25388888888888894],[-0.07229166666666664,0.17592592592592593],[-0.07229166666666664,0.17592592592592593],[-0.057083333333333285,0.075],[-0.05927083333333331,-0.01722222222222214],[-0.07437499999999998,-0.0962962962962963],[-0.07093750000000003,-0.20037037037037034],[-0.06124999999999995,-0.12888888888888894],[-0.04489583333333336,-0.1111111111111111],[-0.034895833333333334,-0.12740740740740744],[-0.034895833333333334,-0.12740740740740744],[-0.035312499999999976,-0.11925925925925922],[-0.024062500000000025,-0.1301851851851852],[-0.018020833333333285,-0.10314814814814813],[-0.03302083333333338,-0.11370370370370367],[-0.03166666666666664,-0.13092592592592592],[-0.05635416666666669,-0.08444444444444449],[-0.09958333333333336,-0.012962962962962963],[-0.09958333333333336,-0.012962962962962963],[-0.13322916666666665,0.04796296296296292],[-0.15895833333333337,0.015370370370370286],[-0.18531249999999996,0.024814814814814772],[-0.21510416666666668,0.023148148148148147],[-0.21427083333333338,0.04462962962962967],[-0.1842708333333333,0.10777777777777786],[-0.14614583333333328,0.17388888888888884],[-0.13958333333333334,0.18407407407407403],[-0.11447916666666665,0.12333333333333338],[-0.08385416666666666,0.07370370370370362],[-0.06281249999999995,0.03462962962962971],[-0.059583333333333384,0.0698148148148149],[-0.043229166666666666,0.03759259259259251],[-0.036666666666666715,0.06703703703703712],[-0.04645833333333336,0.08925925925925934],[-0.09114583333333333,0.031111111111111027],[-0.1358333333333333,-0.027037037037037078],[-0.1390625,-0.04388888888888897],[-0.1336458333333333,-0.06648148148148143],[-0.14781249999999999,-0.08888888888888889],[-0.16218750000000004,-0.09592592592592594],[-0.17114583333333327,-0.0787037037037037],[-0.19260416666666663,-0.03611111111111111],[-0.18041666666666673,-0.08407407407407404],[-0.1842708333333333,-0.1411111111111111],[-0.17697916666666663,-0.14518518518518514],[-0.16968749999999996,-0.1492592592592593],[-0.16968749999999996,-0.1492592592592593],[-0.17250000000000001,-0.14240740740740737],[-0.16447916666666665,-0.11166666666666669],[-0.1423958333333334,-0.09222222222222225],[-0.12239583333333333,-0.09018518518518516],[-0.09802083333333336,-0.10740740740740741],[-0.07104166666666671,-0.10481481481481486],[-0.06020833333333329,-0.06629629629629631],[-0.0655208333333333,-0.0477777777777777],[-0.07645833333333331,-0.04462962962962967],[-0.07250000000000002,-0.04055555555555551],[-0.0672916666666667,-0.03481481481481473],[-0.078125,-0.0455555555555556],[-0.0889583333333333,-0.056296296296296254],[-0.0859375,-0.012777777777777735],[-0.08208333333333329,0.03333333333333333],[-0.08989583333333329,0.009444444444444486],[-0.09770833333333329,-0.01444444444444436],[-0.090625,-0.011296296296296339],[-0.09552083333333337,-0.01777777777777782],[-0.11020833333333328,0.003703703703703704],[-0.11791666666666671,0.012592592592592508],[-0.1319791666666667,0.051666666666666625],[-0.1460416666666667,0.09074074074074075],[-0.15739583333333335,0.06888888888888897],[-0.16875,0.047037037037036995],[-0.17739583333333328,0.06944444444444445],[-0.1860416666666667,0.09185185185185189],[-0.18062499999999998,0.09129629629629621],[-0.16302083333333334,0.1014814814814814],[-0.14375,0.07574074074074069],[-0.1388541666666666,0.0764814814814814]]","[[-0.41124999999999995,-0.5742592592592592,0.00029999999701857405],[-0.41124999999999995,-0.5742592592592592,0.03739999999851307],[-0.4127083333333334,-0.5761111111111111,0.04800000000000182],[-0.40656249999999994,-0.5914814814814814,0.06199999999999761],[-0.40041666666666664,-0.6068518518518519,0.0785999999940401],[-0.39562499999999995,-0.6157407407407407,0.0953999999985129],[-0.39083333333333337,-0.6246296296296296,0.11189999999851352],[-0.39895833333333336,-0.6033333333333334,0.13019999999553278],[-0.4070833333333333,-0.582037037037037,0.1452999999970217],[-0.41625,-0.575925925925926,0.1620999999940409],[-0.4436458333333333,-0.5718518518518518,0.17869999999552988],[-0.4552083333333333,-0.5911111111111111,0.1953999999985072],[-0.4689583333333333,-0.5896296296296296,0.2120000000000033],[-0.489375,-0.5822222222222222,0.22909999999404107],[-0.5097916666666666,-0.5748148148148148,0.24529999999702312],[-0.4643749999999999,-0.462037037037037,0.2618999999985121],[-0.42250000000000004,-0.3557407407407408,0.27859999999404295],[-0.3732291666666666,-0.31444444444444447,0.2955000000000041],[-0.3359375,-0.28833333333333333,0.3119999999999976],[-0.2833333333333333,-0.24833333333333338,0.32889999999851227],[-0.23072916666666668,-0.20833333333333334,0.34529999999701744],[-0.19166666666666668,-0.16925925925925922,0.3618999999985135],[-0.15260416666666668,-0.1301851851851852,0.3786999999955327],[-0.11864583333333331,-0.01907407407407399,0.3955999999940403],[-0.08468749999999996,0.09203703703703713,0.41199999999999903],[-0.0640625,0.10944444444444448,0.4285999999940415],[-0.03989583333333328,0.13333333333333333,0.4485000000000028],[-0.04468749999999998,0.1766666666666666,0.4638999999985103],[-0.034062500000000044,0.25555555555555554,0.4785999999940387],[-0.03197916666666671,0.3198148148148149,0.49799999999999756],[-0.029895833333333382,0.384074074074074,0.5120000000000005],[-0.024479166666666666,0.4225925925925927,0.528599999994043],[-0.01906249999999995,0.46111111111111114,0.5452999999970203],[-0.005312500000000024,0.4583333333333333,0.5619999999999976],[0.008437500000000023,0.45555555555555555,0.5787999999970168],[-0.02520833333333338,0.41444444444444434,0.5955999999940431],[-0.058854166666666666,0.37333333333333335,0.6120000000000019],[-0.06625000000000002,0.35796296296296287,0.6286999999955327],[-0.07708333333333334,0.32222222222222224,0.6452999999970217],[-0.09895833333333333,0.3074074074074074,0.6622999999970176],[-0.12083333333333333,0.29259259259259257,0.6850000000000023],[-0.12083333333333333,0.29259259259259257,0.6953999999985072],[-0.1482291666666666,0.2898148148148148,0.7120000000000033],[-0.16770833333333332,0.26296296296296295,0.7340999999940436],[-0.16770833333333332,0.26296296296296295,0.7455999999940417],[-0.18041666666666673,0.2175925925925926,0.7627999999970214],[-0.18041666666666673,0.2175925925925926,0.7786999999955313],[-0.1985416666666667,0.20425925925925917,0.7953999999985086],[-0.2172916666666667,0.18981481481481483,0.813299999997021],[-0.2172916666666667,0.18981481481481483,0.8286999999955285],[-0.23479166666666665,0.17537037037037045,0.8453999999985129],[-0.23479166666666665,0.17537037037037045,0.8620000000000019],[-0.2552083333333333,0.12685185185185185,0.8785999999940373],[-0.2677083333333333,0.08425925925925926,0.8952999999970217],[-0.2639583333333333,0.026481481481481398,0.911999999999999],[-0.2796875,-0.02388888888888885,0.9288999999985137],[-0.2794791666666666,-0.05611111111111113,0.9453999999985072],[-0.28312499999999996,-0.0492592592592593,0.9620999999940381],[-0.29,-0.03555555555555564,0.9785999999940387],[-0.28093750000000006,-0.04685185185185177,0.9957999999970184],[-0.2704166666666667,-0.04537037037037037,1.0120000000000005],[-0.24614583333333329,-0.046296296296296294,1.028599999994043],[-0.2171875,-0.016851851851851896,1.0452999999970203],[-0.19333333333333336,-0.012037037037037037,1.0633999999985093],[-0.1694791666666667,-0.00722222222222218,1.07859999999404],[-0.13687499999999997,0.018703703703703747,1.0955000000000013],[-0.11520833333333336,0.04814814814814815,1.1118999999985135],[-0.08374999999999998,0.02240740740740745,1.1286999999955327],[-0.052291666666666715,-0.003333333333333249,1.1452999999970217],[-0.030312500000000023,-0.00851851851851856,1.161999999999999],[-0.008333333333333333,-0.013703703703703662,1.1785999999940415],[-0.003958333333333286,-0.003888888888888931,1.1953999999985072],[-0.0009374999999999763,0.00851851851851856,1.2120000000000033],[0.0016666666666666904,0.009259259259259259,1.2285999999940387],[0.004270833333333357,0.009999999999999959,1.2452999999970231],[0.01552083333333331,-0.007592592592592635,1.2620000000000005],[0.02677083333333338,-0.025185185185185227,1.278599999994043],[0.02635416666666662,-0.008148148148148106,1.2953999999985086],[0.025937499999999978,0.008888888888888804,1.3118999999985093],[0.019687499999999976,0.0003703703703704546,1.32859999999404],[0.013437499999999976,-0.008148148148148106,1.3452999999970174],[0.008749999999999977,0.0014814814814813973,1.3618999999985135],[0.005416666666666714,0.00851851851851856,1.3785999999940373],[-0.008749999999999977,0.024629629629629547,1.39539999999851],[-0.022916666666666665,0.040740740740740744,1.412099999994041],[-0.017083333333333308,0.037037037037037035,1.4285999999940415],[-0.011249999999999953,0.03333333333333333,1.4452999999970189],[-0.0034374999999999527,0.06944444444444445,1.4618999999985078],[0.004375000000000047,0.10555555555555556,1.478699999995527],[0.000833333333333286,0.10574074074074079,1.4953999999985115],[-0.002708333333333357,0.105925925925926,1.511899999998512],[0.009375,0.09388888888888898,1.528599999994043],[0.021458333333333357,0.08185185185185194,1.5452999999970203],[0.02822916666666669,0.08407407407407404,1.5618999999985093],[0.043437500000000046,0.08777777777777773,1.5786999999955285],[0.026041666666666668,0.11333333333333341,1.5955000000000013],[0.008645833333333287,0.1388888888888889,1.6120000000000019],[-0.0018749999999999527,0.13944444444444437,1.6286999999955327],[0.005312500000000024,0.144074074074074,1.6451999999955333],[0.0015625,0.15407407407407417,1.6618999999985107],[-0.0021875000000000236,0.16407407407407412,1.6785999999940415],[-0.010520833333333358,0.15703703703703695,1.6953999999985072],[-0.02958333333333331,0.1801851851851851,1.7118999999985078],[-0.03791666666666664,0.17777777777777778,1.7287999999970225],[-0.059791666666666646,0.16537037037037028,1.7452999999970231],[-0.05687500000000002,0.1264814814814814,1.7620000000000005],[-0.05364583333333333,0.0962962962962963,1.7786999999955313],[-0.05916666666666662,0.06759259259259259,1.7978999999985135],[-0.08239583333333336,0.03481481481481473,1.8120999999940395],[-0.08520833333333329,0.03777777777777774,1.8291999999955308],[-0.08802083333333334,0.040740740740740744,1.8452999999970174],[-0.11447916666666665,0.058333333333333334,1.8620000000000019],[-0.13020833333333334,0.045740740740740825,1.8785999999940373],[-0.14958333333333335,0.06074074074074066,1.8955999999940403],[-0.17552083333333332,0.0625925925925925,1.911999999999999],[-0.1944791666666667,0.09740740740740746,1.9285999999940415],[-0.21375000000000005,0.1235185185185186,1.9451999999955305],[-0.25364583333333335,0.1455555555555556,1.9620000000000033],[-0.29354166666666665,0.1675925925925926,1.9785999999940387],[-0.3359375,0.18055555555555555,1.9962999999970208],[-0.37833333333333335,0.1935185185185185,2.0120000000000005],[-0.3875,0.18111111111111103,2.028599999994043],[-0.38864583333333336,0.20277777777777778,2.045199999995532],[-0.39416666666666667,0.21592592592592597,2.0619999999999976],[-0.3950000000000001,0.247037037037037,2.07859999999404],[-0.3988541666666666,0.25833333333333336,2.095399999998513],[-0.3890625,0.27537037037037043,2.1118999999985135],[-0.3597916666666666,0.3031481481481482,2.1286999999955327],[-0.33052083333333326,0.330925925925926,2.1452999999970217],[-0.3168750000000001,0.3307407407407408,2.1618999999985107],[-0.3032291666666667,0.33055555555555555,2.1785999999940415],[-0.29239583333333335,0.38555555555555565,2.195299999997019],[-0.28927083333333337,0.3877777777777777,2.211899999998508],[-0.26322916666666674,0.34814814814814815,2.2285999999940387],[-0.22104166666666672,0.28888888888888886,2.245299999997023],[-0.22072916666666664,0.2814814814814815,2.2620000000000005],[-0.23406250000000003,0.2683333333333333,2.278599999994043],[-0.22791666666666663,0.1933333333333333,2.2965999999940436],[-0.22520833333333337,0.122037037037037,2.3119999999999976],[-0.18531249999999996,0.10425925925925918,2.32859999999404],[-0.14010416666666667,0.07814814814814823,2.3452999999970174],[-0.12177083333333331,0.0025925925925925505,2.362000000000002],[-0.10375000000000002,-0.05425925925925928,2.3785999999940373],[-0.09916666666666671,0.0035185185185184764,2.39539999999851],[-0.10375000000000002,0.08462962962962971,2.411999999999999],[-0.09416666666666665,0.13333333333333333,2.4285999999940415],[-0.08645833333333333,0.1685185185185185,2.445299999997019],[-0.08302083333333338,0.2661111111111112,2.4620000000000033],[-0.059791666666666646,0.3625925925925925,2.478699999995527],[-0.07104166666666671,0.41944444444444445,2.4953999999985115],[-0.08760416666666669,0.4846296296296297,2.511899999998512],[-0.09135416666666671,0.5338888888888889,2.528599999994043],[-0.09510416666666661,0.5831481481481481,2.5452999999970203],[-0.11916666666666664,0.5551851851851851,2.5618999999985093],[-0.14322916666666666,0.5272222222222223,2.57859999999404],[-0.13729166666666662,0.47166666666666673,2.5960999999940384],[-0.12947916666666662,0.42962962962962964,2.6118999999985135],[-0.11947916666666672,0.3635185185185184,2.6285999999940373],[-0.1296875,0.2946296296296297,2.6452999999970217],[-0.12635416666666663,0.23666666666666658,2.6618999999985107],[-0.12635416666666663,0.23666666666666658,2.6785999999940415],[-0.12302083333333336,0.1787037037037037,2.695299999997019],[-0.12593749999999998,0.15833333333333333,2.7177999999970197],[-0.12593749999999998,0.15833333333333333,2.7287999999970225],[-0.12166666666666662,0.12370370370370362,2.7451999999955277],[-0.12166666666666662,0.12370370370370362,2.7620000000000005],[-0.09260416666666664,0.13055555555555556,2.778599999994043],[-0.09260416666666664,0.13055555555555556,2.7952999999970203],[-0.06895833333333339,0.1257407407407407,2.8119999999999976],[-0.06895833333333339,0.1257407407407407,2.8286999999955285],[-0.06895833333333339,0.09796296296296292,2.845399999998513],[-0.07093750000000003,0.09962962962962954,2.865599999994039],[-0.09145833333333328,0.10740740740740741,2.88809999999404],[-0.09145833333333328,0.10740740740740741,2.897299999997017],[-0.10218750000000003,0.0992592592592593,2.9118999999985107],[-0.10031249999999996,0.10611111111111103,2.9285999999940415],[-0.0984375,0.11296296296296296,2.945299999997019],[-0.08374999999999998,0.08648148148148156,2.9620000000000033],[-0.07625000000000005,0.0742592592592593,2.9785999999940387],[-0.09187500000000005,0.04296296296296305,2.9953999999985115],[-0.10208333333333333,0.023333333333333376,3.0120000000000005],[-0.11489583333333328,0.054074074074074156,3.028599999994043],[-0.12572916666666673,0.05537037037037033,3.0452999999970203],[-0.12541666666666665,0.060370370370370414,3.0618999999985093],[-0.14395833333333338,0.07666666666666662,3.07859999999404],[-0.1672916666666667,0.07277777777777769,3.0955000000000013],[-0.190625,0.06888888888888897,3.112000000000002],[-0.21124999999999997,0.10907407407407403,3.1285999999940373],[-0.23187500000000003,0.1492592592592593,3.1475999999940427],[-0.22937500000000005,0.1675925925925926,3.1621999999955293],[-0.22687499999999997,0.18592592592592588,3.17869999999553],[-0.21062500000000003,0.1874074074074075,3.1988999999985097],[-0.1829166666666667,0.21370370370370367,3.2125999999940404],[-0.18177083333333333,0.19037037037037027,3.2287999999970225],[-0.16770833333333332,0.17185185185185176,3.2455],[-0.1514583333333333,0.16944444444444445,3.264899999998512],[-0.12000000000000005,0.1874074074074075,3.278899999998508],[-0.10072916666666672,0.16370370370370366,3.2957999999970227],[-0.08145833333333338,0.14000000000000004,3.3141999999955303],[-0.06020833333333329,0.13833333333333342,3.3288999999985123],[-0.0375,0.14370370370370375,3.3455000000000013],[-0.033645833333333285,0.14148148148148143,3.365000000000002],[-0.029999999999999954,0.12296296296296293,3.3786999999955327],[-0.020729166666666642,0.14888888888888885,3.3955999999940403],[-0.011458333333333333,0.17481481481481478,3.4141999999955317],[-0.005208333333333333,0.1985185185185186,3.4287999999970182],[-0.01416666666666669,0.20185185185185187,3.4455000000000027],[-0.008541666666666715,0.20037037037037045,3.462099999994038],[0.005520833333333286,0.2270370370370371,3.4810999999940435],[-0.006562499999999953,0.225,3.4972999999970185],[-0.01395833333333331,0.2153703703703703,3.5123999999985074],[-0.0010416666666666667,0.27981481481481485,3.5316999999955314],[-0.004479166666666619,0.2564814814814815,3.5453999999985086],[0.011354166666666643,0.26944444444444443,3.562199999995528],[0.027187500000000024,0.2824074074074074,3.581099999994038],[0.02635416666666662,0.22462962962962954,3.5956999999955315],[0.025520833333333333,0.1668518518518519,3.6148999999985136],[0.018020833333333285,0.17629629629629637,3.628799999997021],[0.0020833333333333333,0.15759259259259265,3.6484999999999985],[0.030104166666666644,0.22277777777777769,3.6636999999955293],[0.051979166666666646,0.28851851851851845,3.6788999999985137],[0.035520833333333356,0.17166666666666675,3.6987999999970214],[0.03604166666666669,0.16055555555555565,3.7139999999999986],[0.02385416666666664,0.12833333333333324,3.728899999998511],[0.011666666666666714,0.09611111111111106,3.7453999999985115],[0.0328125,0.14759259259259266,3.765299999997019],[0.043020833333333286,0.16666666666666666,3.7787999999970197],[0.04874999999999995,0.1418518518518519,3.7957999999970227],[0.05447916666666662,0.11703703703703712,3.8145000000000024],[0.05479166666666669,0.003333333333333249,3.83139999999851],[0.04666666666666662,-0.0868518518518518,3.8460000000000036],[0.0709374999999999,-0.03537037037037041,3.8620999999940366],[0.08333333333333333,-0.010370370370370412,3.8811999999955304],[0.10458333333333343,-0.06592592592592597,3.8970999999940403],[0.1258333333333333,-0.12148148148148152,3.9155999999940434],[0.10864583333333329,-0.16444444444444448,3.9299999999999997],[0.10239583333333328,-0.175,3.945299999997019],[0.0775000000000001,-0.1690740740740741,3.961899999998508],[0.05260416666666667,-0.16314814814814818,3.981199999995532],[0.041458333333333285,-0.125,3.996799999997023],[0.02833333333333338,-0.10462962962962963,4.012199999995531],[0.011770833333333286,-0.1235185185185185,4.028699999995531],[-0.004791666666666691,-0.14240740740740737,4.0478999999985135],[-0.025833333333333285,-0.09722222222222222,4.062299999997023],[-0.046875,-0.052037037037037076,4.0786999999955285],[-0.041562499999999974,-0.022037037037036994,4.099399999998511],[-0.035416666666666666,-0.016111111111111194,4.1137999999970205],[-0.0140625,-0.014629629629629588,4.128799999997021],[0.015312500000000047,-0.0257407407407407,4.145299999997022],[0.0020833333333333333,0.007777777777777862,4.165199999995529],[0.002708333333333357,-0.017592592592592594,4.179099999994037],[-0.0046875,0.0035185185185184764,4.195299999997019],[-0.012083333333333357,0.024629629629629547,4.219500000000004],[-0.012083333333333357,0.024629629629629547,4.228599999994039],[-0.004166666666666667,-0.0035185185185184764,4.245299999997023],[0.008020833333333382,-0.014259259259259343,4.261899999998512],[0.0171875,-0.039074074074074115,4.278500000000001],[0.01604166666666664,-0.04722222222222222,4.295399999998509],[0.015104166666666667,-0.07314814814814814,4.311899999998509],[0.01854166666666662,-0.10185185185185185,4.32859999999404],[0.03354166666666671,-0.17833333333333334,4.345299999997017],[0.036458333333333336,-0.147037037037037,4.362000000000002],[0.049791666666666616,-0.1485185185185185,4.378599999994037],[0.06343749999999998,-0.18722222222222226,4.395499999999998],[0.06062500000000005,-0.17388888888888884,4.415699999995532],[0.06062500000000005,-0.17388888888888884,4.430799999997021],[0.07208333333333337,-0.16129629629629633,4.4451999999955305],[0.07864583333333333,-0.15648148148148147,4.462000000000003],[0.07947916666666661,-0.12666666666666662,4.478599999994039],[0.09552083333333337,-0.14462962962962966,4.495299999997023],[0.09104166666666676,-0.0742592592592593,4.511899999998512],[0.0696875000000001,-0.000925925925925926,4.528599999994043],[0.050520833333333334,0.032777777777777864,4.54529999999702],[0.03854166666666667,0.05611111111111103,4.561899999998509],[0.026250000000000048,0.11666666666666667,4.5786999999955285],[0.02510416666666669,0.1853703703703704,4.597500000000004],[0.008749999999999977,0.22685185185185186,4.613599999994037],[-0.02000000000000005,0.3337037037037038,4.628599999994037],[-0.03354166666666671,0.42296296296296293,4.645199999995533],[-0.049374999999999974,0.5468518518518518,4.661899999998511],[-0.049374999999999974,0.5468518518518518,4.6785999999940415],[-0.057083333333333285,0.5977777777777777,4.700000000000003],[-0.057083333333333285,0.5977777777777777,4.712099999994038],[-0.05416666666666667,0.47018518518518515,4.7287999999970225],[-0.05416666666666667,0.47018518518518515,4.7455],[-0.052187500000000026,0.39296296296296307,4.76589999999851],[-0.052187500000000026,0.39296296296296307,4.778699999995531],[-0.049374999999999974,0.3588888888888888,4.795699999995527],[-0.049374999999999974,0.3588888888888888,4.817999999999998],[-0.04041666666666662,0.3044444444444444,4.828899999998512],[-0.04041666666666662,0.3044444444444444,4.845500000000001],[-0.057291666666666664,0.25388888888888894,4.862099999994037],[-0.07229166666666664,0.17592592592592593,4.8818999999985095],[-0.07229166666666664,0.17592592592592593,4.89539999999851],[-0.057083333333333285,0.075,4.911899999998511],[-0.05927083333333331,-0.01722222222222214,4.9285999999940415],[-0.07437499999999998,-0.0962962962962963,4.945299999997019],[-0.07093750000000003,-0.20037037037037034,4.962000000000003],[-0.06124999999999995,-0.12888888888888894,4.978599999994039],[-0.04489583333333336,-0.1111111111111111,4.996099999994037],[-0.034895833333333334,-0.12740740740740744,5.011899999998512],[-0.034895833333333334,-0.12740740740740744,5.028599999994043],[-0.035312499999999976,-0.11925925925925922,5.04529999999702],[-0.024062500000000025,-0.1301851851851852,5.061899999998509],[-0.018020833333333285,-0.10314814814814813,5.07859999999404],[-0.03302083333333338,-0.11370370370370367,5.095399999998513],[-0.03166666666666664,-0.13092592592592592,5.1118999999985135],[-0.05635416666666669,-0.08444444444444449,5.128599999994037],[-0.09958333333333336,-0.012962962962962963,5.145199999995533],[-0.09958333333333336,-0.012962962962962963,5.161899999998511],[-0.13322916666666665,0.04796296296296292,5.1785],[-0.15895833333333337,0.015370370370370286,5.195399999998507],[-0.18531249999999996,0.024814814814814772,5.212000000000003],[-0.21510416666666668,0.023148148148148147,5.228599999994039],[-0.21427083333333338,0.04462962962962967,5.245299999997023],[-0.1842708333333333,0.10777777777777786,5.263899999998507],[-0.14614583333333328,0.17388888888888884,5.278599999994043],[-0.13958333333333334,0.18407407407407403,5.297199999995527],[-0.11447916666666665,0.12333333333333338,5.311999999999998],[-0.08385416666666666,0.07370370370370362,5.328799999997017],[-0.06281249999999995,0.03462962962962971,5.345299999997017],[-0.059583333333333384,0.0698148148148149,5.36469999999553],[-0.043229166666666666,0.03759259259259251,5.378599999994037],[-0.036666666666666715,0.06703703703703712,5.395499999999998],[-0.04645833333333336,0.08925925925925934,5.411899999998511],[-0.09114583333333333,0.031111111111111027,5.430699999995532],[-0.1358333333333333,-0.027037037037037078,5.4451999999955305],[-0.1390625,-0.04388888888888897,5.461899999998508],[-0.1336458333333333,-0.06648148148148143,5.478599999994039],[-0.14781249999999999,-0.08888888888888889,5.496000000000002],[-0.16218750000000004,-0.09592592592592594,5.511899999998512],[-0.17114583333333327,-0.0787037037037037,5.528599999994043],[-0.19260416666666663,-0.03611111111111111,5.54529999999702],[-0.18041666666666673,-0.08407407407407404,5.561899999998509],[-0.1842708333333333,-0.1411111111111111,5.578499999999998],[-0.17697916666666663,-0.14518518518518514,5.597999999999999],[-0.16968749999999996,-0.1492592592592593,5.6118999999985135],[-0.16968749999999996,-0.1492592592592593,5.628599999994037],[-0.17250000000000001,-0.14240740740740737,5.645299999997022],[-0.16447916666666665,-0.11166666666666669,5.6640000000000015],[-0.1423958333333334,-0.09222222222222225,5.6785999999940415],[-0.12239583333333333,-0.09018518518518516,5.695399999998507],[-0.09802083333333336,-0.10740740740740741,5.711899999998508],[-0.07104166666666671,-0.10481481481481486,5.728599999994039],[-0.06020833333333329,-0.06629629629629631,5.745299999997023],[-0.0655208333333333,-0.0477777777777777,5.762099999994042],[-0.07645833333333331,-0.04462962962962967,5.778699999995531],[-0.07250000000000002,-0.04055555555555551,5.795899999998511],[-0.0672916666666667,-0.03481481481481473,5.811899999998509],[-0.078125,-0.0455555555555556,5.830299999997017],[-0.0889583333333333,-0.056296296296296254,5.84579999999702],[-0.0859375,-0.012777777777777735,5.8618999999985135],[-0.08208333333333329,0.03333333333333333,5.8785000000000025],[-0.08989583333333329,0.009444444444444486,5.89539999999851],[-0.09770833333333329,-0.01444444444444436,5.911899999998511],[-0.090625,-0.011296296296296339,5.9285999999940415],[-0.09552083333333337,-0.01777777777777782,5.9451999999955305],[-0.11020833333333328,0.003703703703703704,5.962000000000003],[-0.11791666666666671,0.012592592592592508,5.978500000000004],[-0.1319791666666667,0.051666666666666625,5.997899999998509],[-0.1460416666666667,0.09074074074074075,6.0120000000000005],[-0.15739583333333335,0.06888888888888897,6.02879999999702],[-0.16875,0.047037037037036995,6.045199999995532],[-0.17739583333333328,0.06944444444444445,6.062199999995528],[-0.1860416666666667,0.09185185185185189,6.07859999999404],[-0.18062499999999998,0.09129629629629621,6.095399999998513],[-0.16302083333333334,0.1014814814814814,6.113899999998509],[-0.14375,0.07574074074074069,6.128599999994037],[-0.1388541666666666,0.0764814814814814,6.145199999995533]]","[0.00029999999701857405,0.03739999999851307,0.04800000000000182,0.06199999999999761,0.0785999999940401,0.0953999999985129,0.11189999999851352,0.13019999999553278,0.1452999999970217,0.1620999999940409,0.17869999999552988,0.1953999999985072,0.2120000000000033,0.22909999999404107,0.24529999999702312,0.2618999999985121,0.27859999999404295,0.2955000000000041,0.3119999999999976,0.32889999999851227,0.34529999999701744,0.3618999999985135,0.3786999999955327,0.3955999999940403,0.41199999999999903,0.4285999999940415,0.4485000000000028,0.4638999999985103,0.4785999999940387,0.49799999999999756,0.5120000000000005,0.528599999994043,0.5452999999970203,0.5619999999999976,0.5787999999970168,0.5955999999940431,0.6120000000000019,0.6286999999955327,0.6452999999970217,0.6622999999970176,0.6850000000000023,0.6953999999985072,0.7120000000000033,0.7340999999940436,0.7455999999940417,0.7627999999970214,0.7786999999955313,0.7953999999985086,0.813299999997021,0.8286999999955285,0.8453999999985129,0.8620000000000019,0.8785999999940373,0.8952999999970217,0.911999999999999,0.9288999999985137,0.9453999999985072,0.9620999999940381,0.9785999999940387,0.9957999999970184,1.0120000000000005,1.028599999994043,1.0452999999970203,1.0633999999985093,1.07859999999404,1.0955000000000013,1.1118999999985135,1.1286999999955327,1.1452999999970217,1.161999999999999,1.1785999999940415,1.1953999999985072,1.2120000000000033,1.2285999999940387,1.2452999999970231,1.2620000000000005,1.278599999994043,1.2953999999985086,1.3118999999985093,1.32859999999404,1.3452999999970174,1.3618999999985135,1.3785999999940373,1.39539999999851,1.412099999994041,1.4285999999940415,1.4452999999970189,1.4618999999985078,1.478699999995527,1.4953999999985115,1.511899999998512,1.528599999994043,1.5452999999970203,1.5618999999985093,1.5786999999955285,1.5955000000000013,1.6120000000000019,1.6286999999955327,1.6451999999955333,1.6618999999985107,1.6785999999940415,1.6953999999985072,1.7118999999985078,1.7287999999970225,1.7452999999970231,1.7620000000000005,1.7786999999955313,1.7978999999985135,1.8120999999940395,1.8291999999955308,1.8452999999970174,1.8620000000000019,1.8785999999940373,1.8955999999940403,1.911999999999999,1.9285999999940415,1.9451999999955305,1.9620000000000033,1.9785999999940387,1.9962999999970208,2.0120000000000005,2.028599999994043,2.045199999995532,2.0619999999999976,2.07859999999404,2.095399999998513,2.1118999999985135,2.1286999999955327,2.1452999999970217,2.1618999999985107,2.1785999999940415,2.195299999997019,2.211899999998508,2.2285999999940387,2.245299999997023,2.2620000000000005,2.278599999994043,2.2965999999940436,2.3119999999999976,2.32859999999404,2.3452999999970174,2.362000000000002,2.3785999999940373,2.39539999999851,2.411999999999999,2.4285999999940415,2.445299999997019,2.4620000000000033,2.478699999995527,2.4953999999985115,2.511899999998512,2.528599999994043,2.5452999999970203,2.5618999999985093,2.57859999999404,2.5960999999940384,2.6118999999985135,2.6285999999940373,2.6452999999970217,2.6618999999985107,2.6785999999940415,2.695299999997019,2.7177999999970197,2.7287999999970225,2.7451999999955277,2.7620000000000005,2.778599999994043,2.7952999999970203,2.8119999999999976,2.8286999999955285,2.845399999998513,2.865599999994039,2.88809999999404,2.897299999997017,2.9118999999985107,2.9285999999940415,2.945299999997019,2.9620000000000033,2.9785999999940387,2.9953999999985115,3.0120000000000005,3.028599999994043,3.0452999999970203,3.0618999999985093,3.07859999999404,3.0955000000000013,3.112000000000002,3.1285999999940373,3.1475999999940427,3.1621999999955293,3.17869999999553,3.1988999999985097,3.2125999999940404,3.2287999999970225,3.2455,3.264899999998512,3.278899999998508,3.2957999999970227,3.3141999999955303,3.3288999999985123,3.3455000000000013,3.365000000000002,3.3786999999955327,3.3955999999940403,3.4141999999955317,3.4287999999970182,3.4455000000000027,3.462099999994038,3.4810999999940435,3.4972999999970185,3.5123999999985074,3.5316999999955314,3.5453999999985086,3.562199999995528,3.581099999994038,3.5956999999955315,3.6148999999985136,3.628799999997021,3.6484999999999985,3.6636999999955293,3.6788999999985137,3.6987999999970214,3.7139999999999986,3.728899999998511,3.7453999999985115,3.765299999997019,3.7787999999970197,3.7957999999970227,3.8145000000000024,3.83139999999851,3.8460000000000036,3.8620999999940366,3.8811999999955304,3.8970999999940403,3.9155999999940434,3.9299999999999997,3.945299999997019,3.961899999998508,3.981199999995532,3.996799999997023,4.012199999995531,4.028699999995531,4.0478999999985135,4.062299999997023,4.0786999999955285,4.099399999998511,4.1137999999970205,4.128799999997021,4.145299999997022,4.165199999995529,4.179099999994037,4.195299999997019,4.219500000000004,4.228599999994039,4.245299999997023,4.261899999998512,4.278500000000001,4.295399999998509,4.311899999998509,4.32859999999404,4.345299999997017,4.362000000000002,4.378599999994037,4.395499999999998,4.415699999995532,4.430799999997021,4.4451999999955305,4.462000000000003,4.478599999994039,4.495299999997023,4.511899999998512,4.528599999994043,4.54529999999702,4.561899999998509,4.5786999999955285,4.597500000000004,4.613599999994037,4.628599999994037,4.645199999995533,4.661899999998511,4.6785999999940415,4.700000000000003,4.712099999994038,4.7287999999970225,4.7455,4.76589999999851,4.778699999995531,4.795699999995527,4.817999999999998,4.828899999998512,4.845500000000001,4.862099999994037,4.8818999999985095,4.89539999999851,4.911899999998511,4.9285999999940415,4.945299999997019,4.962000000000003,4.978599999994039,4.996099999994037,5.011899999998512,5.028599999994043,5.04529999999702,5.061899999998509,5.07859999999404,5.095399999998513,5.1118999999985135,5.128599999994037,5.145199999995533,5.161899999998511,5.1785,5.195399999998507,5.212000000000003,5.228599999994039,5.245299999997023,5.263899999998507,5.278599999994043,5.297199999995527,5.311999999999998,5.328799999997017,5.345299999997017,5.36469999999553,5.378599999994037,5.395499999999998,5.411899999998511,5.430699999995532,5.4451999999955305,5.461899999998508,5.478599999994039,5.496000000000002,5.511899999998512,5.528599999994043,5.54529999999702,5.561899999998509,5.578499999999998,5.597999999999999,5.6118999999985135,5.628599999994037,5.645299999997022,5.6640000000000015,5.6785999999940415,5.695399999998507,5.711899999998508,5.728599999994039,5.745299999997023,5.762099999994042,5.778699999995531,5.795899999998511,5.811899999998509,5.830299999997017,5.84579999999702,5.8618999999985135,5.8785000000000025,5.89539999999851,5.911899999998511,5.9285999999940415,5.9451999999955305,5.962000000000003,5.978500000000004,5.997899999998509,6.0120000000000005,6.02879999999702,6.045199999995532,6.062199999995528,6.07859999999404,6.095399999998513,6.113899999998509,6.128599999994037,6.145199999995533]","[1733280272188,1733280272218,1733280272229,1733280272243,1733280272259,1733280272276,1733280272293,1733280272311,1733280272326,1733280272343,1733280272359,1733280272376,1733280272393,1733280272410,1733280272426,1733280272443,1733280272459,1733280272476,1733280272493,1733280272510,1733280272526,1733280272543,1733280272559,1733280272576,1733280272593,1733280272609,1733280272629,1733280272645,1733280272659,1733280272679,1733280272693,1733280272709,1733280272726,1733280272743,1733280272760,1733280272776,1733280272793,1733280272809,1733280272826,1733280272843,1733280272866,1733280272876,1733280272893,1733280272915,1733280272926,1733280272943,1733280272959,1733280272976,1733280272994,1733280273009,1733280273026,1733280273043,1733280273059,1733280273076,1733280273093,1733280273110,1733280273126,1733280273143,1733280273159,1733280273177,1733280273193,1733280273209,1733280273226,1733280273244,1733280273259,1733280273276,1733280273293,1733280273309,1733280273326,1733280273343,1733280273359,1733280273376,1733280273393,1733280273409,1733280273426,1733280273443,1733280273459,1733280273476,1733280273493,1733280273509,1733280273526,1733280273543,1733280273559,1733280273576,1733280273593,1733280273609,1733280273626,1733280273643,1733280273659,1733280273676,1733280273693,1733280273709,1733280273726,1733280273743,1733280273759,1733280273776,1733280273793,1733280273809,1733280273826,1733280273843,1733280273859,1733280273876,1733280273893,1733280273909,1733280273926,1733280273943,1733280273959,1733280273979,1733280273993,1733280274010,1733280274026,1733280274043,1733280274059,1733280274076,1733280274093,1733280274109,1733280274126,1733280274143,1733280274159,1733280274177,1733280274193,1733280274209,1733280274226,1733280274243,1733280274259,1733280274276,1733280274293,1733280274309,1733280274326,1733280274343,1733280274359,1733280274376,1733280274393,1733280274409,1733280274426,1733280274443,1733280274459,1733280274477,1733280274493,1733280274509,1733280274526,1733280274543,1733280274559,1733280274576,1733280274593,1733280274609,1733280274626,1733280274643,1733280274659,1733280274676,1733280274693,1733280274709,1733280274726,1733280274743,1733280274759,1733280274777,1733280274793,1733280274809,1733280274826,1733280274843,1733280274859,1733280274876,1733280274899,1733280274909,1733280274926,1733280274943,1733280274959,1733280274976,1733280274993,1733280275009,1733280275026,1733280275046,1733280275069,1733280275078,1733280275093,1733280275109,1733280275126,1733280275143,1733280275159,1733280275176,1733280275193,1733280275209,1733280275226,1733280275243,1733280275259,1733280275276,1733280275293,1733280275309,1733280275328,1733280275343,1733280275359,1733280275380,1733280275393,1733280275409,1733280275426,1733280275446,1733280275460,1733280275476,1733280275495,1733280275510,1733280275526,1733280275546,1733280275559,1733280275576,1733280275595,1733280275610,1733280275626,1733280275643,1733280275662,1733280275678,1733280275693,1733280275712,1733280275726,1733280275743,1733280275762,1733280275776,1733280275796,1733280275809,1733280275829,1733280275844,1733280275860,1733280275880,1733280275895,1733280275910,1733280275926,1733280275946,1733280275960,1733280275976,1733280275995,1733280276012,1733280276027,1733280276043,1733280276062,1733280276078,1733280276096,1733280276111,1733280276126,1733280276143,1733280276162,1733280276178,1733280276193,1733280276209,1733280276229,1733280276243,1733280276259,1733280276280,1733280276295,1733280276309,1733280276326,1733280276346,1733280276360,1733280276376,1733280276400,1733280276409,1733280276426,1733280276443,1733280276459,1733280276476,1733280276493,1733280276509,1733280276526,1733280276543,1733280276559,1733280276576,1733280276596,1733280276611,1733280276626,1733280276643,1733280276659,1733280276676,1733280276693,1733280276709,1733280276726,1733280276743,1733280276759,1733280276778,1733280276794,1733280276809,1733280276826,1733280276843,1733280276859,1733280276881,1733280276893,1733280276910,1733280276926,1733280276947,1733280276959,1733280276976,1733280276999,1733280277010,1733280277026,1733280277043,1733280277063,1733280277076,1733280277093,1733280277109,1733280277126,1733280277143,1733280277159,1733280277177,1733280277193,1733280277209,1733280277226,1733280277243,1733280277259,1733280277276,1733280277293,1733280277310,1733280277326,1733280277343,1733280277359,1733280277376,1733280277393,1733280277409,1733280277426,1733280277445,1733280277459,1733280277478,1733280277493,1733280277509,1733280277526,1733280277545,1733280277559,1733280277576,1733280277593,1733280277611,1733280277626,1733280277643,1733280277659,1733280277677,1733280277693,1733280277709,1733280277726,1733280277743,1733280277759,1733280277779,1733280277793,1733280277809,1733280277826,1733280277845,1733280277859,1733280277876,1733280277893,1733280277909,1733280277926,1733280277943,1733280277959,1733280277977,1733280277993,1733280278011,1733280278027,1733280278043,1733280278059,1733280278076,1733280278093,1733280278109,1733280278126,1733280278143,1733280278159,1733280278179,1733280278193,1733280278210,1733280278226,1733280278243,1733280278259,1733280278276,1733280278295,1733280278309,1733280278326]","[[565.2,229.9],[565.2,229.9],[563.8,228.9],[569.7,220.6],[575.6,212.3],[580.2,207.5],[584.8,202.7],[577,214.2],[569.2,225.7],[560.4,229],[534.1,231.2],[523,220.8],[509.8,221.6],[490.2,225.6],[470.6,229.6],[514.2,290.5],[554.4,347.9],[601.7,370.2],[637.5,384.3],[688,405.9],[738.5,427.5],[776,448.6],[813.5,469.7],[846.1,529.7],[878.7,589.7],[898.5,599.1],[921.7,612],[917.1,635.4],[927.3,678],[929.3,712.7],[931.3,747.4],[936.5,768.2],[941.7,789],[954.9,787.5],[968.1,786],[935.8,763.8],[903.5,741.6],[896.4,733.3],[886,714],[865,706],[844,698],[844,698],[817.7,696.5],[799,682],[799,682],[786.8,657.5],[786.8,657.5],[769.4,650.3],[751.4,642.5],[751.4,642.5],[734.6,634.7],[734.6,634.7],[715,608.5],[703,585.5],[706.6,554.3],[691.5,527.1],[691.7,509.7],[688.2,513.4],[681.6,520.8],[690.3,514.7],[700.4,515.5],[723.7,515],[751.5,530.9],[774.4,533.5],[797.3,536.1],[828.6,550.1],[849.4,566],[879.6,552.1],[909.8,538.2],[930.9,535.4],[952,532.6],[956.2,537.9],[959.1,544.6],[961.6,545],[964.1,545.4],[974.9,535.9],[985.7,526.4],[985.3,535.6],[984.9,544.8],[978.9,540.2],[972.9,535.6],[968.4,540.8],[965.2,544.6],[951.6,553.3],[938,562],[943.6,560],[949.2,558],[956.7,577.5],[964.2,597],[960.8,597.1],[957.4,597.2],[969,590.7],[980.6,584.2],[987.1,585.4],[1001.7,587.4],[985,601.2],[968.3,615],[958.2,615.3],[965.1,617.8],[961.5,623.2],[957.9,628.6],[949.9,624.8],[931.6,637.3],[923.6,636],[902.6,629.3],[905.4,608.3],[908.5,592],[903.2,576.5],[880.9,558.8],[878.2,560.4],[875.5,562],[850.1,571.5],[835,564.7],[816.4,572.8],[791.5,573.8],[773.3,592.6],[754.8,606.7],[716.5,618.6],[678.2,630.5],[637.5,637.5],[596.8,644.5],[588,637.8],[586.9,649.5],[581.6,656.6],[580.8,673.4],[577.1,679.5],[586.5,688.7],[614.6,703.7],[642.7,718.7],[655.8,718.6],[668.9,718.5],[679.3,748.2],[682.3,749.4],[707.3,728],[747.8,696],[748.1,692],[735.3,684.9],[741.2,644.4],[743.8,605.9],[782.1,596.3],[825.5,582.2],[843.1,541.4],[860.4,510.7],[864.8,541.9],[860.4,585.7],[869.6,612],[877,631],[880.3,683.7],[902.6,735.8],[891.8,766.5],[875.9,801.7],[872.3,828.3],[868.7,854.9],[845.6,839.8],[822.5,824.7],[828.2,794.7],[835.7,772],[845.3,736.3],[835.5,699.1],[838.7,667.8],[838.7,667.8],[841.9,636.5],[839.1,625.5],[839.1,625.5],[843.2,606.8],[843.2,606.8],[871.1,610.5],[871.1,610.5],[893.8,607.9],[893.8,607.9],[893.8,592.9],[891.9,593.8],[872.2,598],[872.2,598],[861.9,593.6],[863.7,597.3],[865.5,601],[879.6,586.7],[886.8,580.1],[871.8,563.2],[862,552.6],[849.7,569.2],[839.3,569.9],[839.6,572.6],[821.8,581.4],[799.4,579.3],[777,577.2],[757.2,598.9],[737.4,620.6],[739.8,630.5],[742.2,640.4],[757.8,641.2],[784.4,655.4],[785.5,642.8],[799,632.8],[814.6,631.5],[844.8,641.2],[863.3,628.4],[881.8,615.6],[902.2,614.7],[924,617.6],[927.7,616.4],[931.2,606.4],[940.1,620.4],[949,634.4],[955,647.2],[946.4,649],[951.8,648.2],[965.3,662.6],[953.7,661.5],[946.6,656.3],[959,691.1],[955.7,678.5],[970.9,685.5],[986.1,692.5],[985.3,661.3],[984.5,630.1],[977.3,635.2],[962,625.1],[988.9,660.3],[1009.9,695.8],[994.1,632.7],[994.6,626.7],[982.9,609.3],[971.2,591.9],[991.5,619.7],[1001.3,630],[1006.8,616.6],[1012.3,603.2],[1012.6,541.8],[1004.8,493.1],[1028.1,520.9],[1040,534.4],[1060.4,504.4],[1080.8,474.4],[1064.3,451.2],[1058.3,445.5],[1034.4,448.7],[1010.5,451.9],[999.8,472.5],[987.2,483.5],[971.3,473.3],[955.4,463.1],[935.2,487.5],[915,511.9],[920.1,528.1],[926,531.3],[946.5,532.1],[974.7,526.1],[962,544.2],[962.6,530.5],[955.5,541.9],[948.4,553.3],[948.4,553.3],[956,538.1],[967.7,532.3],[976.5,518.9],[975.4,514.5],[974.5,500.5],[977.8,485],[992.2,443.7],[995,460.6],[1007.8,459.8],[1020.9,438.9],[1018.2,446.1],[1018.2,446.1],[1029.2,452.9],[1035.5,455.5],[1036.3,471.6],[1051.7,461.9],[1047.4,499.9],[1026.9,539.5],[1008.5,557.7],[997,570.3],[985.2,603],[984.1,640.1],[968.4,662.5],[940.8,720.2],[927.8,768.4],[912.6,835.3],[912.6,835.3],[905.2,862.8],[905.2,862.8],[908,793.9],[908,793.9],[909.9,752.2],[909.9,752.2],[912.6,733.8],[912.6,733.8],[921.2,704.4],[921.2,704.4],[905,677.1],[890.6,635],[890.6,635],[905.2,580.5],[903.1,530.7],[888.6,488],[891.9,431.8],[901.2,470.4],[916.9,480],[926.5,471.2],[926.5,471.2],[926.1,475.6],[936.9,469.7],[942.7,484.3],[928.3,478.6],[929.6,469.3],[905.9,494.4],[864.4,533],[864.4,533],[832.1,565.9],[807.4,548.3],[782.1,553.4],[753.5,552.5],[754.3,564.1],[783.1,598.2],[819.7,633.9],[826,639.4],[850.1,606.6],[879.5,579.8],[899.7,558.7],[902.8,577.7],[918.5,560.3],[924.8,576.2],[915.4,588.2],[872.5,556.8],[829.6,525.4],[826.5,516.3],[831.7,504.1],[818.1,492],[804.3,488.2],[795.7,497.5],[775.1,520.5],[786.8,494.6],[783.1,463.8],[790.1,461.6],[797.1,459.4],[797.1,459.4],[794.4,463.1],[802.1,479.7],[823.3,490.2],[842.5,491.3],[865.9,482],[891.8,483.4],[902.2,504.2],[897.1,514.2],[886.6,515.9],[890.4,518.1],[895.4,521.2],[885,515.4],[874.6,509.6],[877.5,533.1],[881.2,558],[873.7,545.1],[866.2,532.2],[873,533.9],[868.3,530.4],[854.2,542],[846.8,546.8],[833.3,567.9],[819.8,589],[808.9,577.2],[798,565.4],[789.7,577.5],[781.4,589.6],[786.6,589.3],[803.5,594.8],[822,580.9],[826.7,581.3]]","[0,0.151169218]","[0.151169218,0.151169218]","[-0.151169218,0]","[-0.151169218,-0.151169218]","[0,0]","[0.151169218,0]","[0,-0.151169218]","[0.151169218,-0.151169218]",0,0,0,0,1,1,Smartphone,7,7,15,9
