inst1_resp.keys,inst1_resp.rt,calibrationMouse.x,calibrationMouse.y,calibrationMouse.leftButton,calibrationMouse.midButton,calibrationMouse.rightButton,calibrationClick.x,calibrationClick.y,calibrationClick.leftButton,calibrationClick.midButton,calibrationClick.rightButton,calibrationClick.clicked_name,trialsc.thisRepN,trialsc.thisTrialN,trialsc.thisN,trialsc.thisIndex,trialsc.ran,calibration_x,calibration_y,participant,session,date,expName,psychopyVersion,OS,frameRate,ScreenRes_pixels,Camera_pixels,mouse_2.x,mouse_2.y,mouse_2.leftButton,mouse_2.midButton,mouse_2.rightButton,mouse_2.time,mouse_2.clicked_name,mouse.x,mouse.y,mouse.leftButton,mouse.midButton,mouse.rightButton,mouse.time,mouse.clicked_name,Choice,Trial,TrialDuration,MOUSE_GAZE,ET_GAZE,ET_GAZE_x_T,time,unixTime,ET_GAZE_NF,Loc_Option1_label,Loc_Option2_label,Loc_Cost_label,Loc_Qual_label,Loc_Option1_cost,Loc_Option2_cost,Loc_Option1_quality,Loc_Option2_quality,trials.thisRepN,trials.thisTrialN,trials.thisN,trials.thisIndex,trials.ran,Block,Device,cost1,qual1,cost2,qual2
space,2.3836,0.119791667,-0.261111111,1,0,0,0.679166667,0.672222222,1,0,0,calibration_square,0,0,0,19,1,0.67,0.67,44,001,2024-12-04_13h56.06.539,Attention_exp_legacy,2023.1.0,Win32,60.24096386,,,,,,,,,,,,,,,,,,,,,,,,,,,,,,,,,,,,,,,,,,,,
,,,,,,,-0.002083333,0.675925926,1,0,0,calibration_square,0,1,1,13,1,0,0.67,44,001,2024-12-04_13h56.06.539,Attention_exp_legacy,2023.1.0,Win32,60.24096386,,,,,,,,,,,,,,,,,,,,,,,,,,,,,,,,,,,,,,,,,,,,
,,,,,,,-0.673958333,0.340740741,1,0,0,,0,2,2,3,1,-0.67,0.33,44,001,2024-12-04_13h56.06.539,Attention_exp_legacy,2023.1.0,Win32,60.24096386,,,,,,,,,,,,,,,,,,,,,,,,,,,,,,,,,,,,,,,,,,,,
,,,,,,,0.008333333,0.014814815,1,0,0,,0,3,3,11,1,0,0,44,001,2024-12-04_13h56.06.539,Attention_exp_legacy,2023.1.0,Win32,60.24096386,,,,,,,,,,,,,,,,,,,,,,,,,,,,,,,,,,,,,,,,,,,,
,,,,,,,-0.667708333,0.009259259,1,0,0,calibration_square,0,4,4,2,1,-0.67,0,44,001,2024-12-04_13h56.06.539,Attention_exp_legacy,2023.1.0,Win32,60.24096386,,,,,,,,,,,,,,,,,,,,,,,,,,,,,,,,,,,,,,,,,,,,
,,,,,,,-0.009375,-0.664814815,1,0,0,calibration_square,0,5,5,9,1,0,-0.67,44,001,2024-12-04_13h56.06.539,Attention_exp_legacy,2023.1.0,Win32,60.24096386,,,,,,,,,,,,,,,,,,,,,,,,,,,,,,,,,,,,,,,,,,,,
,,,,,,,0.327083333,0.331481481,1,0,0,calibration_square,0,6,6,17,1,0.33,0.33,44,001,2024-12-04_13h56.06.539,Attention_exp_legacy,2023.1.0,Win32,60.24096386,,,,,,,,,,,,,,,,,,,,,,,,,,,,,,,,,,,,,,,,,,,,
,,,,,,,0.319791667,0.694444444,1,0,0,,0,7,7,18,1,0.33,0.67,44,001,2024-12-04_13h56.06.539,Attention_exp_legacy,2023.1.0,Win32,60.24096386,,,,,,,,,,,,,,,,,,,,,,,,,,,,,,,,,,,,,,,,,,,,
,,,,,,,0.33125,-0.659259259,1,0,0,,0,8,8,14,1,0.33,-0.67,44,001,2024-12-04_13h56.06.539,Attention_exp_legacy,2023.1.0,Win32,60.24096386,,,,,,,,,,,,,,,,,,,,,,,,,,,,,,,,,,,,,,,,,,,,
,,,,,,,-0.336458333,0.02037037,1,0,0,,0,9,9,6,1,-0.33,0,44,001,2024-12-04_13h56.06.539,Attention_exp_legacy,2023.1.0,Win32,60.24096386,,,,,,,,,,,,,,,,,,,,,,,,,,,,,,,,,,,,,,,,,,,,
,,,,,,,-0.328125,0.32962963,1,0,0,calibration_square,0,10,10,7,1,-0.33,0.33,44,001,2024-12-04_13h56.06.539,Attention_exp_legacy,2023.1.0,Win32,60.24096386,,,,,,,,,,,,,,,,,,,,,,,,,,,,,,,,,,,,,,,,,,,,
,,,,,,,-0.667708333,-0.659259259,1,0,0,,0,11,11,0,1,-0.67,-0.67,44,001,2024-12-04_13h56.06.539,Attention_exp_legacy,2023.1.0,Win32,60.24096386,,,,,,,,,,,,,,,,,,,,,,,,,,,,,,,,,,,,,,,,,,,,
,,,,,,,-0.005208333,0.333333333,1,0,0,calibration_square,0,12,12,12,1,0,0.33,44,001,2024-12-04_13h56.06.539,Attention_exp_legacy,2023.1.0,Win32,60.24096386,,,,,,,,,,,,,,,,,,,,,,,,,,,,,,,,,,,,,,,,,,,,
,,,,,,,0.328125,-0.337037037,1,0,0,calibration_square,0,13,13,15,1,0.33,-0.33,44,001,2024-12-04_13h56.06.539,Attention_exp_legacy,2023.1.0,Win32,60.24096386,,,,,,,,,,,,,,,,,,,,,,,,,,,,,,,,,,,,,,,,,,,,
,,,,,,,0.663541667,-0.664814815,1,0,0,calibration_square,0,14,14,20,1,0.67,-0.67,44,001,2024-12-04_13h56.06.539,Attention_exp_legacy,2023.1.0,Win32,60.24096386,,,,,,,,,,,,,,,,,,,,,,,,,,,,,,,,,,,,,,,,,,,,
,,,,,,,-0.336458333,-0.672222222,1,0,0,calibration_square,0,15,15,4,1,-0.33,-0.67,44,001,2024-12-04_13h56.06.539,Attention_exp_legacy,2023.1.0,Win32,60.24096386,,,,,,,,,,,,,,,,,,,,,,,,,,,,,,,,,,,,,,,,,,,,
,,,,,,,-0.009375,-0.325925926,1,0,0,calibration_square,0,16,16,10,1,0,-0.33,44,001,2024-12-04_13h56.06.539,Attention_exp_legacy,2023.1.0,Win32,60.24096386,,,,,,,,,,,,,,,,,,,,,,,,,,,,,,,,,,,,,,,,,,,,
,,,,,,,-0.664583333,-0.324074074,1,0,0,calibration_square,0,17,17,1,1,-0.67,-0.33,44,001,2024-12-04_13h56.06.539,Attention_exp_legacy,2023.1.0,Win32,60.24096386,,,,,,,,,,,,,,,,,,,,,,,,,,,,,,,,,,,,,,,,,,,,
,,,,,,,-0.339583333,-0.32037037,1,0,0,calibration_square,0,18,18,5,1,-0.33,-0.33,44,001,2024-12-04_13h56.06.539,Attention_exp_legacy,2023.1.0,Win32,60.24096386,,,,,,,,,,,,,,,,,,,,,,,,,,,,,,,,,,,,,,,,,,,,
,,,,,,,-0.326041667,0.664814815,1,0,0,calibration_square,0,19,19,8,1,-0.33,0.67,44,001,2024-12-04_13h56.06.539,Attention_exp_legacy,2023.1.0,Win32,60.24096386,,,,,,,,,,,,,,,,,,,,,,,,,,,,,,,,,,,,,,,,,,,,
,,,,,,,0.34375,0.007407407,1,0,0,,0,20,20,16,1,0.33,0,44,001,2024-12-04_13h56.06.539,Attention_exp_legacy,2023.1.0,Win32,60.24096386,,,,,,,,,,,,,,,,,,,,,,,,,,,,,,,,,,,,,,,,,,,,
,,,,,,,,,,,,,,,,,,,,44,001,2024-12-04_13h56.06.539,Attention_exp_legacy,2023.1.0,Win32,60.24096386,"[1920,1080]","[640,480]",[-0.034375],[-0.49444444444444446],[1],[0],[0],[8.583800000004473],"[""StartButton""]",[0.027083333333333334],[0.45],[1],[0],[0],[6.654299999997001],"[""Option1_label""]",Option1_label,1,7.6622,"[[0.23125,-0.31296296296296294],[0.23125,-0.31296296296296294],[0.23125,-0.31296296296296294],[0.23125,-0.31296296296296294],[0.23125,-0.31296296296296294],[0.23125,-0.31296296296296294],[0.23125,-0.31296296296296294],[0.23125,-0.31296296296296294],[0.23125,-0.31296296296296294],[0.23125,-0.31296296296296294],[0.23125,-0.31296296296296294],[0.23125,-0.31296296296296294],[0.23125,-0.31296296296296294],[0.23125,-0.31296296296296294],[0.23125,-0.31296296296296294],[0.23125,-0.31296296296296294],[0.23125,-0.31296296296296294],[0.23125,-0.31296296296296294],[0.23125,-0.31296296296296294],[0.23125,-0.31296296296296294],[0.23125,-0.31296296296296294],[0.23125,-0.31296296296296294],[0.23125,-0.31296296296296294],[0.23125,-0.31296296296296294],[0.23125,-0.31296296296296294],[0.23125,-0.31296296296296294],[0.23125,-0.31296296296296294],[0.23125,-0.31296296296296294],[0.23125,-0.31296296296296294],[0.23125,-0.31296296296296294],[0.23125,-0.31296296296296294],[0.23125,-0.31296296296296294],[0.23125,-0.31296296296296294],[0.23125,-0.31296296296296294],[0.23125,-0.31296296296296294],[0.23125,-0.31296296296296294],[0.23125,-0.31296296296296294],[0.23125,-0.31296296296296294],[0.23125,-0.31296296296296294],[0.23125,-0.31296296296296294],[0.23125,-0.31296296296296294],[0.23125,-0.31296296296296294],[0.23125,-0.31296296296296294],[0.23125,-0.31296296296296294],[0.23125,-0.31296296296296294],[0.23125,-0.31296296296296294],[0.23125,-0.31296296296296294],[0.23125,-0.31296296296296294],[0.23125,-0.31296296296296294],[0.23125,-0.31296296296296294],[0.23125,-0.31296296296296294],[0.23125,-0.31296296296296294],[0.23125,-0.31296296296296294],[0.23125,-0.31296296296296294],[0.23125,-0.31296296296296294],[0.23125,-0.31296296296296294],[0.23125,-0.31296296296296294],[0.23125,-0.31296296296296294],[0.23125,-0.31296296296296294],[0.23125,-0.31296296296296294],[0.23125,-0.31296296296296294],[0.23125,-0.31296296296296294],[0.23125,-0.31296296296296294],[0.23125,-0.31296296296296294],[0.23125,-0.31296296296296294],[0.23125,-0.31296296296296294],[0.23125,-0.31296296296296294],[0.23125,-0.31296296296296294],[0.23125,-0.31296296296296294],[0.23125,-0.31296296296296294],[0.23125,-0.31296296296296294],[0.23125,-0.31296296296296294],[0.23125,-0.31296296296296294],[0.23125,-0.31296296296296294],[0.23125,-0.31296296296296294],[0.23125,-0.31296296296296294],[0.23125,-0.31296296296296294],[0.23125,-0.31296296296296294],[0.23125,-0.31296296296296294],[0.23125,-0.31296296296296294],[0.23125,-0.31296296296296294],[0.23125,-0.31296296296296294],[0.23125,-0.31296296296296294],[0.23125,-0.31296296296296294],[0.23125,-0.31296296296296294],[0.23125,-0.31296296296296294],[0.23125,-0.31296296296296294],[0.23125,-0.31296296296296294],[0.23125,-0.31296296296296294],[0.23125,-0.31296296296296294],[0.23125,-0.31296296296296294],[0.23125,-0.31296296296296294],[0.23125,-0.31296296296296294],[0.23125,-0.31296296296296294],[0.23125,-0.31296296296296294],[0.23125,-0.31296296296296294],[0.23125,-0.31296296296296294],[0.23125,-0.31296296296296294],[0.23125,-0.31296296296296294],[0.23125,-0.31296296296296294],[0.23125,-0.31296296296296294],[0.23125,-0.31296296296296294],[0.23125,-0.31296296296296294],[0.23125,-0.31296296296296294],[0.23125,-0.31296296296296294],[0.23125,-0.31296296296296294],[0.23125,-0.31296296296296294],[0.23125,-0.31296296296296294],[0.23125,-0.31296296296296294],[0.23125,-0.31296296296296294],[0.23125,-0.31296296296296294],[0.23125,-0.31296296296296294],[0.23125,-0.31296296296296294],[0.23125,-0.31296296296296294],[0.23125,-0.31296296296296294],[0.23125,-0.31296296296296294],[0.23125,-0.31296296296296294],[0.23125,-0.31296296296296294],[0.23125,-0.31296296296296294],[0.23125,-0.31296296296296294],[0.23125,-0.31296296296296294],[0.23125,-0.31296296296296294],[0.23125,-0.31296296296296294],[0.23125,-0.31296296296296294],[0.23125,-0.31296296296296294],[0.23125,-0.31296296296296294],[0.23125,-0.31296296296296294],[0.23125,-0.31296296296296294],[0.23125,-0.31296296296296294],[0.23125,-0.31296296296296294],[0.23125,-0.31296296296296294],[0.23125,-0.31296296296296294],[0.23125,-0.31296296296296294],[0.23125,-0.31296296296296294],[0.23125,-0.31296296296296294],[0.23125,-0.31296296296296294],[0.23125,-0.31296296296296294],[0.23125,-0.31296296296296294],[0.23125,-0.31296296296296294],[0.23125,-0.31296296296296294],[0.23125,-0.31296296296296294],[0.23125,-0.31296296296296294],[0.23125,-0.31296296296296294],[0.23125,-0.31296296296296294],[0.23125,-0.31296296296296294],[0.23125,-0.31296296296296294],[0.23125,-0.31296296296296294],[0.23125,-0.31296296296296294],[0.23125,-0.31296296296296294],[0.23125,-0.31296296296296294],[0.23125,-0.31296296296296294],[0.23125,-0.31296296296296294],[0.23125,-0.31296296296296294],[0.23125,-0.31296296296296294],[0.23125,-0.31296296296296294],[0.23125,-0.31296296296296294],[0.23125,-0.31296296296296294],[0.23125,-0.31296296296296294],[0.23125,-0.31296296296296294],[0.23125,-0.31296296296296294],[0.23125,-0.31296296296296294],[0.23125,-0.31296296296296294],[0.23125,-0.31296296296296294],[0.23125,-0.31296296296296294],[0.23125,-0.31296296296296294],[0.23854166666666668,-0.30185185185185187],[0.26666666666666666,-0.2611111111111111],[0.27708333333333335,-0.24444444444444444],[0.315625,-0.20555555555555555],[0.34791666666666665,-0.17592592592592593],[0.3854166666666667,-0.14814814814814814],[0.41041666666666665,-0.12962962962962962],[0.43125,-0.11481481481481481],[0.44895833333333335,-0.1],[0.4583333333333333,-0.09444444444444444],[0.4635416666666667,-0.08703703703703704],[0.4666666666666667,-0.08333333333333333],[0.4666666666666667,-0.08333333333333333],[0.4666666666666667,-0.08333333333333333],[0.46770833333333334,-0.08333333333333333],[0.46875,-0.08333333333333333],[0.46875,-0.08333333333333333],[0.46875,-0.08333333333333333],[0.46979166666666666,-0.08333333333333333],[0.46979166666666666,-0.08333333333333333],[0.46979166666666666,-0.08333333333333333],[0.46979166666666666,-0.08148148148148149],[0.4708333333333333,-0.08148148148148149],[0.4739583333333333,-0.07962962962962963],[0.47708333333333336,-0.07592592592592592],[0.4791666666666667,-0.07592592592592592],[0.48020833333333335,-0.07407407407407407],[0.4822916666666667,-0.07407407407407407],[0.4864583333333333,-0.07407407407407407],[0.49375,-0.07407407407407407],[0.5,-0.07407407407407407],[0.5083333333333333,-0.07407407407407407],[0.5166666666666667,-0.07407407407407407],[0.5270833333333333,-0.07962962962962963],[0.5354166666666667,-0.08333333333333333],[0.540625,-0.08703703703703704],[0.5416666666666666,-0.08703703703703704],[0.5427083333333333,-0.08703703703703704],[0.5427083333333333,-0.08703703703703704],[0.5427083333333333,-0.08703703703703704],[0.5427083333333333,-0.08703703703703704],[0.5427083333333333,-0.08703703703703704],[0.5427083333333333,-0.08703703703703704],[0.5427083333333333,-0.08703703703703704],[0.5427083333333333,-0.08703703703703704],[0.5427083333333333,-0.08703703703703704],[0.5427083333333333,-0.08703703703703704],[0.5427083333333333,-0.08703703703703704],[0.5427083333333333,-0.08703703703703704],[0.5427083333333333,-0.08703703703703704],[0.5427083333333333,-0.08703703703703704],[0.5427083333333333,-0.08703703703703704],[0.5427083333333333,-0.08703703703703704],[0.5427083333333333,-0.08703703703703704],[0.5427083333333333,-0.08703703703703704],[0.5427083333333333,-0.08703703703703704],[0.5427083333333333,-0.08703703703703704],[0.5427083333333333,-0.08703703703703704],[0.5427083333333333,-0.08703703703703704],[0.5427083333333333,-0.08703703703703704],[0.5427083333333333,-0.08703703703703704],[0.5427083333333333,-0.08703703703703704],[0.54375,-0.08518518518518518],[0.54375,-0.07037037037037037],[0.54375,-0.03148148148148148],[0.54375,0.012962962962962963],[0.54375,0.06481481481481481],[0.54375,0.11666666666666667],[0.5385416666666667,0.1685185185185185],[0.5354166666666667,0.21296296296296297],[0.5270833333333333,0.2518518518518518],[0.521875,0.2851851851851852],[0.51875,0.30925925925925923],[0.5135416666666667,0.34074074074074073],[0.5114583333333333,0.35185185185185186],[0.5104166666666666,0.3648148148148148],[0.50625,0.39444444444444443],[0.5052083333333334,0.4148148148148148],[0.5041666666666667,0.43148148148148147],[0.5020833333333333,0.44814814814814813],[0.5010416666666667,0.45925925925925926],[0.5010416666666667,0.4685185185185185],[0.5,0.4740740740740741],[0.5,0.4777777777777778],[0.5,0.48333333333333334],[0.5,0.48703703703703705],[0.49895833333333334,0.4888888888888889],[0.49895833333333334,0.4888888888888889],[0.49895833333333334,0.49074074074074076],[0.49895833333333334,0.49074074074074076],[0.49895833333333334,0.4925925925925926],[0.49895833333333334,0.4925925925925926],[0.49895833333333334,0.4925925925925926],[0.49895833333333334,0.4925925925925926],[0.49895833333333334,0.4925925925925926],[0.49895833333333334,0.4925925925925926],[0.49895833333333334,0.4925925925925926],[0.4979166666666667,0.49444444444444446],[0.4979166666666667,0.4981481481481482],[0.4979166666666667,0.5],[0.4979166666666667,0.5018518518518519],[0.4979166666666667,0.5037037037037037],[0.4979166666666667,0.5055555555555555],[0.4979166666666667,0.5074074074074074],[0.4979166666666667,0.5074074074074074],[0.4979166666666667,0.5074074074074074],[0.4979166666666667,0.5074074074074074],[0.4979166666666667,0.5074074074074074],[0.4979166666666667,0.5074074074074074],[0.4979166666666667,0.5074074074074074],[0.4979166666666667,0.5074074074074074],[0.4979166666666667,0.5074074074074074],[0.4979166666666667,0.5074074074074074],[0.4979166666666667,0.5074074074074074],[0.4979166666666667,0.5074074074074074],[0.4979166666666667,0.5074074074074074],[0.4979166666666667,0.5074074074074074],[0.4979166666666667,0.5074074074074074],[0.4979166666666667,0.5074074074074074],[0.4979166666666667,0.5074074074074074],[0.4979166666666667,0.5074074074074074],[0.4979166666666667,0.5074074074074074],[0.4979166666666667,0.5074074074074074],[0.4979166666666667,0.5074074074074074],[0.4979166666666667,0.5074074074074074],[0.4979166666666667,0.5074074074074074],[0.4979166666666667,0.5074074074074074],[0.4979166666666667,0.5074074074074074],[0.4979166666666667,0.5074074074074074],[0.4979166666666667,0.5074074074074074],[0.4979166666666667,0.5074074074074074],[0.4979166666666667,0.5074074074074074],[0.4979166666666667,0.5074074074074074],[0.4979166666666667,0.5074074074074074],[0.4979166666666667,0.5074074074074074],[0.4979166666666667,0.5074074074074074],[0.4979166666666667,0.5074074074074074],[0.4979166666666667,0.5074074074074074],[0.4979166666666667,0.5074074074074074],[0.4979166666666667,0.5074074074074074],[0.4979166666666667,0.5074074074074074],[0.4979166666666667,0.5074074074074074],[0.4979166666666667,0.5074074074074074],[0.4979166666666667,0.5074074074074074],[0.4979166666666667,0.5074074074074074],[0.4979166666666667,0.5074074074074074],[0.4979166666666667,0.5074074074074074],[0.4979166666666667,0.5074074074074074],[0.4979166666666667,0.5074074074074074],[0.4979166666666667,0.5074074074074074],[0.4979166666666667,0.5074074074074074],[0.4979166666666667,0.5074074074074074],[0.4979166666666667,0.5074074074074074],[0.4979166666666667,0.5074074074074074],[0.4979166666666667,0.5074074074074074],[0.4979166666666667,0.5074074074074074],[0.4979166666666667,0.5074074074074074],[0.4979166666666667,0.5074074074074074],[0.4979166666666667,0.5074074074074074],[0.4979166666666667,0.5074074074074074],[0.4979166666666667,0.5074074074074074],[0.4979166666666667,0.5074074074074074],[0.4979166666666667,0.5074074074074074],[0.4979166666666667,0.5074074074074074],[0.4979166666666667,0.5074074074074074],[0.4979166666666667,0.5074074074074074],[0.4979166666666667,0.5074074074074074],[0.4979166666666667,0.5074074074074074],[0.4979166666666667,0.5074074074074074],[0.4979166666666667,0.5074074074074074],[0.4979166666666667,0.5074074074074074],[0.4979166666666667,0.5074074074074074],[0.4979166666666667,0.5074074074074074],[0.4979166666666667,0.5074074074074074],[0.4979166666666667,0.5074074074074074],[0.4979166666666667,0.5074074074074074],[0.4979166666666667,0.5074074074074074],[0.4979166666666667,0.5074074074074074],[0.4979166666666667,0.5074074074074074],[0.4979166666666667,0.5074074074074074],[0.4979166666666667,0.5074074074074074],[0.4979166666666667,0.5074074074074074],[0.4979166666666667,0.5074074074074074],[0.4979166666666667,0.5074074074074074],[0.4979166666666667,0.5074074074074074],[0.4979166666666667,0.5074074074074074],[0.4979166666666667,0.5074074074074074],[0.4979166666666667,0.5074074074074074],[0.4979166666666667,0.5074074074074074],[0.4979166666666667,0.5074074074074074],[0.4979166666666667,0.5074074074074074],[0.4979166666666667,0.5074074074074074],[0.4979166666666667,0.5074074074074074],[0.4979166666666667,0.5074074074074074],[0.4979166666666667,0.5074074074074074],[0.4979166666666667,0.5092592592592593],[0.49375,0.5074074074074074],[0.48541666666666666,0.5018518518518519],[0.4708333333333333,0.49444444444444446],[0.440625,0.48148148148148145],[0.4083333333333333,0.46296296296296297],[0.3875,0.4537037037037037],[0.3645833333333333,0.44074074074074077],[0.3489583333333333,0.43333333333333335],[0.3260416666666667,0.43333333333333335],[0.290625,0.43333333333333335],[0.23333333333333334,0.42962962962962964],[0.16979166666666667,0.42777777777777776],[0.11875,0.42407407407407405],[0.08333333333333333,0.42407407407407405],[0.057291666666666664,0.42407407407407405],[0.0375,0.42407407407407405],[0.034375,0.42407407407407405],[0.034375,0.42407407407407405],[0.034375,0.42407407407407405],[0.03333333333333333,0.42407407407407405],[0.03333333333333333,0.42407407407407405],[0.030208333333333334,0.42777777777777776],[0.029166666666666667,0.43333333333333335],[0.027083333333333334,0.4388888888888889],[0.027083333333333334,0.4444444444444444],[0.027083333333333334,0.4462962962962963],[0.027083333333333334,0.4462962962962963],[0.027083333333333334,0.4462962962962963],[0.027083333333333334,0.4462962962962963],[0.027083333333333334,0.45],[0.027083333333333334,0.45],[0.027083333333333334,0.45],[0.027083333333333334,0.45],[0.027083333333333334,0.45],[0.027083333333333334,0.45],[0.027083333333333334,0.45],[0.027083333333333334,0.45],[0.027083333333333334,0.45],[0.027083333333333334,0.45],[0.027083333333333334,0.45],[0.027083333333333334,0.45],[0.027083333333333334,0.45],[0.027083333333333334,0.45],[0.027083333333333334,0.45],[0.027083333333333334,0.45],[0.027083333333333334,0.45],[0.027083333333333334,0.45],[0.027083333333333334,0.45],[0.027083333333333334,0.45],[0.027083333333333334,0.45],[0.027083333333333334,0.45],[0.027083333333333334,0.45],[0.027083333333333334,0.45],[0.027083333333333334,0.45],[0.027083333333333334,0.45],[0.027083333333333334,0.45],[0.027083333333333334,0.45],[0.027083333333333334,0.45],[0.027083333333333334,0.45],[0.027083333333333334,0.45],[0.027083333333333334,0.45],[0.027083333333333334,0.45],[0.027083333333333334,0.45],[0.027083333333333334,0.45],[0.027083333333333334,0.45],[0.027083333333333334,0.45],[0.027083333333333334,0.45],[0.027083333333333334,0.45185185185185184],[0.027083333333333334,0.45555555555555555],[0.027083333333333334,0.4648148148148148],[0.029166666666666667,0.4777777777777778],[0.030208333333333334,0.48703703703703705],[0.03125,0.49444444444444446],[0.03229166666666667,0.5037037037037037],[0.034375,0.5111111111111111],[0.034375,0.5185185185185185],[0.034375,0.524074074074074],[0.034375,0.5296296296296297],[0.034375,0.5333333333333333],[0.034375,0.5370370370370371],[0.034375,0.5425925925925926],[0.034375,0.5462962962962963],[0.034375,0.5481481481481482],[0.034375,0.5518518518518518],[0.034375,0.5518518518518518],[0.034375,0.5518518518518518],[0.034375,0.5518518518518518],[0.034375,0.5537037037037037],[0.034375,0.5537037037037037],[0.03333333333333333,0.5555555555555556],[0.029166666666666667,0.5555555555555556],[0.023958333333333335,0.5555555555555556],[0.015625,0.5555555555555556],[0.007291666666666667,0.5555555555555556],[0,0.5555555555555556],[-0.008333333333333333,0.5555555555555556],[-0.022916666666666665,0.5555555555555556],[-0.030208333333333334,0.5555555555555556],[-0.03125,0.5555555555555556]]","[[0.06770833333333333,0.5307407407407407],[0.06770833333333333,0.5307407407407407],[0.07270833333333329,0.5122222222222222],[0.07770833333333324,0.49370370370370376],[0.07374999999999995,0.5294444444444444],[0.07010416666666662,0.544074074074074],[0.07697916666666677,0.5487037037037036],[0.09166666666666666,0.5520370370370371],[0.09666666666666662,0.5512962962962964],[0.10208333333333333,0.5464814814814816],[0.1099999999999999,0.5298148148148148],[0.1196875000000001,0.48555555555555563],[0.11395833333333343,0.46518518518518526],[0.10822916666666677,0.4448148148148149],[0.10197916666666676,0.4361111111111111],[0.09541666666666657,0.4485185185185186],[0.1009375000000001,0.41999999999999993],[0.09864583333333338,0.39277777777777784],[0.09854166666666657,0.3801851851851851],[0.0984375,0.3675925925925926],[0.09197916666666663,0.3531481481481482],[0.08375000000000009,0.36629629629629623],[0.08718750000000004,0.40796296296296286],[0.09520833333333342,0.40777777777777785],[0.10947916666666657,0.405925925925926],[0.12374999999999996,0.40407407407407414],[0.11239583333333343,0.34685185185185174],[0.10104166666666667,0.28962962962962957],[0.10187499999999995,0.29370370370370374],[0.10270833333333323,0.2977777777777777],[0.10510416666666676,0.30388888888888893],[0.1068749999999999,0.25333333333333324],[0.12666666666666657,0.19092592592592597],[0.13229166666666667,0.16666666666666666],[0.12177083333333343,0.09703703703703699],[0.11124999999999995,0.027407407407407325],[0.11916666666666677,0.027777777777777776],[0.12135416666666667,0.018148148148148063],[0.1209374999999999,-0.0992592592592593],[0.12052083333333338,-0.21666666666666667],[0.11520833333333323,-0.27],[0.10708333333333328,-0.2490740740740741],[0.09104166666666676,-0.27166666666666667],[0.08458333333333339,-0.2905555555555555],[0.09572916666666677,-0.3044444444444444],[0.09572916666666677,-0.3044444444444444],[0.096875,-0.327962962962963],[0.07947916666666661,-0.3453703703703704],[0.08072916666666667,-0.38481481481481483],[0.08354166666666671,-0.355],[0.06687500000000005,-0.3124074074074074],[0.06614583333333333,-0.33648148148148144],[0.022708333333333285,-0.325],[0.022708333333333285,-0.325],[-0.024374999999999977,-0.29518518518518516],[-0.06958333333333329,-0.22851851851851848],[-0.12708333333333333,-0.14740740740740746],[-0.17093750000000002,-0.0809259259259259],[-0.17093750000000002,-0.0809259259259259],[-0.19489583333333335,-0.006111111111111027],[-0.23270833333333332,0.10685185185185193],[-0.27802083333333333,0.202962962962963],[-0.3134375,0.28425925925925927],[-0.35989583333333336,0.36814814814814806],[-0.36291666666666667,0.4162962962962962],[-0.3679166666666667,0.4637037037037037],[-0.37614583333333335,0.44888888888888884],[-0.38312499999999994,0.4292592592592592],[-0.3923958333333334,0.41462962962962957],[-0.3923958333333334,0.41462962962962957],[-0.4063541666666667,0.365925925925926],[-0.43156249999999996,0.3520370370370371],[-0.4509375,0.3494444444444445],[-0.46072916666666663,0.34888888888888886],[-0.45291666666666663,0.32166666666666677],[-0.4467708333333333,0.2572222222222222],[-0.43687499999999996,0.22111111111111106],[-0.42562500000000003,0.2103703703703704],[-0.41781250000000003,0.18425925925925926],[-0.41135416666666663,0.17740740740740732],[-0.4101041666666667,0.2198148148148149],[-0.39812500000000006,0.19166666666666668],[-0.38010416666666663,0.1655555555555555],[-0.36208333333333337,0.13944444444444437],[-0.3640625,0.17296296296296293],[-0.3571875,0.21851851851851853],[-0.34885416666666663,0.25999999999999995],[-0.34885416666666663,0.25999999999999995],[-0.33916666666666667,0.30333333333333323],[-0.33916666666666667,0.30333333333333323],[-0.33791666666666664,0.32166666666666677],[-0.33791666666666664,0.32166666666666677],[-0.34354166666666663,0.3677777777777778],[-0.34354166666666663,0.3677777777777778],[-0.3320833333333333,0.39537037037037037],[-0.33177083333333335,0.4681481481481481],[-0.33177083333333335,0.4681481481481481],[-0.3373958333333333,0.48629629629629634],[-0.3373958333333333,0.48629629629629634],[-0.3188541666666667,0.4711111111111111],[-0.2811458333333333,0.4618518518518518],[-0.25906250000000003,0.4427777777777778],[-0.2273958333333333,0.3983333333333334],[-0.20020833333333338,0.3714814814814815],[-0.15229166666666671,0.3698148148148149],[-0.09750000000000002,0.34037037037037027],[-0.06447916666666664,0.3322222222222222],[-0.035208333333333286,0.26962962962962966],[0.010000000000000024,0.2698148148148149],[0.03104166666666662,0.30333333333333323],[0.03916666666666669,0.3290740740740742],[0.058437500000000024,0.37240740740740746],[0.06145833333333333,0.37888888888888894],[0.07249999999999991,0.3790740740740742],[0.06666666666666667,0.38555555555555565],[0.07104166666666671,0.4074074074074074],[0.0875,0.3983333333333334],[0.1203125,0.4281481481481482],[0.13947916666666677,0.45444444444444443],[0.13947916666666677,0.45444444444444443],[0.14833333333333343,0.4612962962962963],[0.1662499999999999,0.4527777777777778],[0.19729166666666675,0.39148148148148143],[0.2419791666666666,0.39000000000000007],[0.2846874999999999,0.33851851851851844],[0.33541666666666664,0.2959259259259258],[0.3818749999999999,0.27018518518518514],[0.4248958333333334,0.24814814814814815],[0.4799999999999999,0.21388888888888888],[0.526875,0.16166666666666657],[0.5784374999999999,0.12851851851851848],[0.6114583333333333,0.0625925925925925],[0.626875,0.07148148148148152],[0.6320833333333333,0.05925925925925926],[0.6452083333333334,0.08833333333333342],[0.6443749999999999,0.1300000000000001],[0.6483333333333334,0.11481481481481481],[0.6708333333333333,0.08777777777777773],[0.6660416666666668,0.09388888888888898],[0.6601041666666667,0.08425925925925926],[0.6669791666666666,0.075],[0.6794791666666666,0.08277777777777787],[0.6778125,0.044999999999999915],[0.6826041666666666,0.020185185185185143],[0.6793750000000001,-0.01314814814814819],[0.6901041666666666,-0.05907407407407403],[0.6973958333333333,-0.08074074074074078],[0.6865624999999999,-0.10018518518518522],[0.6969791666666666,-0.13703703703703704],[0.7056250000000001,-0.1359259259259259],[0.7063541666666666,-0.12314814814814815],[0.7169791666666666,-0.13240740740740742],[0.7371875,-0.11703703703703702],[0.7509375000000001,-0.11462962962962958],[0.7212500000000001,-0.09055555555555551],[0.6915625000000001,-0.06648148148148143],[0.6315624999999999,-0.046481481481481526],[0.5705208333333334,0.006296296296296254],[0.5030208333333335,0.07037037037037037],[0.4383333333333333,0.08092592592592601],[0.3779166666666666,0.10833333333333334],[0.3076041666666666,0.15777777777777785],[0.24500000000000005,0.19740740740740745],[0.1805208333333333,0.2294444444444444],[0.1580208333333334,0.2518518518518518],[0.13541666666666666,0.259074074074074],[0.13802083333333334,0.28722222222222227],[0.1412499999999999,0.29222222222222216],[0.14458333333333329,0.2614814814814816],[0.14802083333333324,0.262037037037037],[0.1622916666666666,0.2716666666666668],[0.1765625,0.28129629629629627],[0.2109375,0.2881481481481482],[0.24718749999999995,0.3025925925925925],[0.28145833333333337,0.2777777777777778],[0.28145833333333337,0.2777777777777778],[0.31583333333333335,0.2681481481481481],[0.3411458333333333,0.24462962962962967],[0.36864583333333345,0.23833333333333342],[0.39645833333333325,0.252962962962963],[0.4382291666666667,0.22166666666666676],[0.4508333333333333,0.16703703703703712],[0.48552083333333323,0.08555555555555563],[0.5014583333333335,0.015555555555555513],[0.5245833333333333,-0.0011111111111111532],[0.5483333333333335,0.013518518518518435],[0.5692708333333333,0.009814814814814731],[0.5970833333333334,0.0035185185185184764],[0.6046875,-0.013888888888888888],[0.614375,-0.04944444444444453],[0.620625,-0.018518518518518517],[0.6260416666666667,-0.004814814814814857],[0.6180208333333332,0.04685185185185177],[0.6122916666666666,0.08333333333333333],[0.6005208333333333,0.08944444444444435],[0.578125,0.0764814814814814],[0.5609375,0.1014814814814814],[0.55,0.1479629629629629],[0.5765625,0.17222222222222222],[0.57625,0.19018518518518526],[0.5565625,0.19592592592592584],[0.5525000000000001,0.20462962962962963],[0.540625,0.17703703703703708],[0.540625,0.17703703703703708],[0.5264583333333335,0.1646296296296296],[0.5,0.14129629629629623],[0.5111458333333334,0.1259259259259259],[0.5111458333333334,0.1259259259259259],[0.5011458333333333,0.09444444444444444],[0.5011458333333333,0.09444444444444444],[0.4939583333333334,0.05648148148148148],[0.4939583333333334,0.05648148148148148],[0.45187499999999997,0.029814814814814856],[0.4522916666666667,0.03129629629629625],[0.4522916666666667,0.03129629629629625],[0.5006249999999999,0.017407407407407365],[0.5241666666666667,0.01592592592592597],[0.546875,0.02907407407407416],[0.546875,0.02907407407407416],[0.5722916666666668,0.04351851851851852],[0.6099999999999999,0.04462962962962967],[0.6207291666666668,0.05685185185185194],[0.6626041666666665,0.0448148148148149],[0.6954166666666666,0.01777777777777782],[0.7554166666666667,-0.022037037037036994],[0.7554166666666667,-0.022037037037036994],[0.7977083333333332,-0.06555555555555552],[0.7861458333333334,-0.06444444444444447],[0.7920833333333335,-0.09444444444444444],[0.7980208333333333,-0.11388888888888889],[0.7981250000000001,-0.14092592592592595],[0.78125,-0.14666666666666664],[0.7795833333333334,-0.16259259259259262],[0.7655208333333334,-0.15777777777777777],[0.7330208333333333,-0.127962962962963],[0.7330208333333333,-0.127962962962963],[0.7032291666666666,-0.13907407407407413],[0.6657291666666666,-0.12462962962962965],[0.6435416666666666,-0.15962962962962962],[0.6310416666666666,-0.16574074074074074],[0.6036458333333333,-0.16222222222222227],[0.5793750000000001,-0.15240740740740744],[0.5870833333333333,-0.17314814814814813],[0.5795833333333335,-0.18370370370370367],[0.5771874999999999,-0.19388888888888886],[0.5717708333333335,-0.21277777777777773],[0.5626041666666666,-0.18222222222222217],[0.5504166666666668,-0.16814814814814816],[0.5377083333333333,-0.14222222222222225],[0.5282291666666665,-0.16666666666666666],[0.5299999999999999,-0.18518518518518517],[0.5338541666666666,-0.21703703703703703],[0.46197916666666666,-0.19240740740740736],[0.38479166666666675,-0.14666666666666664],[0.29145833333333326,-0.09111111111111109],[0.21208333333333323,-0.043703703703703745],[0.16770833333333332,-0.06444444444444447],[0.17114583333333327,-0.12814814814814812],[0.0974999999999999,-0.11240740740740739],[0.018229166666666668,-0.05648148148148148],[-0.01427083333333338,-0.05814814814814811],[-0.04885416666666664,-0.046481481481481526],[-0.02166666666666662,-0.0809259259259259],[0.043124999999999976,-0.15388888888888894],[0.06489583333333329,-0.22388888888888886],[0.09416666666666676,-0.3020370370370371],[0.0890625,-0.2807407407407408],[0.0890625,-0.2807407407407408],[0.09822916666666662,-0.272037037037037],[0.18562500000000004,-0.33851851851851855],[0.24718749999999995,-0.4172222222222222],[0.265625,-0.45388888888888895],[0.28406250000000005,-0.4905555555555555],[0.27666666666666656,-0.5081481481481481],[0.1877083333333334,-0.4690740740740741],[0.1881249999999999,-0.45851851851851855],[0.20083333333333328,-0.46166666666666667],[0.2021874999999999,-0.48703703703703705],[0.1337500000000001,-0.4346296296296296],[0.06416666666666669,-0.3864814814814815],[0.034687499999999954,-0.30648148148148147],[0.00916666666666662,-0.2727777777777778],[-0.004270833333333357,-0.23166666666666672],[0.019791666666666666,-0.21185185185185182],[0.07927083333333323,-0.21592592592592597],[0.10343749999999995,-0.20462962962962963],[0.1267708333333334,-0.17037037037037037],[0.1267708333333334,-0.17037037037037037],[0.16177083333333328,-0.13277777777777774],[0.16177083333333328,-0.13277777777777774],[0.2033333333333334,-0.13962962962962958],[0.24489583333333323,-0.14592592592592596],[0.26104166666666656,-0.16944444444444445],[0.27322916666666663,-0.14666666666666664],[0.27468750000000003,-0.11425925925925924],[0.2627083333333334,-0.07999999999999997],[0.26458333333333334,-0.06111111111111111],[0.2730208333333332,-0.04981481481481477],[0.240625,-0.015555555555555513],[0.20125000000000004,-0.027407407407407325],[0.1953125,-0.006296296296296254],[0.18937499999999996,0.014259259259259343],[0.20968749999999994,0.004814814814814857],[0.1696875000000001,0.09574074074074082],[0.13916666666666658,0.09666666666666675],[0.1330208333333334,0.12611111111111115],[0.13812499999999991,0.1368518518518518],[0.19104166666666675,0.13574074074074066],[0.23958333333333334,0.14055555555555552],[0.28312499999999996,0.19000000000000003],[0.3129166666666668,0.1824074074074074],[0.38343749999999993,0.10796296296296289],[0.4201041666666666,0.1264814814814814],[0.5170833333333335,0.04462962962962967],[0.5740624999999999,0.07740740740740733],[0.60625,0.08222222222222218],[0.6169791666666666,0.10925925925925926],[0.5733333333333335,0.1557407407407408],[0.5826041666666666,0.15925925925925927],[0.5619791666666667,0.17240740740740745],[0.55125,0.18870370370370365],[0.49979166666666663,0.2718518518518518],[0.47718749999999993,0.2837037037037038],[0.4410416666666668,0.30907407407407406],[0.42374999999999996,0.29611111111111105],[0.40645833333333337,0.2831481481481481],[0.38520833333333326,0.297037037037037],[0.38520833333333326,0.297037037037037],[0.40635416666666657,0.2727777777777777],[0.40635416666666657,0.2727777777777777],[0.41260416666666655,0.2579629629629629],[0.41260416666666655,0.2579629629629629],[0.4344791666666666,0.24648148148148152],[0.4344791666666666,0.24648148148148152],[0.46062500000000006,0.2368518518518518],[0.465625,0.2448148148148149],[0.465625,0.2448148148148149],[0.46864583333333343,0.24870370370370362],[0.46864583333333343,0.24870370370370362],[0.4783333333333334,0.2272222222222223],[0.49802083333333325,0.20388888888888893],[0.5177083333333333,0.18055555555555555],[0.5456249999999999,0.12037037037037036],[0.5311458333333334,0.09833333333333337],[0.5222916666666667,0.06944444444444445],[0.5280208333333334,0.0257407407407407],[0.5113541666666668,0.017407407407407365],[0.5158333333333334,-0.00851851851851856],[0.5069791666666668,-0.045740740740740825],[0.5138541666666666,-0.05407407407407405],[0.5162499999999999,-0.07611111111111116],[0.5186458333333335,-0.09814814814814815],[0.5444791666666667,-0.08592592592592588],[0.5703125,-0.07370370370370373],[0.5694791666666668,-0.07018518518518514],[0.5686458333333334,-0.06666666666666667],[0.5777083333333333,-0.07370370370370373],[0.5966666666666666,-0.09851851851851849],[0.6144791666666668,-0.10055555555555558],[0.6234375,-0.11962962962962967],[0.6471874999999999,-0.1411111111111111],[0.6440625,-0.17240740740740745],[0.5998958333333334,-0.20166666666666663],[0.5557291666666667,-0.2309259259259259],[0.5121875,-0.28129629629629627],[0.46864583333333343,-0.3316666666666667],[0.4136458333333332,-0.3683333333333333],[0.34874999999999995,-0.38722222222222225],[0.31906249999999997,-0.4148148148148148],[0.28937499999999994,-0.44240740740740736],[0.24260416666666676,-0.46277777777777773],[0.221875,-0.4553703703703703],[0.22197916666666656,-0.49240740740740735],[0.20520833333333333,-0.5120370370370371],[0.22958333333333342,-0.5383333333333333],[0.24541666666666656,-0.5601851851851852],[0.2638541666666666,-0.5718518518518518],[0.26583333333333337,-0.5796296296296296],[0.24958333333333324,-0.6124074074074074],[0.21593749999999995,-0.5816666666666667],[0.2078125,-0.6187037037037038],[0.2078125,-0.6187037037037038],[0.1820833333333333,-0.6177777777777779],[0.17531249999999995,-0.6072222222222222],[0.18218750000000009,-0.6046296296296296],[0.15958333333333338,-0.5811111111111111],[0.14104166666666676,-0.5592592592592592],[0.121875,-0.553888888888889],[0.11822916666666666,-0.5431481481481482],[0.10395833333333329,-0.5001851851851852],[0.109375,-0.49962962962962965],[0.09031250000000005,-0.44611111111111107],[0.08895833333333343,-0.4487037037037037],[0.07135416666666666,-0.4462962962962963],[0.05145833333333331,-0.4594444444444445],[0.03604166666666669,-0.45481481481481484],[0.034375,-0.42296296296296293],[0.030312500000000023,-0.41351851851851856],[0.019895833333333356,-0.4046296296296296],[0.00947916666666669,-0.3957407407407407],[-0.0021875000000000236,-0.44000000000000006],[-0.0078125,-0.462037037037037],[-0.0016666666666666904,-0.45740740740740743],[-0.004062499999999977,-0.4551851851851852],[0.0009374999999999763,-0.4655555555555555],[0.005937500000000048,-0.4759259259259259],[0.01583333333333338,-0.4844444444444445],[0.028125,-0.4705555555555556],[0.04489583333333336,-0.47240740740740744],[0.0640625,-0.45333333333333337],[0.0859375,-0.4166666666666667],[0.1078125,-0.38],[0.103125,-0.3653703703703704],[0.10697916666666671,-0.3483333333333334],[0.10802083333333339,-0.32685185185185184],[0.10906250000000005,-0.30537037037037035],[0.10906250000000005,-0.30537037037037035],[0.10322916666666657,-0.32685185185185184],[0.08812499999999991,-0.33499999999999996],[0.07583333333333328,-0.33611111111111114],[0.050937499999999976,-0.34740740740740744],[0.024895833333333308,-0.3440740740740741],[0.014895833333333285,-0.37351851851851847],[0.02041666666666669,-0.4074074074074074],[0.03260416666666662,-0.3846296296296296],[0.04572916666666664,-0.34759259259259256],[0.040625,-0.28833333333333333],[0.02822916666666669,-0.21796296296296294],[0.03208333333333328,-0.21129629629629634],[0.03250000000000005,-0.1977777777777778],[0.036562500000000026,-0.14666666666666664],[0.041562499999999974,-0.0962962962962963],[0.042604166666666644,-0.06888888888888887],[0.035000000000000024,-0.07240740740740745],[0.016250000000000025,-0.125],[-0.002499999999999976,-0.17759259259259255],[0.0005208333333333333,-0.22666666666666663],[0.004062499999999977,-0.2766666666666666],[0.004791666666666691,-0.29388888888888887],[0.008958333333333356,-0.31796296296296295],[0.01427083333333338,-0.3890740740740741],[0.016145833333333335,-0.46148148148148144],[0.019270833333333334,-0.4740740740740741],[0.021458333333333357,-0.462037037037037],[0.025,-0.4427777777777778],[0.03302083333333338,-0.4433333333333333],[0.03093750000000005,-0.4705555555555556],[0.03093750000000005,-0.4705555555555556],[0.02833333333333338,-0.5124074074074074],[0.02833333333333338,-0.5124074074074074],[0.029270833333333357,-0.49314814814814817],[0.029270833333333357,-0.49314814814814817],[0.022291666666666644,-0.4903703703703704],[0.022291666666666644,-0.4903703703703704],[0.02687499999999995,-0.48111111111111116],[0.02687499999999995,-0.48111111111111116],[0.029895833333333382,-0.5162962962962964],[0.018437500000000048,-0.5503703703703704],[0.024895833333333308,-0.5703703703703704],[0.03447916666666669,-0.6051851851851852]]","[[0.06770833333333333,0.5307407407407407,0.00020000000297670795],[0.06770833333333333,0.5307407407407407,0.03630000000445932],[0.07270833333333329,0.5122222222222222,0.04810000000148307],[0.07770833333333324,0.49370370370370376,0.0646000000014908],[0.07374999999999995,0.5294444444444444,0.08080000000445864],[0.07010416666666662,0.544074074074074,0.09550000000000125],[0.07697916666666677,0.5487037037037036,0.11670000000297875],[0.09166666666666666,0.5520370370370371,0.1319999999999908],[0.09666666666666662,0.5512962962962964,0.14710000000148682],[0.10208333333333333,0.5464814814814816,0.1623000000044641],[0.1099999999999999,0.5298148148148148,0.18180000000447194],[0.1196875000000001,0.48555555555555563,0.1954000000059608],[0.11395833333333343,0.46518518518518526,0.21230000000446125],[0.10822916666666677,0.4448148148148149,0.22880000000446898],[0.10197916666666676,0.4361111111111111,0.24549999999999272],[0.09541666666666657,0.4485185185185186,0.26249999999998863],[0.1009375000000001,0.41999999999999993,0.27880000000446614],[0.09864583333333338,0.39277777777777784,0.2954999999999899],[0.09854166666666657,0.3801851851851851,0.31210000000147886],[0.0984375,0.3675925925925926,0.3288000000044633],[0.09197916666666663,0.3531481481481482,0.34550000000000125],[0.08375000000000009,0.36629629629629623,0.365700000002974],[0.08718750000000004,0.40796296296296286,0.38070000000297455],[0.09520833333333342,0.40777777777777785,0.39540000000594944],[0.10947916666666657,0.405925925925926,0.41220000000296864],[0.12374999999999996,0.40407407407407414,0.42870000000297637],[0.11239583333333343,0.34685185185185174,0.44549999999999557],[0.10104166666666667,0.28962962962962957,0.46220000000298],[0.10187499999999995,0.29370370370370374,0.478800000004469],[0.10270833333333323,0.2977777777777777,0.4954999999999927],[0.10510416666666676,0.30388888888888893,0.5122000000029772],[0.1068749999999999,0.25333333333333324,0.5288000000044661],[0.12666666666666657,0.19092592592592597,0.5491000000014878],[0.13229166666666667,0.16666666666666666,0.5654000000059511],[0.12177083333333343,0.09703703703703699,0.5811000000014843],[0.11124999999999995,0.027407407407407325,0.5955000000000013],[0.11916666666666677,0.027777777777777776,0.6121000000014902],[0.12135416666666667,0.018148148148148063,0.6289000000059559],[0.1209374999999999,-0.0992592592592593,0.6454000000059494],[0.12052083333333338,-0.21666666666666667,0.6621000000014874],[0.11520833333333323,-0.27,0.6788000000044718],[0.10708333333333328,-0.2490740740740741,0.6954999999999956],[0.09104166666666676,-0.27166666666666667,0.7121000000014845],[0.08458333333333339,-0.2905555555555555,0.728800000004469],[0.09572916666666677,-0.3044444444444444,0.7454999999999927],[0.09572916666666677,-0.3044444444444444,0.7622000000029772],[0.096875,-0.327962962962963,0.7788000000044661],[0.07947916666666661,-0.3453703703703704,0.7954999999999899],[0.08072916666666667,-0.38481481481481483,0.8121000000014789],[0.08354166666666671,-0.355,0.8288000000044633],[0.06687500000000005,-0.3124074074074074,0.8489000000059548],[0.06614583333333333,-0.33648148148148144,0.8644000000059577],[0.022708333333333285,-0.325,0.882300000004463],[0.022708333333333285,-0.325,0.896499999999989],[-0.024374999999999977,-0.29518518518518516,0.9121000000014874],[-0.06958333333333329,-0.22851851851851848,0.9288000000044718],[-0.12708333333333333,-0.14740740740740746,0.9454000000059608],[-0.17093750000000002,-0.0809259259259259,0.96220000000298],[-0.17093750000000002,-0.0809259259259259,0.978800000004469],[-0.19489583333333335,-0.006111111111111027,0.9954999999999927],[-0.23270833333333332,0.10685185185185193,1.0121000000014817],[-0.27802083333333333,0.202962962962963,1.0288000000044661],[-0.3134375,0.28425925925925927,1.0454999999999899],[-0.35989583333333336,0.36814814814814806,1.0621000000014789],[-0.36291666666666667,0.4162962962962962,1.0788000000044633],[-0.3679166666666667,0.4637037037037037,1.0955000000000013],[-0.37614583333333335,0.44888888888888884,1.1121000000014902],[-0.38312499999999994,0.4292592592592592,1.1288000000044605],[-0.3923958333333334,0.41462962962962957,1.1454000000059494],[-0.3923958333333334,0.41462962962962957,1.1621000000014874],[-0.4063541666666667,0.365925925925926,1.1788000000044718],[-0.43156249999999996,0.3520370370370371,1.1954999999999956],[-0.4509375,0.3494444444444445,1.21220000000298],[-0.46072916666666663,0.34888888888888886,1.228800000004469],[-0.45291666666666663,0.32166666666666677,1.2454999999999927],[-0.4467708333333333,0.2572222222222222,1.2634000000059586],[-0.43687499999999996,0.22111111111111106,1.2788000000044661],[-0.42562500000000003,0.2103703703703704,1.2954999999999899],[-0.41781250000000003,0.18425925925925926,1.3121000000014789],[-0.41135416666666663,0.17740740740740732,1.3288000000044633],[-0.4101041666666667,0.2198148148148149,1.3455000000000013],[-0.39812500000000006,0.19166666666666668,1.3622000000029715],[-0.38010416666666663,0.1655555555555555,1.3799000000059607],[-0.36208333333333337,0.13944444444444437,1.3954999999999984],[-0.3640625,0.17296296296296293,1.4122000000029686],[-0.3571875,0.21851851851851853,1.4288000000044718],[-0.34885416666666663,0.25999999999999995,1.4454000000059608],[-0.34885416666666663,0.25999999999999995,1.4621000000014845],[-0.33916666666666667,0.30333333333333323,1.478800000004469],[-0.33916666666666667,0.30333333333333323,1.4954999999999927],[-0.33791666666666664,0.32166666666666677,1.5122000000029772],[-0.33791666666666664,0.32166666666666677,1.5288000000044661],[-0.34354166666666663,0.3677777777777778,1.5454999999999899],[-0.34354166666666663,0.3677777777777778,1.5622000000029743],[-0.3320833333333333,0.39537037037037037,1.5788000000044633],[-0.33177083333333335,0.4681481481481481,1.5981000000014802],[-0.33177083333333335,0.4681481481481481,1.6121000000014902],[-0.3373958333333333,0.48629629629629634,1.6288000000044605],[-0.3373958333333333,0.48629629629629634,1.6454999999999984],[-0.3188541666666667,0.4711111111111111,1.6622000000029686],[-0.2811458333333333,0.4618518518518518,1.6788000000044718],[-0.25906250000000003,0.4427777777777778,1.6954999999999956],[-0.2273958333333333,0.3983333333333334,1.7123000000044613],[-0.20020833333333338,0.3714814814814815,1.728800000004469],[-0.15229166666666671,0.3698148148148149,1.7454999999999927],[-0.09750000000000002,0.34037037037037027,1.7622000000029772],[-0.06447916666666664,0.3322222222222222,1.7819999999999965],[-0.035208333333333286,0.26962962962962966,1.7978000000044716],[0.010000000000000024,0.2698148148148149,1.8133000000044603],[0.03104166666666662,0.30333333333333323,1.8288000000044633],[0.03916666666666669,0.3290740740740742,1.8455000000000013],[0.058437500000000024,0.37240740740740746,1.8621000000014902],[0.06145833333333333,0.37888888888888894,1.8799000000059607],[0.07249999999999991,0.3790740740740742,1.8954999999999984],[0.06666666666666667,0.38555555555555565,1.9122000000029686],[0.07104166666666671,0.4074074074074074,1.9288000000044718],[0.0875,0.3983333333333334,1.9454999999999956],[0.1203125,0.4281481481481482,1.96220000000298],[0.13947916666666677,0.45444444444444443,1.9787000000029735],[0.13947916666666677,0.45444444444444443,1.9954999999999927],[0.14833333333333343,0.4612962962962963,2.012200000002977],[0.1662499999999999,0.4527777777777778,2.028800000004466],[0.19729166666666675,0.39148148148148143,2.045400000005955],[0.2419791666666666,0.39000000000000007,2.0641000000014884],[0.2846874999999999,0.33851851851851844,2.0788000000044633],[0.33541666666666664,0.2959259259259258,2.0956000000014825],[0.3818749999999999,0.27018518518518514,2.1121000000014902],[0.4248958333333334,0.24814814814814815,2.128700000002979],[0.4799999999999999,0.21388888888888888,2.145700000002975],[0.526875,0.16166666666666657,2.1622000000029686],[0.5784374999999999,0.12851851851851848,2.178800000004472],[0.6114583333333333,0.0625925925925925,2.1957000000029723],[0.626875,0.07148148148148152,2.214999999999989],[0.6320833333333333,0.05925925925925926,2.2291000000014805],[0.6452083333333334,0.08833333333333342,2.245400000005958],[0.6443749999999999,0.1300000000000001,2.262800000004461],[0.6483333333333334,0.11481481481481481,2.278800000004466],[0.6708333333333333,0.08777777777777773,2.29549999999999],[0.6660416666666668,0.09388888888888898,2.312100000001479],[0.6601041666666667,0.08425925925925926,2.3288000000044633],[0.6669791666666666,0.075,2.3454000000059523],[0.6794791666666666,0.08277777777777787,2.3622000000029715],[0.6778125,0.044999999999999915,2.378900000005956],[0.6826041666666666,0.020185185185185143,2.3954999999999984],[0.6793750000000001,-0.01314814814814819,2.413300000004469],[0.6901041666666666,-0.05907407407407403,2.428800000004472],[0.6973958333333333,-0.08074074074074078,2.4457000000029723],[0.6865624999999999,-0.10018518518518522,2.4621000000014845],[0.6969791666666666,-0.13703703703703704,2.4787000000029735],[0.7056250000000001,-0.1359259259259259,2.4954999999999927],[0.7063541666666666,-0.12314814814814815,2.5121000000014817],[0.7169791666666666,-0.13240740740740742,2.528800000004466],[0.7371875,-0.11703703703703702,2.547700000002976],[0.7509375000000001,-0.11462962962962958,2.564300000004465],[0.7212500000000001,-0.09055555555555551,2.5788000000044633],[0.6915625000000001,-0.06648148148148143,2.5954000000059523],[0.6315624999999999,-0.046481481481481526,2.61399999999999],[0.5705208333333334,0.006296296296296254,2.6288000000044605],[0.5030208333333335,0.07037037037037037,2.6454999999999984],[0.4383333333333333,0.08092592592592601,2.6622000000029686],[0.3779166666666666,0.10833333333333334,2.680499999999995],[0.3076041666666666,0.15777777777777785,2.695400000005961],[0.24500000000000005,0.19740740740740745,2.7121000000014845],[0.1805208333333333,0.2294444444444444,2.731499999999997],[0.1580208333333334,0.2518518518518518,2.747],[0.13541666666666666,0.259074074074074,2.767300000004468],[0.13802083333333334,0.28722222222222227,2.782499999999999],[0.1412499999999999,0.29222222222222216,2.7974000000059505],[0.14458333333333329,0.2614814814814816,2.81230000000447],[0.14802083333333324,0.262037037037037,2.8316000000014867],[0.1622916666666666,0.2716666666666668,2.8469000000059594],[0.1765625,0.28129629629629627,2.863100000001481],[0.2109375,0.2881481481481482,2.878900000005956],[0.24718749999999995,0.3025925925925925,2.899300000004459],[0.28145833333333337,0.2777777777777778,2.915300000004464],[0.28145833333333337,0.2777777777777778,2.928999999999988],[0.31583333333333335,0.2681481481481481,2.945600000001491],[0.3411458333333333,0.24462962962962967,2.96220000000298],[0.36864583333333345,0.23833333333333342,2.978800000004469],[0.39645833333333325,0.252962962962963,2.9986000000014883],[0.4382291666666667,0.22166666666666676,3.012800000004461],[0.4508333333333333,0.16703703703703712,3.0287000000029636],[0.48552083333333323,0.08555555555555563,3.045400000005948],[0.5014583333333335,0.015555555555555513,3.0649999999999906],[0.5245833333333333,-0.0011111111111111532,3.0804999999999936],[0.5483333333333335,0.013518518518518435,3.095499999999994],[0.5692708333333333,0.009814814814814731,3.11230000000446],[0.5970833333333334,0.0035185185185184764,3.1322000000029746],[0.6046875,-0.013888888888888888,3.1471000000014797],[0.614375,-0.04944444444444453,3.162300000004457],[0.620625,-0.018518518518518517,3.1828000000044554],[0.6260416666666667,-0.004814814814814857,3.1979000000059514],[0.6180208333333332,0.04685185185185177,3.213499999999989],[0.6122916666666666,0.08333333333333333,3.228999999999992],[0.6005208333333333,0.08944444444444435,3.249900000005944],[0.578125,0.0764814814814814,3.2659000000059493],[0.5609375,0.1014814814814814,3.28110000000148],[0.55,0.1479629629629629,3.2956000000014782],[0.5765625,0.17222222222222222,3.3144000000059535],[0.57625,0.19018518518518526,3.3289000000059517],[0.5565625,0.19592592592592584,3.3473000000044593],[0.5525000000000001,0.20462962962962963,3.3659999999999926],[0.540625,0.17703703703703708,3.381300000004451],[0.540625,0.17703703703703708,3.3954000000059423],[0.5264583333333335,0.1646296296296296,3.4121000000014803],[0.5,0.14129629629629623,3.4287000000029693],[0.5111458333333334,0.1259259259259259,3.445600000001484],[0.5111458333333334,0.1259259259259259,3.462200000002973],[0.5011458333333333,0.09444444444444444,3.478900000005943],[0.5011458333333333,0.09444444444444444,3.495400000005951],[0.4939583333333334,0.05648148148148148,3.51220000000297],[0.4939583333333334,0.05648148148148148,3.528800000004459],[0.45187499999999997,0.029814814814814856,3.5456000000014782],[0.4522916666666667,0.03129629629629625,3.566999999999986],[0.4522916666666667,0.03129629629629625,3.578800000004456],[0.5006249999999999,0.017407407407407365,3.595499999999994],[0.5241666666666667,0.01592592592592597,3.6178000000044577],[0.546875,0.02907407407407416,3.633499999999991],[0.546875,0.02907407407407416,3.6456000000014726],[0.5722916666666668,0.04351851851851852,3.6621000000014803],[0.6099999999999999,0.04462962962962967,3.680400000005953],[0.6207291666666668,0.05685185185185194,3.6988000000044607],[0.6626041666666665,0.0448148148148149,3.713300000004459],[0.6954166666666666,0.01777777777777782,3.7287000000029664],[0.7554166666666667,-0.022037037037036994,3.747400000005946],[0.7554166666666667,-0.022037037037036994,3.76220000000297],[0.7977083333333332,-0.06555555555555552,3.7789000000059545],[0.7861458333333334,-0.06444444444444447,3.7989000000059505],[0.7920833333333335,-0.09444444444444444,3.8134999999999835],[0.7980208333333333,-0.11388888888888889,3.8319000000059518],[0.7981250000000001,-0.14092592592592595,3.849800000004457],[0.78125,-0.14666666666666664,3.864900000005953],[0.7795833333333334,-0.16259259259259262,3.878900000005949],[0.7655208333333334,-0.15777777777777777,3.8956000000014726],[0.7330208333333333,-0.127962962962963,3.9154999999999873],[0.7330208333333333,-0.127962962962963,3.9289999999999807],[0.7032291666666666,-0.13907407407407413,3.945700000002965],[0.6657291666666666,-0.12462962962962965,3.9679000000059474],[0.6435416666666666,-0.15962962962962962,3.9824999999999946],[0.6310416666666666,-0.16574074074074074,3.9972000000029695],[0.6036458333333333,-0.16222222222222227,4.012300000004451],[0.5793750000000001,-0.15240740740740744,4.032800000004464],[0.5870833333333333,-0.17314814814814813,4.048999999999985],[0.5795833333333335,-0.18370370370370367,4.064700000002965],[0.5771874999999999,-0.19388888888888886,4.084200000002973],[0.5717708333333335,-0.21277777777777773,4.098400000005945],[0.5626041666666666,-0.18222222222222217,4.114200000002974],[0.5504166666666668,-0.16814814814814816,4.128999999999984],[0.5377083333333333,-0.14222222222222225,4.148800000004464],[0.5282291666666665,-0.16666666666666666,4.164300000004452],[0.5299999999999999,-0.18518518518518517,4.180100000001481],[0.5338541666666666,-0.21703703703703703,4.198400000005954],[0.46197916666666666,-0.19240740740740736,4.214100000001473],[0.38479166666666675,-0.14666666666666664,4.228999999999992],[0.29145833333333326,-0.09111111111111109,4.245400000005951],[0.21208333333333323,-0.043703703703703745,4.264800000004463],[0.16770833333333332,-0.06444444444444447,4.278700000002964],[0.17114583333333327,-0.12814814814814812,4.295499999999983],[0.0974999999999999,-0.11240740740740739,4.312100000001472],[0.018229166666666668,-0.05648148148148148,4.328800000004456],[-0.01427083333333338,-0.05814814814814811,4.345400000005945],[-0.04885416666666664,-0.046481481481481526,4.362100000001483],[-0.02166666666666662,-0.0809259259259259,4.382700000002963],[0.043124999999999976,-0.15388888888888894,4.3969000000059495],[0.06489583333333329,-0.22388888888888886,4.412499999999987],[0.09416666666666676,-0.3020370370370371,4.428800000004465],[0.0890625,-0.2807407407407408,4.448400000005954],[0.0890625,-0.2807407407407408,4.462300000004454],[0.09822916666666662,-0.272037037037037,4.478999999999992],[0.18562500000000004,-0.33851851851851855,4.495499999999986],[0.24718749999999995,-0.4172222222222222,4.511999999999993],[0.265625,-0.45388888888888895,4.528800000004459],[0.28406250000000005,-0.4905555555555555,4.545400000005948],[0.27666666666666656,-0.5081481481481481,4.564600000001484],[0.1877083333333334,-0.4690740740740741,4.579999999999991],[0.1881249999999999,-0.45851851851851855,4.595400000005945],[0.20083333333333328,-0.46166666666666667,4.611999999999988],[0.2021874999999999,-0.48703703703703705,4.628700000002972],[0.1337500000000001,-0.4346296296296296,4.645400000005942],[0.06416666666666669,-0.3864814814814815,4.663200000002966],[0.034687499999999954,-0.30648148148148147,4.678700000002969],[0.00916666666666662,-0.2727777777777778,4.695400000005954],[-0.004270833333333357,-0.23166666666666672,4.712100000001477],[0.019791666666666666,-0.21185185185185182,4.728700000002966],[0.07927083333333323,-0.21592592592592597,4.745400000005951],[0.10343749999999995,-0.20462962962962963,4.762100000001475],[0.1267708333333334,-0.17037037037037037,4.779400000005943],[0.1267708333333334,-0.17037037037037037,4.805700000002965],[0.16177083333333328,-0.13277777777777774,4.822100000001477],[0.16177083333333328,-0.13277777777777774,4.828800000004456],[0.2033333333333334,-0.13962962962962958,4.845499999999994],[0.24489583333333323,-0.14592592592592596,4.863200000002969],[0.26104166666666656,-0.16944444444444445,4.878700000002972],[0.27322916666666663,-0.14666666666666664,4.895499999999991],[0.27468750000000003,-0.11425925925925924,4.91210000000148],[0.2627083333333334,-0.07999999999999997,4.928700000002969],[0.26458333333333334,-0.06111111111111111,4.9454999999999885],[0.2730208333333332,-0.04981481481481477,4.962200000002973],[0.240625,-0.015555555555555513,4.978700000002966],[0.20125000000000004,-0.027407407407407325,4.995999999999988],[0.1953125,-0.006296296296296254,5.011999999999993],[0.18937499999999996,0.014259259259259343,5.028800000004459],[0.20968749999999994,0.004814814814814857,5.0493000000044574],[0.1696875000000001,0.09574074074074082,5.063700000002974],[0.13916666666666658,0.09666666666666675,5.078700000002961],[0.1330208333333334,0.12611111111111115,5.095400000005945],[0.13812499999999991,0.1368518518518518,5.112100000001483],[0.19104166666666675,0.13574074074074066,5.128700000002972],[0.23958333333333334,0.14055555555555552,5.145400000005942],[0.28312499999999996,0.19000000000000003,5.163200000002966],[0.3129166666666668,0.1824074074074074,5.178700000002969],[0.38343749999999993,0.10796296296296289,5.195400000005954],[0.4201041666666666,0.1264814814814814,5.212100000001477],[0.5170833333333335,0.04462962962962967,5.228900000005943],[0.5740624999999999,0.07740740740740733,5.245400000005951],[0.60625,0.08222222222222218,5.264100000001484],[0.6169791666666666,0.10925925925925926,5.278800000004459],[0.5733333333333335,0.1557407407407408,5.295400000005948],[0.5826041666666666,0.15925925925925927,5.312100000001472],[0.5619791666666667,0.17240740740740745,5.328800000004456],[0.55125,0.18870370370370365,5.345400000005945],[0.49979166666666663,0.2718518518518518,5.362200000002964],[0.47718749999999993,0.2837037037037038,5.3792000000029745],[0.4410416666666668,0.30907407407407406,5.395400000005942],[0.42374999999999996,0.29611111111111105,5.4122000000029615],[0.40645833333333337,0.2831481481481481,5.428700000002969],[0.38520833333333326,0.297037037037037,5.445400000005954],[0.38520833333333326,0.297037037037037,5.462100000001477],[0.40635416666666657,0.2727777777777777,5.478800000004462],[0.40635416666666657,0.2727777777777777,5.495400000005951],[0.41260416666666655,0.2579629629629629,5.512100000001475],[0.41260416666666655,0.2579629629629629,5.528800000004459],[0.4344791666666666,0.24648148148148152,5.545499999999983],[0.4344791666666666,0.24648148148148152,5.562100000001472],[0.46062500000000006,0.2368518518518518,5.578900000005952],[0.465625,0.2448148148148149,5.598100000001473],[0.465625,0.2448148148148149,5.612100000001483],[0.46864583333333343,0.24870370370370362,5.628700000002972],[0.46864583333333343,0.24870370370370362,5.645499999999991],[0.4783333333333334,0.2272222222222223,5.66210000000148],[0.49802083333333325,0.20388888888888893,5.678800000004465],[0.5177083333333333,0.18055555555555555,5.695400000005954],[0.5456249999999999,0.12037037037037036,5.712100000001477],[0.5311458333333334,0.09833333333333337,5.728700000002966],[0.5222916666666667,0.06944444444444445,5.748900000005953],[0.5280208333333334,0.0257407407407407,5.764499999999991],[0.5113541666666668,0.017407407407407365,5.778700000002964],[0.5158333333333334,-0.00851851851851856,5.795400000005948],[0.5069791666666668,-0.045740740740740825,5.812100000001472],[0.5138541666666666,-0.05407407407407405,5.828700000002961],[0.5162499999999999,-0.07611111111111116,5.845400000005945],[0.5186458333333335,-0.09814814814814815,5.862100000001483],[0.5444791666666667,-0.08592592592592588,5.878700000002972],[0.5703125,-0.07370370370370373,5.895400000005942],[0.5694791666666668,-0.07018518518518514,5.91210000000148],[0.5686458333333334,-0.06666666666666667,5.928800000004465],[0.5777083333333333,-0.07370370370370373,5.945400000005954],[0.5966666666666666,-0.09851851851851849,5.962100000001477],[0.6144791666666668,-0.10055555555555558,5.978700000002966],[0.6234375,-0.11962962962962967,5.995400000005951],[0.6471874999999999,-0.1411111111111111,6.014200000002965],[0.6440625,-0.17240740740740745,6.028800000004459],[0.5998958333333334,-0.20166666666666663,6.045700000002974],[0.5557291666666667,-0.2309259259259259,6.065200000002967],[0.5121875,-0.28129629629629627,6.081100000001477],[0.46864583333333343,-0.3316666666666667,6.095499999999994],[0.4136458333333332,-0.3683333333333333,6.112200000002964],[0.34874999999999995,-0.38722222222222225,6.13120000000297],[0.31906249999999997,-0.4148148148148148,6.146300000004452],[0.28937499999999994,-0.44240740740740736,6.1624000000059524],[0.24260416666666676,-0.46277777777777773,6.180900000005941],[0.221875,-0.4553703703703703,6.195600000001484],[0.22197916666666656,-0.49240740740740735,6.212200000002973],[0.20520833333333333,-0.5120370370370371,6.231400000005955],[0.22958333333333342,-0.5383333333333333,6.245700000002962],[0.24541666666666656,-0.5601851851851852,6.26220000000297],[0.2638541666666666,-0.5718518518518518,6.280800000004454],[0.26583333333333337,-0.5796296296296296,6.295499999999983],[0.24958333333333324,-0.6124074074074074,6.3119999999999905],[0.21593749999999995,-0.5816666666666667,6.328700000002961],[0.2078125,-0.6187037037037038,6.347200000002964],[0.2078125,-0.6187037037037038,6.361999999999988],[0.1820833333333333,-0.6177777777777779,6.378999999999984],[0.17531249999999995,-0.6072222222222222,6.399600000001477],[0.18218750000000009,-0.6046296296296296,6.414400000005948],[0.15958333333333338,-0.5811111111111111,6.428999999999981],[0.14104166666666676,-0.5592592592592592,6.446400000005944],[0.121875,-0.553888888888889,6.461999999999982],[0.11822916666666666,-0.5431481481481482,6.478700000002966],[0.10395833333333329,-0.5001851851851852,6.495300000004455],[0.109375,-0.49962962962962965,6.515499999999982],[0.09031250000000005,-0.44611111111111107,6.528700000002964],[0.08895833333333343,-0.4487037037037037,6.545400000005948],[0.07135416666666666,-0.4462962962962963,6.566800000004456],[0.05145833333333331,-0.4594444444444445,6.581499999999984],[0.03604166666666669,-0.45481481481481484,6.595400000005945],[0.034375,-0.42296296296296293,6.611999999999988],[0.030312500000000023,-0.41351851851851856,6.628700000002972],[0.019895833333333356,-0.4046296296296296,6.645400000005942],[0.00947916666666669,-0.3957407407407407,6.661999999999985],[-0.0021875000000000236,-0.44000000000000006,6.678700000002969],[-0.0078125,-0.462037037037037,6.695300000004458],[-0.0016666666666666904,-0.45740740740740743,6.711999999999982],[-0.004062499999999977,-0.4551851851851852,6.728700000002966],[0.0009374999999999763,-0.4655555555555555,6.745400000005951],[0.005937500000000048,-0.4759259259259259,6.763999999999989],[0.01583333333333338,-0.4844444444444445,6.778700000002964],[0.028125,-0.4705555555555556,6.795499999999983],[0.04489583333333336,-0.47240740740740744,6.8119999999999905],[0.0640625,-0.45333333333333337,6.828700000002961],[0.0859375,-0.4166666666666667,6.845300000004464],[0.1078125,-0.38,6.862100000001483],[0.103125,-0.3653703703703704,6.878700000002972],[0.10697916666666671,-0.3483333333333334,6.895300000004461],[0.10802083333333339,-0.32685185185185184,6.91210000000148],[0.10906250000000005,-0.30537037037037035,6.9313000000044624],[0.10906250000000005,-0.30537037037037035,6.946300000004463],[0.10322916666666657,-0.32685185185185184,6.962100000001477],[0.08812499999999991,-0.33499999999999996,6.978700000002966],[0.07583333333333328,-0.33611111111111114,6.995400000005951],[0.050937499999999976,-0.34740740740740744,7.011999999999993],[0.024895833333333308,-0.3440740740740741,7.028700000002964],[0.014895833333333285,-0.37351851851851847,7.045300000004453],[0.02041666666666669,-0.4074074074074074,7.0619999999999905],[0.03260416666666662,-0.3846296296296296,7.078700000002961],[0.04572916666666664,-0.34759259259259256,7.095400000005945],[0.040625,-0.28833333333333333,7.111999999999988],[0.02822916666666669,-0.21796296296296294,7.128700000002972],[0.03208333333333328,-0.21129629629629634,7.147400000005952],[0.03250000000000005,-0.1977777777777778,7.1622000000029615],[0.036562500000000026,-0.14666666666666664,7.178900000005946],[0.041562499999999974,-0.0962962962962963,7.199499999999993],[0.042604166666666644,-0.06888888888888887,7.2139999999999915],[0.035000000000000024,-0.07240740740740745,7.228800000004462],[0.016250000000000025,-0.125,7.245600000001481],[-0.002499999999999976,-0.17759259259259255,7.264499999999991],[0.0005208333333333333,-0.22666666666666663,7.279400000005943],[0.004062499999999977,-0.2766666666666666,7.295600000001478],[0.004791666666666691,-0.29388888888888887,7.312200000002967],[0.008958333333333356,-0.31796296296296295,7.33160000000148],[0.01427083333333338,-0.3890740740740741,7.345600000001475],[0.016145833333333335,-0.46148148148148144,7.36230000000446],[0.019270833333333334,-0.4740740740740741,7.380900000005944],[0.021458333333333357,-0.462037037037037,7.395499999999991],[0.025,-0.4427777777777778,7.4124000000059524],[0.03302083333333338,-0.4433333333333333,7.428700000002969],[0.03093750000000005,-0.4705555555555556,7.445400000005954],[0.03093750000000005,-0.4705555555555556,7.462100000001477],[0.02833333333333338,-0.5124074074074074,7.4821000000014735],[0.02833333333333338,-0.5124074074074074,7.495400000005951],[0.029270833333333357,-0.49314814814814817,7.512300000004451],[0.029270833333333357,-0.49314814814814817,7.528800000004459],[0.022291666666666644,-0.4903703703703704,7.549499999999988],[0.022291666666666644,-0.4903703703703704,7.562499999999993],[0.02687499999999995,-0.48111111111111116,7.579100000001482],[0.02687499999999995,-0.48111111111111116,7.595499999999994],[0.029895833333333382,-0.5162962962962964,7.616499999999981],[0.018437500000000048,-0.5503703703703704,7.632300000004456],[0.024895833333333308,-0.5703703703703704,7.647600000001482],[0.03447916666666669,-0.6051851851851852,7.6622000000029615]]","[0.00020000000297670795,0.03630000000445932,0.04810000000148307,0.0646000000014908,0.08080000000445864,0.09550000000000125,0.11670000000297875,0.1319999999999908,0.14710000000148682,0.1623000000044641,0.18180000000447194,0.1954000000059608,0.21230000000446125,0.22880000000446898,0.24549999999999272,0.26249999999998863,0.27880000000446614,0.2954999999999899,0.31210000000147886,0.3288000000044633,0.34550000000000125,0.365700000002974,0.38070000000297455,0.39540000000594944,0.41220000000296864,0.42870000000297637,0.44549999999999557,0.46220000000298,0.478800000004469,0.4954999999999927,0.5122000000029772,0.5288000000044661,0.5491000000014878,0.5654000000059511,0.5811000000014843,0.5955000000000013,0.6121000000014902,0.6289000000059559,0.6454000000059494,0.6621000000014874,0.6788000000044718,0.6954999999999956,0.7121000000014845,0.728800000004469,0.7454999999999927,0.7622000000029772,0.7788000000044661,0.7954999999999899,0.8121000000014789,0.8288000000044633,0.8489000000059548,0.8644000000059577,0.882300000004463,0.896499999999989,0.9121000000014874,0.9288000000044718,0.9454000000059608,0.96220000000298,0.978800000004469,0.9954999999999927,1.0121000000014817,1.0288000000044661,1.0454999999999899,1.0621000000014789,1.0788000000044633,1.0955000000000013,1.1121000000014902,1.1288000000044605,1.1454000000059494,1.1621000000014874,1.1788000000044718,1.1954999999999956,1.21220000000298,1.228800000004469,1.2454999999999927,1.2634000000059586,1.2788000000044661,1.2954999999999899,1.3121000000014789,1.3288000000044633,1.3455000000000013,1.3622000000029715,1.3799000000059607,1.3954999999999984,1.4122000000029686,1.4288000000044718,1.4454000000059608,1.4621000000014845,1.478800000004469,1.4954999999999927,1.5122000000029772,1.5288000000044661,1.5454999999999899,1.5622000000029743,1.5788000000044633,1.5981000000014802,1.6121000000014902,1.6288000000044605,1.6454999999999984,1.6622000000029686,1.6788000000044718,1.6954999999999956,1.7123000000044613,1.728800000004469,1.7454999999999927,1.7622000000029772,1.7819999999999965,1.7978000000044716,1.8133000000044603,1.8288000000044633,1.8455000000000013,1.8621000000014902,1.8799000000059607,1.8954999999999984,1.9122000000029686,1.9288000000044718,1.9454999999999956,1.96220000000298,1.9787000000029735,1.9954999999999927,2.012200000002977,2.028800000004466,2.045400000005955,2.0641000000014884,2.0788000000044633,2.0956000000014825,2.1121000000014902,2.128700000002979,2.145700000002975,2.1622000000029686,2.178800000004472,2.1957000000029723,2.214999999999989,2.2291000000014805,2.245400000005958,2.262800000004461,2.278800000004466,2.29549999999999,2.312100000001479,2.3288000000044633,2.3454000000059523,2.3622000000029715,2.378900000005956,2.3954999999999984,2.413300000004469,2.428800000004472,2.4457000000029723,2.4621000000014845,2.4787000000029735,2.4954999999999927,2.5121000000014817,2.528800000004466,2.547700000002976,2.564300000004465,2.5788000000044633,2.5954000000059523,2.61399999999999,2.6288000000044605,2.6454999999999984,2.6622000000029686,2.680499999999995,2.695400000005961,2.7121000000014845,2.731499999999997,2.747,2.767300000004468,2.782499999999999,2.7974000000059505,2.81230000000447,2.8316000000014867,2.8469000000059594,2.863100000001481,2.878900000005956,2.899300000004459,2.915300000004464,2.928999999999988,2.945600000001491,2.96220000000298,2.978800000004469,2.9986000000014883,3.012800000004461,3.0287000000029636,3.045400000005948,3.0649999999999906,3.0804999999999936,3.095499999999994,3.11230000000446,3.1322000000029746,3.1471000000014797,3.162300000004457,3.1828000000044554,3.1979000000059514,3.213499999999989,3.228999999999992,3.249900000005944,3.2659000000059493,3.28110000000148,3.2956000000014782,3.3144000000059535,3.3289000000059517,3.3473000000044593,3.3659999999999926,3.381300000004451,3.3954000000059423,3.4121000000014803,3.4287000000029693,3.445600000001484,3.462200000002973,3.478900000005943,3.495400000005951,3.51220000000297,3.528800000004459,3.5456000000014782,3.566999999999986,3.578800000004456,3.595499999999994,3.6178000000044577,3.633499999999991,3.6456000000014726,3.6621000000014803,3.680400000005953,3.6988000000044607,3.713300000004459,3.7287000000029664,3.747400000005946,3.76220000000297,3.7789000000059545,3.7989000000059505,3.8134999999999835,3.8319000000059518,3.849800000004457,3.864900000005953,3.878900000005949,3.8956000000014726,3.9154999999999873,3.9289999999999807,3.945700000002965,3.9679000000059474,3.9824999999999946,3.9972000000029695,4.012300000004451,4.032800000004464,4.048999999999985,4.064700000002965,4.084200000002973,4.098400000005945,4.114200000002974,4.128999999999984,4.148800000004464,4.164300000004452,4.180100000001481,4.198400000005954,4.214100000001473,4.228999999999992,4.245400000005951,4.264800000004463,4.278700000002964,4.295499999999983,4.312100000001472,4.328800000004456,4.345400000005945,4.362100000001483,4.382700000002963,4.3969000000059495,4.412499999999987,4.428800000004465,4.448400000005954,4.462300000004454,4.478999999999992,4.495499999999986,4.511999999999993,4.528800000004459,4.545400000005948,4.564600000001484,4.579999999999991,4.595400000005945,4.611999999999988,4.628700000002972,4.645400000005942,4.663200000002966,4.678700000002969,4.695400000005954,4.712100000001477,4.728700000002966,4.745400000005951,4.762100000001475,4.779400000005943,4.805700000002965,4.822100000001477,4.828800000004456,4.845499999999994,4.863200000002969,4.878700000002972,4.895499999999991,4.91210000000148,4.928700000002969,4.9454999999999885,4.962200000002973,4.978700000002966,4.995999999999988,5.011999999999993,5.028800000004459,5.0493000000044574,5.063700000002974,5.078700000002961,5.095400000005945,5.112100000001483,5.128700000002972,5.145400000005942,5.163200000002966,5.178700000002969,5.195400000005954,5.212100000001477,5.228900000005943,5.245400000005951,5.264100000001484,5.278800000004459,5.295400000005948,5.312100000001472,5.328800000004456,5.345400000005945,5.362200000002964,5.3792000000029745,5.395400000005942,5.4122000000029615,5.428700000002969,5.445400000005954,5.462100000001477,5.478800000004462,5.495400000005951,5.512100000001475,5.528800000004459,5.545499999999983,5.562100000001472,5.578900000005952,5.598100000001473,5.612100000001483,5.628700000002972,5.645499999999991,5.66210000000148,5.678800000004465,5.695400000005954,5.712100000001477,5.728700000002966,5.748900000005953,5.764499999999991,5.778700000002964,5.795400000005948,5.812100000001472,5.828700000002961,5.845400000005945,5.862100000001483,5.878700000002972,5.895400000005942,5.91210000000148,5.928800000004465,5.945400000005954,5.962100000001477,5.978700000002966,5.995400000005951,6.014200000002965,6.028800000004459,6.045700000002974,6.065200000002967,6.081100000001477,6.095499999999994,6.112200000002964,6.13120000000297,6.146300000004452,6.1624000000059524,6.180900000005941,6.195600000001484,6.212200000002973,6.231400000005955,6.245700000002962,6.26220000000297,6.280800000004454,6.295499999999983,6.3119999999999905,6.328700000002961,6.347200000002964,6.361999999999988,6.378999999999984,6.399600000001477,6.414400000005948,6.428999999999981,6.446400000005944,6.461999999999982,6.478700000002966,6.495300000004455,6.515499999999982,6.528700000002964,6.545400000005948,6.566800000004456,6.581499999999984,6.595400000005945,6.611999999999988,6.628700000002972,6.645400000005942,6.661999999999985,6.678700000002969,6.695300000004458,6.711999999999982,6.728700000002966,6.745400000005951,6.763999999999989,6.778700000002964,6.795499999999983,6.8119999999999905,6.828700000002961,6.845300000004464,6.862100000001483,6.878700000002972,6.895300000004461,6.91210000000148,6.9313000000044624,6.946300000004463,6.962100000001477,6.978700000002966,6.995400000005951,7.011999999999993,7.028700000002964,7.045300000004453,7.0619999999999905,7.078700000002961,7.095400000005945,7.111999999999988,7.128700000002972,7.147400000005952,7.1622000000029615,7.178900000005946,7.199499999999993,7.2139999999999915,7.228800000004462,7.245600000001481,7.264499999999991,7.279400000005943,7.295600000001478,7.312200000002967,7.33160000000148,7.345600000001475,7.36230000000446,7.380900000005944,7.395499999999991,7.4124000000059524,7.428700000002969,7.445400000005954,7.462100000001477,7.4821000000014735,7.495400000005951,7.512300000004451,7.528800000004459,7.549499999999988,7.562499999999993,7.579100000001482,7.595499999999994,7.616499999999981,7.632300000004456,7.647600000001482,7.6622000000029615]","[1733291822752,1733291822780,1733291822792,1733291822809,1733291822825,1733291822839,1733291822861,1733291822876,1733291822891,1733291822906,1733291822926,1733291822939,1733291822956,1733291822973,1733291822989,1733291823006,1733291823023,1733291823039,1733291823056,1733291823073,1733291823089,1733291823110,1733291823125,1733291823139,1733291823156,1733291823173,1733291823189,1733291823206,1733291823223,1733291823239,1733291823256,1733291823273,1733291823293,1733291823309,1733291823325,1733291823339,1733291823356,1733291823373,1733291823389,1733291823406,1733291823423,1733291823439,1733291823456,1733291823473,1733291823489,1733291823506,1733291823523,1733291823539,1733291823556,1733291823573,1733291823593,1733291823608,1733291823626,1733291823640,1733291823656,1733291823673,1733291823689,1733291823706,1733291823723,1733291823739,1733291823756,1733291823773,1733291823789,1733291823806,1733291823823,1733291823839,1733291823856,1733291823873,1733291823889,1733291823906,1733291823923,1733291823939,1733291823956,1733291823973,1733291823989,1733291824007,1733291824023,1733291824039,1733291824056,1733291824073,1733291824089,1733291824106,1733291824124,1733291824139,1733291824156,1733291824173,1733291824189,1733291824206,1733291824223,1733291824239,1733291824256,1733291824273,1733291824289,1733291824306,1733291824323,1733291824342,1733291824356,1733291824373,1733291824389,1733291824406,1733291824423,1733291824439,1733291824456,1733291824473,1733291824489,1733291824506,1733291824526,1733291824542,1733291824557,1733291824573,1733291824589,1733291824606,1733291824624,1733291824639,1733291824656,1733291824673,1733291824689,1733291824706,1733291824723,1733291824739,1733291824756,1733291824773,1733291824789,1733291824808,1733291824823,1733291824839,1733291824856,1733291824873,1733291824890,1733291824906,1733291824923,1733291824940,1733291824959,1733291824973,1733291824989,1733291825007,1733291825023,1733291825039,1733291825056,1733291825073,1733291825089,1733291825106,1733291825123,1733291825139,1733291825157,1733291825173,1733291825190,1733291825206,1733291825223,1733291825239,1733291825256,1733291825273,1733291825292,1733291825308,1733291825323,1733291825339,1733291825358,1733291825373,1733291825389,1733291825406,1733291825424,1733291825439,1733291825456,1733291825475,1733291825491,1733291825511,1733291825526,1733291825541,1733291825556,1733291825576,1733291825591,1733291825607,1733291825623,1733291825643,1733291825659,1733291825673,1733291825690,1733291825706,1733291825723,1733291825742,1733291825757,1733291825773,1733291825789,1733291825809,1733291825824,1733291825839,1733291825856,1733291825876,1733291825891,1733291825906,1733291825927,1733291825942,1733291825957,1733291825973,1733291825994,1733291826010,1733291826025,1733291826039,1733291826058,1733291826073,1733291826091,1733291826110,1733291826125,1733291826139,1733291826156,1733291826173,1733291826190,1733291826206,1733291826223,1733291826239,1733291826256,1733291826273,1733291826289,1733291826311,1733291826323,1733291826339,1733291826362,1733291826377,1733291826390,1733291826406,1733291826424,1733291826443,1733291826457,1733291826473,1733291826491,1733291826506,1733291826523,1733291826543,1733291826557,1733291826576,1733291826594,1733291826609,1733291826623,1733291826640,1733291826659,1733291826673,1733291826690,1733291826712,1733291826726,1733291826741,1733291826756,1733291826777,1733291826793,1733291826809,1733291826828,1733291826842,1733291826858,1733291826873,1733291826893,1733291826908,1733291826924,1733291826942,1733291826958,1733291826973,1733291826989,1733291827009,1733291827023,1733291827039,1733291827056,1733291827073,1733291827089,1733291827106,1733291827127,1733291827141,1733291827156,1733291827173,1733291827192,1733291827206,1733291827223,1733291827239,1733291827256,1733291827273,1733291827289,1733291827309,1733291827324,1733291827339,1733291827356,1733291827373,1733291827389,1733291827407,1733291827423,1733291827439,1733291827456,1733291827473,1733291827489,1733291827506,1733291827523,1733291827550,1733291827566,1733291827573,1733291827589,1733291827607,1733291827623,1733291827639,1733291827656,1733291827673,1733291827689,1733291827706,1733291827723,1733291827740,1733291827756,1733291827773,1733291827793,1733291827808,1733291827823,1733291827839,1733291827856,1733291827873,1733291827889,1733291827907,1733291827923,1733291827939,1733291827956,1733291827973,1733291827989,1733291828008,1733291828023,1733291828039,1733291828056,1733291828073,1733291828089,1733291828106,1733291828123,1733291828139,1733291828156,1733291828173,1733291828189,1733291828206,1733291828223,1733291828239,1733291828256,1733291828273,1733291828289,1733291828306,1733291828323,1733291828342,1733291828356,1733291828373,1733291828389,1733291828406,1733291828423,1733291828439,1733291828456,1733291828473,1733291828493,1733291828508,1733291828523,1733291828539,1733291828556,1733291828573,1733291828589,1733291828606,1733291828623,1733291828639,1733291828656,1733291828673,1733291828689,1733291828706,1733291828723,1733291828739,1733291828758,1733291828773,1733291828790,1733291828809,1733291828825,1733291828840,1733291828856,1733291828875,1733291828890,1733291828906,1733291828925,1733291828940,1733291828956,1733291828975,1733291828990,1733291829006,1733291829025,1733291829039,1733291829056,1733291829073,1733291829091,1733291829106,1733291829123,1733291829144,1733291829158,1733291829173,1733291829190,1733291829206,1733291829223,1733291829239,1733291829259,1733291829273,1733291829289,1733291829311,1733291829325,1733291829339,1733291829356,1733291829373,1733291829389,1733291829406,1733291829423,1733291829439,1733291829456,1733291829473,1733291829489,1733291829508,1733291829523,1733291829539,1733291829556,1733291829573,1733291829589,1733291829606,1733291829623,1733291829639,1733291829656,1733291829675,1733291829690,1733291829706,1733291829723,1733291829739,1733291829756,1733291829773,1733291829789,1733291829806,1733291829823,1733291829839,1733291829856,1733291829873,1733291829891,1733291829906,1733291829923,1733291829943,1733291829958,1733291829973,1733291829990,1733291830008,1733291830023,1733291830039,1733291830056,1733291830076,1733291830090,1733291830106,1733291830125,1733291830139,1733291830156,1733291830173,1733291830189,1733291830206,1733291830226,1733291830239,1733291830256,1733291830273,1733291830293,1733291830306,1733291830323,1733291830339,1733291830360,1733291830376,1733291830392,1733291830406]","[[1025,826.6],[1025,826.6],[1029.8,816.6],[1034.6,806.6],[1030.8,825.9],[1027.3,833.8],[1033.9,836.3],[1048,838.1],[1052.8,837.7],[1058,835.1],[1065.6,826.1],[1074.9,802.2],[1069.4,791.2],[1063.9,780.2],[1057.9,775.5],[1051.6,782.2],[1056.9,766.8],[1054.7,752.1],[1054.6,745.3],[1054.5,738.5],[1048.3,730.7],[1040.4,737.8],[1043.7,760.3],[1051.4,760.2],[1065.1,759.2],[1078.8,758.2],[1067.9,727.3],[1057,696.4],[1057.8,698.6],[1058.6,700.8],[1060.9,704.1],[1062.6,676.8],[1081.6,643.1],[1087,630],[1076.9,592.4],[1066.8,554.8],[1074.4,555],[1076.5,549.8],[1076.1,486.4],[1075.7,423],[1070.6,394.2],[1062.8,405.5],[1047.4,393.3],[1041.2,383.1],[1051.9,375.6],[1051.9,375.6],[1053,362.9],[1036.3,353.5],[1037.5,332.2],[1040.2,348.3],[1024.2,371.3],[1023.5,358.3],[981.8,364.5],[981.8,364.5],[936.6,380.6],[893.2,416.6],[838,460.4],[795.9,496.3],[795.9,496.3],[772.9,536.7],[736.6,597.7],[693.1,649.6],[659.1,693.5],[614.5,738.8],[611.6,764.8],[606.8,790.4],[598.9,782.4],[592.2,771.8],[583.3,763.9],[583.3,763.9],[569.9,737.6],[545.7,730.1],[527.1,728.7],[517.7,728.4],[525.2,713.7],[531.1,678.9],[540.6,659.4],[551.4,653.6],[558.9,639.5],[565.1,635.8],[566.3,658.7],[577.8,643.5],[595.1,629.4],[612.4,615.3],[610.5,633.4],[617.1,658],[625.1,680.4],[625.1,680.4],[634.4,703.8],[634.4,703.8],[635.6,713.7],[635.6,713.7],[630.2,738.6],[630.2,738.6],[641.2,753.5],[641.5,792.8],[641.5,792.8],[636.1,802.6],[636.1,802.6],[653.9,794.4],[690.1,789.4],[711.3,779.1],[741.7,755.1],[767.8,740.6],[813.8,739.7],[866.4,723.8],[898.1,719.4],[926.2,685.6],[969.6,685.7],[989.8,703.8],[997.6,717.7],[1016.1,741.1],[1019,744.6],[1029.6,744.7],[1024,748.2],[1028.2,760],[1044,755.1],[1075.5,771.2],[1093.9,785.4],[1093.9,785.4],[1102.4,789.1],[1119.6,784.5],[1149.4,751.4],[1192.3,750.6],[1233.3,722.8],[1282,699.8],[1326.6,685.9],[1367.9,674],[1420.8,655.5],[1465.8,627.3],[1515.3,609.4],[1547,573.8],[1561.8,578.6],[1566.8,572],[1579.4,587.7],[1578.6,610.2],[1582.4,602],[1604,587.4],[1599.4,590.7],[1593.7,585.5],[1600.3,580.5],[1612.3,584.7],[1610.7,564.3],[1615.3,550.9],[1612.2,532.9],[1622.5,508.1],[1629.5,496.4],[1619.1,485.9],[1629.1,466],[1637.4,466.6],[1638.1,473.5],[1648.3,468.5],[1667.7,476.8],[1680.9,478.1],[1652.4,491.1],[1623.9,504.1],[1566.3,514.9],[1507.7,543.4],[1442.9,578],[1380.8,583.7],[1322.8,598.5],[1255.3,625.2],[1195.2,646.6],[1133.3,663.9],[1111.7,676],[1090,679.9],[1092.5,695.1],[1095.6,697.8],[1098.8,681.2],[1102.1,681.5],[1115.8,686.7],[1129.5,691.9],[1162.5,695.6],[1197.3,703.4],[1230.2,690],[1230.2,690],[1263.2,684.8],[1287.5,672.1],[1313.9,668.7],[1340.6,676.6],[1380.7,659.7],[1392.8,630.2],[1426.1,586.2],[1441.4,548.4],[1463.6,539.4],[1486.4,547.3],[1506.5,545.3],[1533.2,541.9],[1540.5,532.5],[1549.8,513.3],[1555.8,530],[1561,537.4],[1553.3,565.3],[1547.8,585],[1536.5,588.3],[1515,581.3],[1498.5,594.8],[1488,619.9],[1513.5,633],[1513.2,642.7],[1494.3,645.8],[1490.4,650.5],[1479,635.6],[1479,635.6],[1465.4,628.9],[1440,616.3],[1450.7,608],[1450.7,608],[1441.1,591],[1441.1,591],[1434.2,570.5],[1434.2,570.5],[1393.8,556.1],[1394.2,556.9],[1394.2,556.9],[1440.6,549.4],[1463.2,548.6],[1485,555.7],[1485,555.7],[1509.4,563.5],[1545.6,564.1],[1555.9,570.7],[1596.1,564.2],[1627.6,549.6],[1685.2,528.1],[1685.2,528.1],[1725.8,504.6],[1714.7,505.2],[1720.4,489],[1726.1,478.5],[1726.2,463.9],[1710,460.8],[1708.4,452.2],[1694.9,454.8],[1663.7,470.9],[1663.7,470.9],[1635.1,464.9],[1599.1,472.7],[1577.8,453.8],[1565.8,450.5],[1539.5,452.4],[1516.2,457.7],[1523.6,446.5],[1516.4,440.8],[1514.1,435.3],[1508.9,425.1],[1500.1,441.6],[1488.4,449.2],[1476.2,463.2],[1467.1,450],[1468.8,440],[1472.5,422.8],[1403.5,436.1],[1329.4,460.8],[1239.8,490.8],[1163.6,516.4],[1121,505.2],[1124.3,470.8],[1053.6,479.3],[977.5,509.5],[946.3,508.6],[913.1,514.9],[939.2,496.3],[1001.4,456.9],[1022.3,419.1],[1050.4,376.9],[1045.5,388.4],[1045.5,388.4],[1054.3,393.1],[1138.2,357.2],[1197.3,314.7],[1215,294.9],[1232.7,275.1],[1225.6,265.6],[1140.2,286.7],[1140.6,292.4],[1152.8,290.7],[1154.1,277],[1088.4,305.3],[1021.6,331.3],[993.3,374.5],[968.8,392.7],[955.9,414.9],[979,425.6],[1036.1,423.4],[1059.3,429.5],[1081.7,448],[1081.7,448],[1115.3,468.3],[1115.3,468.3],[1155.2,464.6],[1195.1,461.2],[1210.6,448.5],[1222.3,460.8],[1223.7,478.3],[1212.2,496.8],[1214,507],[1222.1,513.1],[1191,531.6],[1153.2,525.2],[1147.5,536.6],[1141.8,547.7],[1161.3,542.6],[1122.9,591.7],[1093.6,592.2],[1087.7,608.1],[1092.6,613.9],[1143.4,613.3],[1190,615.9],[1231.8,642.6],[1260.4,638.5],[1328.1,598.3],[1363.3,608.3],[1456.4,564.1],[1511.1,581.8],[1542,584.4],[1552.3,599],[1510.4,624.1],[1519.3,626],[1499.5,633.1],[1489.2,641.9],[1439.8,686.8],[1418.1,693.2],[1383.4,706.9],[1366.8,699.9],[1350.2,692.9],[1329.8,700.4],[1329.8,700.4],[1350.1,687.3],[1350.1,687.3],[1356.1,679.3],[1356.1,679.3],[1377.1,673.1],[1377.1,673.1],[1402.2,667.9],[1407,672.2],[1407,672.2],[1409.9,674.3],[1409.9,674.3],[1419.2,662.7],[1438.1,650.1],[1457,637.5],[1483.8,605],[1469.9,593.1],[1461.4,577.5],[1466.9,553.9],[1450.9,549.4],[1455.2,535.4],[1446.7,515.3],[1453.3,510.8],[1455.6,498.9],[1457.9,487],[1482.7,493.6],[1507.5,500.2],[1506.7,502.1],[1505.9,504],[1514.6,500.2],[1532.8,486.8],[1549.9,485.7],[1558.5,475.4],[1581.3,463.8],[1578.3,446.9],[1535.9,431.1],[1493.5,415.3],[1451.7,388.1],[1409.9,360.9],[1357.1,341.1],[1294.8,330.9],[1266.3,316],[1237.8,301.1],[1192.9,290.1],[1173,294.1],[1173.1,274.1],[1157,263.5],[1180.4,249.3],[1195.6,237.5],[1213.3,231.2],[1215.2,227],[1199.6,209.3],[1167.3,225.9],[1159.5,205.9],[1159.5,205.9],[1134.8,206.4],[1128.3,212.1],[1134.9,213.5],[1113.2,226.2],[1095.4,238],[1077,240.9],[1073.5,246.7],[1059.8,269.9],[1065,270.2],[1046.7,299.1],[1045.4,297.7],[1028.5,299],[1009.4,291.9],[994.6,294.4],[993,311.6],[989.1,316.7],[979.1,321.5],[969.1,326.3],[957.9,302.4],[952.5,290.5],[958.4,293],[956.1,294.2],[960.9,288.6],[965.7,283],[975.2,278.4],[987,285.9],[1003.1,284.9],[1021.5,295.2],[1042.5,315],[1063.5,334.8],[1059,342.7],[1062.7,351.9],[1063.7,363.5],[1064.7,375.1],[1064.7,375.1],[1059.1,363.5],[1044.6,359.1],[1032.8,358.5],[1008.9,352.4],[983.9,354.2],[974.3,338.3],[979.6,320],[991.3,332.3],[1003.9,352.3],[999,384.3],[987.1,422.3],[990.8,425.9],[991.2,433.2],[995.1,460.8],[999.9,488],[1000.9,502.8],[993.6,500.9],[975.6,472.5],[957.6,444.1],[960.5,417.6],[963.9,390.6],[964.6,381.3],[968.6,368.3],[973.7,329.9],[975.5,290.8],[978.5,284],[980.6,290.5],[984,300.9],[991.7,300.6],[989.7,285.9],[989.7,285.9],[987.2,263.3],[987.2,263.3],[988.1,273.7],[988.1,273.7],[981.4,275.2],[981.4,275.2],[985.8,280.2],[985.8,280.2],[988.7,261.2],[977.7,242.8],[983.9,232],[993.1,213.2]]","[0,0.5333]","[0.5333,0.5333]","[-0.5333,-0.5333]","[-0.5333,0]","[0,-0.5333]","[0.5333,-0.5333]","[0,0]","[0.5333,0]",0,0,0,0,1,1,Monitor,7,7,15,9
