inst1_resp.keys,inst1_resp.rt,calibrationMouse.x,calibrationMouse.y,calibrationMouse.leftButton,calibrationMouse.midButton,calibrationMouse.rightButton,calibrationClick.x,calibrationClick.y,calibrationClick.leftButton,calibrationClick.midButton,calibrationClick.rightButton,trialsc.thisRepN,trialsc.thisTrialN,trialsc.thisN,trialsc.thisIndex,trialsc.ran,calibration_x,calibration_y,participant,session,date,expName,psychopyVersion,OS,frameRate,calibrationClick.clicked_name,ScreenRes_pixels,Camera_pixels,mouse_2.x,mouse_2.y,mouse_2.leftButton,mouse_2.midButton,mouse_2.rightButton,mouse_2.time,mouse_2.clicked_name,mouse.x,mouse.y,mouse.leftButton,mouse.midButton,mouse.rightButton,mouse.time,mouse.clicked_name,Choice,Trial,TrialDuration,MOUSE_GAZE,ET_GAZE,ET_GAZE_x_T,time,unixTime,ET_GAZE_NF,Loc_Option1_label,Loc_Option2_label,Loc_Cost_label,Loc_Qual_label,Loc_Option1_cost,Loc_Option2_cost,Loc_Option1_quality,Loc_Option2_quality,trials.thisRepN,trials.thisTrialN,trials.thisN,trials.thisIndex,trials.ran,Block,Device,cost1,qual1,cost2,qual2
space,3.216,-0.388541667,-0.275925926,1,0,0,0.341666667,-0.657407407,1,0,0,0,0,0,14,1,0.33,-0.67,18,001,2024-12-04_14h04.05.565,Attention_exp_legacy,2023.1.0,Win32,59.88023952,,,,,,,,,,,,,,,,,,,,,,,,,,,,,,,,,,,,,,,,,,,,,
,,,,,,,0,0.655555556,1,0,0,0,1,1,13,1,0,0.67,18,001,2024-12-04_14h04.05.565,Attention_exp_legacy,2023.1.0,Win32,59.88023952,,,,,,,,,,,,,,,,,,,,,,,,,,,,,,,,,,,,,,,,,,,,,
,,,,,,,-0.6625,-0.657407407,1,0,0,0,2,2,0,1,-0.67,-0.67,18,001,2024-12-04_14h04.05.565,Attention_exp_legacy,2023.1.0,Win32,59.88023952,,,,,,,,,,,,,,,,,,,,,,,,,,,,,,,,,,,,,,,,,,,,,
,,,,,,,-0.003125,-0.65,1,0,0,0,3,3,9,1,0,-0.67,18,001,2024-12-04_14h04.05.565,Attention_exp_legacy,2023.1.0,Win32,59.88023952,,,,,,,,,,,,,,,,,,,,,,,,,,,,,,,,,,,,,,,,,,,,,
,,,,,,,0.68125,-0.657407407,1,0,0,0,4,4,20,1,0.67,-0.67,18,001,2024-12-04_14h04.05.565,Attention_exp_legacy,2023.1.0,Win32,59.88023952,,,,,,,,,,,,,,,,,,,,,,,,,,,,,,,,,,,,,,,,,,,,,
,,,,,,,0.326041667,-0.014814815,1,0,0,0,5,5,16,1,0.33,0,18,001,2024-12-04_14h04.05.565,Attention_exp_legacy,2023.1.0,Win32,59.88023952,,,,,,,,,,,,,,,,,,,,,,,,,,,,,,,,,,,,,,,,,,,,,
,,,,,,,-0.345833333,-0.316666667,1,0,0,0,6,6,5,1,-0.33,-0.33,18,001,2024-12-04_14h04.05.565,Attention_exp_legacy,2023.1.0,Win32,59.88023952,,,,,,,,,,,,,,,,,,,,,,,,,,,,,,,,,,,,,,,,,,,,,
,,,,,,,-0.338541667,0.007407407,1,0,0,0,7,7,6,1,-0.33,0,18,001,2024-12-04_14h04.05.565,Attention_exp_legacy,2023.1.0,Win32,59.88023952,calibration_square,,,,,,,,,,,,,,,,,,,,,,,,,,,,,,,,,,,,,,,,,,,,
,,,,,,,-0.002083333,0.016666667,1,0,0,0,8,8,11,1,0,0,18,001,2024-12-04_14h04.05.565,Attention_exp_legacy,2023.1.0,Win32,59.88023952,,,,,,,,,,,,,,,,,,,,,,,,,,,,,,,,,,,,,,,,,,,,,
,,,,,,,-0.002083333,0.325925926,1,0,0,0,9,9,12,1,0,0.33,18,001,2024-12-04_14h04.05.565,Attention_exp_legacy,2023.1.0,Win32,59.88023952,calibration_square,,,,,,,,,,,,,,,,,,,,,,,,,,,,,,,,,,,,,,,,,,,,
,,,,,,,0.327083333,0.672222222,1,0,0,0,10,10,18,1,0.33,0.67,18,001,2024-12-04_14h04.05.565,Attention_exp_legacy,2023.1.0,Win32,59.88023952,calibration_square,,,,,,,,,,,,,,,,,,,,,,,,,,,,,,,,,,,,,,,,,,,,
,,,,,,,-0.323958333,0.67962963,1,0,0,0,11,11,8,1,-0.33,0.67,18,001,2024-12-04_14h04.05.565,Attention_exp_legacy,2023.1.0,Win32,59.88023952,calibration_square,,,,,,,,,,,,,,,,,,,,,,,,,,,,,,,,,,,,,,,,,,,,
,,,,,,,-0.004166667,-0.318518519,1,0,0,0,12,12,10,1,0,-0.33,18,001,2024-12-04_14h04.05.565,Attention_exp_legacy,2023.1.0,Win32,59.88023952,,,,,,,,,,,,,,,,,,,,,,,,,,,,,,,,,,,,,,,,,,,,,
,,,,,,,-0.334375,-0.637037037,1,0,0,0,13,13,4,1,-0.33,-0.67,18,001,2024-12-04_14h04.05.565,Attention_exp_legacy,2023.1.0,Win32,59.88023952,,,,,,,,,,,,,,,,,,,,,,,,,,,,,,,,,,,,,,,,,,,,,
,,,,,,,0.335416667,0.32962963,1,0,0,0,14,14,17,1,0.33,0.33,18,001,2024-12-04_14h04.05.565,Attention_exp_legacy,2023.1.0,Win32,59.88023952,calibration_square,,,,,,,,,,,,,,,,,,,,,,,,,,,,,,,,,,,,,,,,,,,,
,,,,,,,-0.670833333,-0.346296296,1,0,0,0,15,15,1,1,-0.67,-0.33,18,001,2024-12-04_14h04.05.565,Attention_exp_legacy,2023.1.0,Win32,59.88023952,,,,,,,,,,,,,,,,,,,,,,,,,,,,,,,,,,,,,,,,,,,,,
,,,,,,,0.342708333,-0.290740741,1,0,0,0,16,16,15,1,0.33,-0.33,18,001,2024-12-04_14h04.05.565,Attention_exp_legacy,2023.1.0,Win32,59.88023952,,,,,,,,,,,,,,,,,,,,,,,,,,,,,,,,,,,,,,,,,,,,,
,,,,,,,0.65,0.694444444,1,0,0,0,17,17,19,1,0.67,0.67,18,001,2024-12-04_14h04.05.565,Attention_exp_legacy,2023.1.0,Win32,59.88023952,,,,,,,,,,,,,,,,,,,,,,,,,,,,,,,,,,,,,,,,,,,,,
,,,,,,,-0.332291667,0.318518519,1,0,0,0,18,18,7,1,-0.33,0.33,18,001,2024-12-04_14h04.05.565,Attention_exp_legacy,2023.1.0,Win32,59.88023952,,,,,,,,,,,,,,,,,,,,,,,,,,,,,,,,,,,,,,,,,,,,,
,,,,,,,-0.676041667,0.040740741,1,0,0,0,19,19,2,1,-0.67,0,18,001,2024-12-04_14h04.05.565,Attention_exp_legacy,2023.1.0,Win32,59.88023952,,,,,,,,,,,,,,,,,,,,,,,,,,,,,,,,,,,,,,,,,,,,,
,,,,,,,-0.65625,0.312962963,1,0,0,0,20,20,3,1,-0.67,0.33,18,001,2024-12-04_14h04.05.565,Attention_exp_legacy,2023.1.0,Win32,59.88023952,,,,,,,,,,,,,,,,,,,,,,,,,,,,,,,,,,,,,,,,,,,,,
,,,,,,,,,,,,,,,,,,,18,001,2024-12-04_14h04.05.565,Attention_exp_legacy,2023.1.0,Win32,59.88023952,,"[1920,1080]","[640,480]",[-0.03958333333333333],[-0.48703703703703705],[1],[0],[0],[3.2438000000044767],"[""StartButton""]",[0.39375],[0.3851851851851852],[1],[0],[0],[3.3488999999985083],"[""Option2_label""]",Option2_label,1,4.3715,"[[-0.005208333333333333,-0.19814814814814816],[-0.005208333333333333,-0.19814814814814816],[-0.005208333333333333,-0.19814814814814816],[-0.005208333333333333,-0.19814814814814816],[-0.005208333333333333,-0.19814814814814816],[-0.005208333333333333,-0.19814814814814816],[-0.005208333333333333,-0.19814814814814816],[-0.005208333333333333,-0.19814814814814816],[-0.005208333333333333,-0.19814814814814816],[-0.005208333333333333,-0.19814814814814816],[-0.005208333333333333,-0.19814814814814816],[-0.005208333333333333,-0.19814814814814816],[-0.005208333333333333,-0.19814814814814816],[-0.005208333333333333,-0.19814814814814816],[-0.005208333333333333,-0.19814814814814816],[-0.005208333333333333,-0.19814814814814816],[-0.005208333333333333,-0.19814814814814816],[-0.005208333333333333,-0.19814814814814816],[-0.005208333333333333,-0.19814814814814816],[-0.005208333333333333,-0.19814814814814816],[-0.005208333333333333,-0.19814814814814816],[-0.005208333333333333,-0.19814814814814816],[-0.005208333333333333,-0.19814814814814816],[-0.005208333333333333,-0.19814814814814816],[-0.005208333333333333,-0.19814814814814816],[-0.005208333333333333,-0.19814814814814816],[-0.005208333333333333,-0.19814814814814816],[-0.005208333333333333,-0.19814814814814816],[-0.005208333333333333,-0.19814814814814816],[-0.005208333333333333,-0.19814814814814816],[-0.005208333333333333,-0.19814814814814816],[-0.005208333333333333,-0.19814814814814816],[-0.005208333333333333,-0.19814814814814816],[-0.005208333333333333,-0.19814814814814816],[-0.005208333333333333,-0.19814814814814816],[-0.005208333333333333,-0.19814814814814816],[-0.005208333333333333,-0.19814814814814816],[-0.005208333333333333,-0.19814814814814816],[-0.005208333333333333,-0.19814814814814816],[-0.005208333333333333,-0.19814814814814816],[-0.005208333333333333,-0.19814814814814816],[-0.005208333333333333,-0.19814814814814816],[-0.005208333333333333,-0.19814814814814816],[-0.005208333333333333,-0.19814814814814816],[-0.005208333333333333,-0.19814814814814816],[-0.005208333333333333,-0.19814814814814816],[-0.005208333333333333,-0.19814814814814816],[-0.005208333333333333,-0.19814814814814816],[-0.005208333333333333,-0.19814814814814816],[-0.005208333333333333,-0.19814814814814816],[-0.005208333333333333,-0.19814814814814816],[-0.005208333333333333,-0.19814814814814816],[-0.005208333333333333,-0.19814814814814816],[-0.005208333333333333,-0.19814814814814816],[-0.005208333333333333,-0.19814814814814816],[-0.005208333333333333,-0.19814814814814816],[-0.005208333333333333,-0.19814814814814816],[-0.005208333333333333,-0.19814814814814816],[0.003125,-0.18703703703703703],[0.07916666666666666,-0.09444444444444444],[0.12604166666666666,-0.05],[0.24895833333333334,0.11851851851851852],[0.33125,0.21851851851851853],[0.396875,0.2833333333333333],[0.44479166666666664,0.32037037037037036],[0.475,0.337037037037037],[0.49583333333333335,0.3537037037037037],[0.50625,0.3611111111111111],[0.5104166666666666,0.3648148148148148],[0.5104166666666666,0.3648148148148148],[0.5104166666666666,0.3648148148148148],[0.5104166666666666,0.3648148148148148],[0.5104166666666666,0.3648148148148148],[0.5104166666666666,0.3648148148148148],[0.5104166666666666,0.3648148148148148],[0.5104166666666666,0.3648148148148148],[0.5104166666666666,0.3648148148148148],[0.5104166666666666,0.36666666666666664],[0.5104166666666666,0.3685185185185185],[0.5104166666666666,0.37037037037037035],[0.5104166666666666,0.37222222222222223],[0.5083333333333333,0.37592592592592594],[0.5041666666666667,0.37962962962962965],[0.5,0.37962962962962965],[0.49583333333333335,0.3814814814814815],[0.4822916666666667,0.387037037037037],[0.46145833333333336,0.3888888888888889],[0.44166666666666665,0.3888888888888889],[0.42604166666666665,0.3907407407407407],[0.4166666666666667,0.3907407407407407],[0.41041666666666665,0.3907407407407407],[0.40520833333333334,0.3888888888888889],[0.403125,0.387037037037037],[0.4010416666666667,0.387037037037037],[0.4010416666666667,0.387037037037037],[0.4010416666666667,0.387037037037037],[0.4010416666666667,0.387037037037037],[0.4010416666666667,0.387037037037037],[0.4010416666666667,0.387037037037037],[0.4010416666666667,0.387037037037037],[0.4010416666666667,0.387037037037037],[0.4010416666666667,0.387037037037037],[0.4010416666666667,0.387037037037037],[0.4010416666666667,0.387037037037037],[0.4010416666666667,0.387037037037037],[0.4010416666666667,0.387037037037037],[0.4010416666666667,0.387037037037037],[0.4010416666666667,0.387037037037037],[0.4010416666666667,0.387037037037037],[0.4010416666666667,0.387037037037037],[0.4010416666666667,0.387037037037037],[0.4010416666666667,0.387037037037037],[0.4010416666666667,0.387037037037037],[0.4010416666666667,0.387037037037037],[0.4010416666666667,0.387037037037037],[0.4010416666666667,0.387037037037037],[0.4010416666666667,0.387037037037037],[0.4010416666666667,0.387037037037037],[0.4010416666666667,0.387037037037037],[0.4010416666666667,0.387037037037037],[0.4010416666666667,0.387037037037037],[0.4010416666666667,0.387037037037037],[0.4010416666666667,0.387037037037037],[0.4010416666666667,0.387037037037037],[0.4010416666666667,0.387037037037037],[0.4010416666666667,0.387037037037037],[0.4010416666666667,0.387037037037037],[0.4010416666666667,0.387037037037037],[0.4010416666666667,0.387037037037037],[0.4010416666666667,0.387037037037037],[0.4010416666666667,0.387037037037037],[0.4010416666666667,0.387037037037037],[0.4010416666666667,0.387037037037037],[0.4010416666666667,0.387037037037037],[0.4010416666666667,0.387037037037037],[0.4010416666666667,0.387037037037037],[0.4010416666666667,0.387037037037037],[0.4010416666666667,0.387037037037037],[0.4010416666666667,0.387037037037037],[0.4010416666666667,0.387037037037037],[0.4010416666666667,0.387037037037037],[0.4010416666666667,0.387037037037037],[0.4010416666666667,0.387037037037037],[0.4010416666666667,0.387037037037037],[0.4010416666666667,0.387037037037037],[0.4010416666666667,0.387037037037037],[0.4010416666666667,0.387037037037037],[0.4010416666666667,0.387037037037037],[0.4010416666666667,0.387037037037037],[0.4010416666666667,0.387037037037037],[0.4010416666666667,0.387037037037037],[0.4010416666666667,0.387037037037037],[0.4010416666666667,0.387037037037037],[0.4010416666666667,0.387037037037037],[0.4010416666666667,0.387037037037037],[0.4010416666666667,0.387037037037037],[0.4010416666666667,0.387037037037037],[0.4010416666666667,0.387037037037037],[0.4010416666666667,0.387037037037037],[0.4010416666666667,0.387037037037037],[0.4010416666666667,0.387037037037037],[0.4010416666666667,0.387037037037037],[0.4010416666666667,0.387037037037037],[0.4010416666666667,0.387037037037037],[0.4010416666666667,0.387037037037037],[0.4010416666666667,0.387037037037037],[0.4010416666666667,0.387037037037037],[0.4010416666666667,0.387037037037037],[0.4010416666666667,0.387037037037037],[0.4010416666666667,0.387037037037037],[0.4010416666666667,0.387037037037037],[0.4010416666666667,0.387037037037037],[0.4010416666666667,0.387037037037037],[0.4010416666666667,0.387037037037037],[0.4,0.387037037037037],[0.396875,0.3851851851851852],[0.3958333333333333,0.3851851851851852],[0.39479166666666665,0.3851851851851852],[0.39479166666666665,0.3851851851851852],[0.39375,0.3851851851851852],[0.39375,0.3851851851851852],[0.39375,0.3851851851851852],[0.39375,0.3851851851851852],[0.39375,0.3851851851851852],[0.39375,0.3851851851851852],[0.39375,0.3851851851851852],[0.39375,0.3851851851851852],[0.39375,0.3851851851851852],[0.39375,0.3851851851851852],[0.39375,0.3851851851851852],[0.39375,0.3851851851851852],[0.39375,0.3851851851851852],[0.39375,0.3851851851851852],[0.39375,0.3851851851851852],[0.39375,0.3851851851851852],[0.39375,0.3851851851851852],[0.39375,0.3851851851851852],[0.39375,0.3851851851851852],[0.39375,0.3851851851851852],[0.39375,0.3851851851851852],[0.39375,0.3851851851851852],[0.39375,0.3851851851851852],[0.39375,0.3851851851851852],[0.39375,0.3851851851851852],[0.39375,0.3851851851851852],[0.39375,0.3851851851851852],[0.39375,0.3851851851851852],[0.39375,0.3851851851851852],[0.39375,0.3851851851851852],[0.39375,0.3851851851851852],[0.39375,0.3851851851851852],[0.39375,0.3851851851851852],[0.39375,0.3851851851851852],[0.39375,0.3851851851851852],[0.39375,0.3851851851851852],[0.39375,0.3851851851851852],[0.39375,0.3851851851851852],[0.39375,0.3851851851851852],[0.39375,0.3851851851851852],[0.39375,0.3851851851851852],[0.39375,0.3851851851851852],[0.39375,0.3851851851851852],[0.39375,0.3851851851851852],[0.39375,0.3851851851851852],[0.39375,0.3851851851851852],[0.39375,0.3851851851851852],[0.39375,0.3851851851851852],[0.39375,0.3851851851851852],[0.39375,0.3851851851851852],[0.39375,0.3851851851851852],[0.39375,0.3851851851851852],[0.39375,0.3851851851851852],[0.39375,0.3851851851851852],[0.39375,0.3851851851851852],[0.39375,0.3851851851851852],[0.39375,0.3851851851851852],[0.39375,0.3851851851851852],[0.39375,0.3851851851851852],[0.39375,0.3851851851851852],[0.39375,0.3851851851851852],[0.39375,0.3851851851851852],[0.39375,0.3851851851851852],[0.39375,0.3851851851851852],[0.39375,0.3851851851851852],[0.39375,0.3851851851851852],[0.39375,0.3851851851851852],[0.39375,0.3851851851851852],[0.39375,0.3851851851851852],[0.39375,0.3851851851851852],[0.39375,0.3851851851851852],[0.39375,0.3851851851851852],[0.39375,0.3851851851851852],[0.39375,0.3851851851851852],[0.39375,0.3851851851851852],[0.39375,0.3851851851851852],[0.39375,0.3851851851851852],[0.39375,0.3851851851851852],[0.39375,0.3851851851851852],[0.39375,0.3851851851851852],[0.39375,0.3851851851851852],[0.39375,0.3851851851851852]]","[[-0.30354166666666665,-0.11814814814814817],[-0.30354166666666665,-0.11814814814814817],[-0.24427083333333333,-0.0992592592592593],[-0.24427083333333333,-0.0992592592592593],[-0.24906250000000002,-0.042407407407407366],[-0.2397916666666667,-0.023333333333333376],[-0.24729166666666663,0.04148148148148144],[-0.2616666666666667,0.17314814814814813],[-0.2633333333333333,0.2403703703703703],[-0.25593750000000004,0.21814814814814806],[-0.20989583333333334,0.11444444444444436],[-0.17239583333333333,0.027222222222222307],[-0.12708333333333333,0.007962962962962878],[-0.19468749999999999,-0.0235185185185186],[-0.1998958333333333,-0.03518518518518519],[-0.20510416666666664,-0.04685185185185177],[-0.17802083333333332,-0.11240740740740739],[-0.16416666666666668,-0.18759259259259262],[-0.1742708333333333,-0.21648148148148144],[-0.15989583333333332,-0.19537037037037036],[-0.15583333333333335,-0.11981481481481479],[-0.12635416666666663,-0.07574074074074069],[-0.15208333333333332,-0.0418518518518519],[-0.08927083333333338,-0.0514814814814814],[0.0078125,-0.08351851851851856],[0.0078125,-0.08351851851851856],[0.033854166666666664,-0.09222222222222225],[0.06666666666666667,-0.11574074074074074],[0.06666666666666667,-0.11574074074074074],[0.11270833333333338,-0.12962962962962962],[0.17572916666666671,-0.11351851851851855],[0.23708333333333323,-0.13481481481481483],[0.24166666666666667,-0.12962962962962962],[0.22937500000000005,-0.10944444444444448],[0.29270833333333335,-0.14314814814814816],[0.26749999999999996,-0.13333333333333333],[0.20281250000000003,-0.15759259259259265],[0.2326041666666666,-0.16444444444444448],[0.21416666666666656,-0.18055555555555555],[0.19572916666666676,-0.19666666666666666],[0.20583333333333323,-0.20925925925925926],[0.21593749999999995,-0.22185185185185188],[0.2259375000000001,-0.3025925925925925],[0.24083333333333337,-0.3427777777777778],[0.21666666666666667,-0.3483333333333334],[0.23333333333333334,-0.36314814814814816],[0.2663541666666667,-0.4007407407407407],[0.21302083333333333,-0.38203703703703706],[0.1790625000000001,-0.3351851851851852],[0.11375000000000005,-0.290925925925926],[0.01416666666666669,-0.262037037037037],[-0.041979166666666616,-0.22111111111111106],[-0.034895833333333334,-0.11574074074074074],[-0.03270833333333331,-0.05092592592592592],[-0.049479166666666664,-0.02629629629629638],[-0.10708333333333328,0.007592592592592635],[-0.11843750000000004,0.0772222222222223],[-0.0907291666666667,0.09037037037037028],[-0.09166666666666666,0.06018518518518518],[-0.04458333333333329,0.07611111111111116],[-0.03895833333333331,0.11148148148148157],[-0.07677083333333339,0.13481481481481472],[-0.07104166666666671,0.1257407407407407],[-0.09968750000000005,0.0418518518518519],[-0.10510416666666664,0.013703703703703662],[-0.12625000000000006,0.013703703703703662],[-0.19604166666666673,0.06444444444444436],[-0.17520833333333338,-0.013518518518518435],[-0.12572916666666673,-0.04814814814814815],[-0.09739583333333333,-0.12925925925925927],[-0.027604166666666666,-0.22981481481481486],[-0.027604166666666666,-0.22981481481481486],[0.04125000000000002,-0.3424074074074074],[0.06302083333333333,-0.3979629629629629],[0.12572916666666673,-0.41074074074074074],[0.1678124999999999,-0.48777777777777775],[0.2256249999999999,-0.5929629629629629],[0.27999999999999997,-0.7294444444444445],[0.32489583333333344,-0.7025925925925925],[0.3697916666666667,-0.6757407407407408],[0.39052083333333343,-0.5907407407407408],[0.41291666666666677,-0.5653703703703704],[0.46687500000000004,-0.5355555555555556],[0.5180208333333333,-0.5531481481481482],[0.5291666666666667,-0.5453703703703704],[0.5566666666666668,-0.4888888888888889],[0.5580208333333334,-0.47074074074074074],[0.5897916666666667,-0.4227777777777778],[0.5642708333333334,-0.45],[0.5912499999999999,-0.5533333333333333],[0.6188541666666666,-0.7429629629629629],[0.6711458333333333,-0.7975925925925925],[0.6928124999999999,-0.8446296296296296],[0.6528125,-0.8166666666666667],[0.6462500000000001,-0.7820370370370371],[0.6462500000000001,-0.7820370370370371],[0.685625,-0.7681481481481481],[0.7392708333333334,-0.7470370370370369],[0.740625,-0.7194444444444444],[0.7429166666666667,-0.6688888888888889],[0.6927083333333334,-0.5422222222222223],[0.6705208333333333,-0.3844444444444445],[0.6534375,-0.31351851851851853],[0.6363541666666668,-0.24259259259259258],[0.6228125000000001,-0.23962962962962958],[0.6092708333333334,-0.2366666666666667],[0.5865624999999999,-0.2766666666666666],[0.5635416666666667,-0.20259259259259255],[0.6083333333333333,-0.255],[0.6728125000000001,-0.2794444444444444],[0.6315624999999999,-0.2983333333333334],[0.5903125,-0.31722222222222224],[0.5646874999999999,-0.2929629629629629],[0.5301041666666667,-0.3705555555555556],[0.5181250000000001,-0.4153703703703704],[0.5480208333333333,-0.4142592592592592],[0.5411458333333333,-0.34944444444444445],[0.5758333333333333,-0.4711111111111111],[0.5645833333333333,-0.5025925925925926],[0.5169791666666667,-0.5457407407407407],[0.5751041666666665,-0.5944444444444444],[0.6053124999999999,-0.6509259259259259],[0.5884375000000001,-0.7390740740740741],[0.5705208333333334,-0.6051851851851852],[0.5705208333333334,-0.6051851851851852],[0.5881249999999999,-0.5111111111111111],[0.4900000000000001,-0.5225925925925926],[0.42427083333333326,-0.5472222222222223],[0.3229166666666667,-0.43574074074074076],[0.25270833333333326,-0.30537037037037035],[0.15125000000000005,-0.25407407407407406],[0.049791666666666616,-0.20277777777777778],[0.030416666666666713,-0.17777777777777778],[-0.0020833333333333333,-0.10666666666666672],[-0.020833333333333332,-0.1412962962962963],[-0.07989583333333337,-0.18851851851851853],[-0.06510416666666667,-0.17611111111111116],[-0.090625,-0.15185185185185185],[-0.10666666666666665,-0.14981481481481476],[-0.13614583333333338,-0.1933333333333333],[-0.11864583333333331,-0.19703703703703698],[-0.04812500000000005,-0.2081481481481481],[-0.03177083333333333,-0.18518518518518517],[-0.058229166666666644,-0.3198148148148148],[-0.08739583333333331,-0.4542592592592593],[-0.08718750000000004,-0.46111111111111114],[-0.0985416666666667,-0.45759259259259266],[-0.04114583333333333,-0.47259259259259256],[0.019270833333333334,-0.5246296296296297],[0.019270833333333334,-0.5246296296296297],[0.05572916666666667,-0.5233333333333334],[0.04854166666666669,-0.4933333333333333],[-0.029062499999999977,-0.4142592592592592],[-0.10666666666666665,-0.3351851851851852],[-0.10364583333333334,-0.2388888888888889],[-0.1016666666666667,-0.15722222222222218],[-0.10072916666666672,-0.102962962962963],[-0.08822916666666672,-0.05907407407407403],[-0.06531250000000005,-0.07888888888888893],[-0.04864583333333338,-0.072037037037037],[-0.059583333333333384,-0.021481481481481525],[-0.06114583333333338,0.01592592592592597],[-0.0453125,0.011666666666666582],[-0.010520833333333358,-0.017592592592592594],[-0.000416666666666643,0.04740740740740745],[0.042708333333333334,0.11259259259259251],[0.0978125000000001,0.09018518518518527],[0.09718749999999995,0.02962962962962963],[0.025312499999999953,0.05259259259259255],[0.008020833333333382,0.06759259259259259],[0.024583333333333356,0.012222222222222264],[0.024583333333333356,0.012222222222222264],[0.10031249999999996,-0.10351851851851848],[0.17604166666666668,-0.2192592592592592],[0.20625,-0.30037037037037034],[0.24833333333333343,-0.3522222222222222],[0.25322916666666656,-0.4148148148148148],[0.25812499999999994,-0.47740740740740745],[0.3319791666666667,-0.5433333333333333],[0.4058333333333332,-0.6092592592592593],[0.3711458333333333,-0.5842592592592593],[0.33645833333333336,-0.5592592592592592],[0.2630208333333333,-0.5181481481481481],[0.24447916666666672,-0.45870370370370367],[0.2525000000000001,-0.4088888888888889],[0.2267708333333334,-0.41203703703703703],[0.2267708333333334,-0.41203703703703703],[0.20520833333333333,-0.4046296296296296],[0.20520833333333333,-0.4046296296296296],[0.20322916666666657,-0.4346296296296296],[0.20322916666666657,-0.4346296296296296],[0.1578125,-0.34333333333333327],[0.1578125,-0.34333333333333327],[0.10499999999999995,-0.317037037037037],[0.10499999999999995,-0.317037037037037],[0.11427083333333338,-0.2518518518518518],[0.11427083333333338,-0.2518518518518518],[0.10437500000000005,-0.24000000000000005],[0.13708333333333325,-0.17444444444444443],[0.11489583333333328,-0.1272222222222222],[0.11479166666666671,-0.1294444444444444],[0.1171875,-0.12259259259259257],[0.08052083333333329,-0.06703703703703702],[0.023958333333333335,0.004814814814814857],[0.024062500000000025,0.03370370370370379],[0.02354166666666669,0.14314814814814805],[0.025520833333333333,0.07462962962962955],[0.044062499999999956,0.08092592592592601],[0.028750000000000022,0.07222222222222222],[0.026979166666666644,0.02240740740740745],[0.020833333333333332,-0.03462962962962971],[0.0796875,-0.034074074074074034],[0.13020833333333334,-0.028703703703703703],[0.19031250000000005,-0.09296296296296294],[0.26322916666666674,-0.18185185185185182],[0.278125,-0.2733333333333334],[0.28239583333333323,-0.3087037037037037],[0.2928124999999999,-0.3183333333333333],[0.30833333333333335,-0.33796296296296297],[0.2883333333333333,-0.3701851851851851],[0.25062499999999993,-0.34574074074074074],[0.16375000000000003,-0.32537037037037037],[0.15947916666666656,-0.36870370370370376],[0.13697916666666668,-0.3624074074074074],[0.13135416666666658,-0.38203703703703706],[0.14010416666666667,-0.3877777777777777],[0.13479166666666675,-0.39592592592592596],[0.14593749999999991,-0.4594444444444445],[0.1883333333333333,-0.527962962962963],[0.20343749999999997,-0.5385185185185185],[0.2275000000000001,-0.5883333333333333],[0.25510416666666674,-0.6770370370370371],[0.2738541666666668,-0.7387037037037036],[0.3015625,-0.7592592592592593],[0.2952083333333334,-0.7759259259259259],[0.31312499999999993,-0.8005555555555556],[0.3451041666666666,-0.8227777777777778],[0.37052083333333335,-0.8162962962962963],[0.35812499999999997,-0.8240740740740741],[0.35437500000000005,-0.8046296296296296],[0.3416666666666667,-0.745925925925926],[0.3515625,-0.6835185185185185],[0.3351041666666667,-0.637962962962963],[0.2911458333333333,-0.5861111111111111],[0.24114583333333334,-0.5424074074074073],[0.2025000000000001,-0.49962962962962965],[0.19677083333333342,-0.4368518518518518],[0.17760416666666667,-0.39462962962962966],[0.16083333333333344,-0.35240740740740745],[0.15812499999999996,-0.36129629629629634],[0.11572916666666658,-0.32944444444444443],[0.1040625000000001,-0.3111111111111111],[0.07135416666666666,-0.3151851851851852],[0.06614583333333333,-0.3255555555555556],[0.09635416666666667,-0.3387037037037037],[0.14260416666666675,-0.3698148148148148],[0.07958333333333342,-0.372037037037037],[0.016562499999999977,-0.3742592592592593],[-0.01395833333333331,-0.3933333333333333],[-0.017916666666666713,-0.39277777777777784],[0.05677083333333333,-0.4375925925925926]]","[[-0.30354166666666665,-0.11814814814814817,0.00020000000298381337],[-0.30354166666666665,-0.11814814814814817,0.04540000000596223],[-0.24427083333333333,-0.0992592592592593,0.05570000000297881],[-0.24427083333333333,-0.0992592592592593,0.07250000000000512],[-0.24906250000000002,-0.042407407407407366,0.08890000000596388],[-0.2397916666666667,-0.023333333333333376,0.10580000000447143],[-0.24729166666666663,0.04148148148148144,0.12510000000149546],[-0.2616666666666667,0.17314814814814813,0.14070000000297966],[-0.2633333333333333,0.2403703703703703,0.15570000000298023],[-0.25593750000000004,0.21814814814814806,0.1728000000044716],[-0.20989583333333334,0.11444444444444436,0.18900000000000006],[-0.17239583333333333,0.027222222222222307,0.20630000000447524],[-0.12708333333333333,0.007962962962962878,0.22400000000000375],[-0.19468749999999999,-0.0235185185185186,0.24220000000298114],[-0.1998958333333333,-0.03518518518518519,0.25730000000447006],[-0.20510416666666664,-0.04685185185185177,0.27230000000447063],[-0.17802083333333332,-0.11240740740740739,0.2890000000000015],[-0.16416666666666668,-0.18759259259259262,0.3060000000000045],[-0.1742708333333333,-0.21648148148148144,0.3228000000044702],[-0.15989583333333332,-0.19537037037037036,0.3389000000059639],[-0.15583333333333335,-0.11981481481481479,0.3557000000029831],[-0.12635416666666663,-0.07574074074074069,0.3724000000059604],[-0.15208333333333332,-0.0418518518518519,0.38910000000149125],[-0.08927083333333338,-0.0514814814814814,0.40570000000298023],[0.0078125,-0.08351851851851856,0.4223000000044692],[0.0078125,-0.08351851851851856,0.4389000000059653],[0.033854166666666664,-0.09222222222222225,0.4557000000029845],[0.06666666666666667,-0.11574074074074074,0.47330000000447114],[0.06666666666666667,-0.11574074074074074,0.4953000000044696],[0.11270833333333338,-0.12962962962962962,0.5114000000059633],[0.17572916666666671,-0.11351851851851855,0.525500000000001],[0.23708333333333323,-0.13481481481481483,0.5395000000000039],[0.24166666666666667,-0.12962962962962962,0.5558000000044743],[0.22937500000000005,-0.10944444444444448,0.5723000000044749],[0.29270833333333335,-0.14314814814814816,0.5889999999999986],[0.26749999999999996,-0.13333333333333333,0.6056000000014947],[0.20281250000000003,-0.15759259259259265,0.6224000000059604],[0.2326041666666666,-0.16444444444444448,0.6390000000000029],[0.21416666666666656,-0.18055555555555555,0.6557000000029802],[0.19572916666666676,-0.19666666666666666,0.6731000000014902],[0.20583333333333323,-0.20925925925925926,0.6890000000000001],[0.21593749999999995,-0.22185185185185188,0.705600000001489],[0.2259375000000001,-0.3025925925925925,0.7224000000059618],[0.24083333333333337,-0.3427777777777778,0.7389000000059625],[0.21666666666666667,-0.3483333333333334,0.7557000000029817],[0.23333333333333334,-0.36314814814814816,0.7723000000044706],[0.2663541666666667,-0.4007407407407407,0.7890000000000015],[0.21302083333333333,-0.38203703703703706,0.8057000000029788],[0.1790625000000001,-0.3351851851851852,0.8223000000044749],[0.11375000000000005,-0.290925925925926,0.8389999999999986],[0.01416666666666669,-0.262037037037037,0.8557000000029831],[-0.041979166666666616,-0.22111111111111106,0.872300000004472],[-0.034895833333333334,-0.11574074074074074,0.8890000000000029],[-0.03270833333333331,-0.05092592592592592,0.9057000000029802],[-0.049479166666666664,-0.02629629629629638,0.9222000000029809],[-0.10708333333333328,0.007592592592592635,0.9389000000059653],[-0.11843750000000004,0.0772222222222223,0.9557000000029845],[-0.0907291666666667,0.09037037037037028,0.9723000000044735],[-0.09166666666666666,0.06018518518518518,0.9923000000044695],[-0.04458333333333329,0.07611111111111116,1.0083000000044748],[-0.03895833333333331,0.11148148148148157,1.022400000005959],[-0.07677083333333339,0.13481481481481472,1.0391000000014898],[-0.07104166666666671,0.1257407407407407,1.0609000000059652],[-0.09968750000000005,0.0418518518518519,1.0759000000059658],[-0.10510416666666664,0.013703703703703662,1.0898000000044732],[-0.12625000000000006,0.013703703703703662,1.1059000000059598],[-0.19604166666666673,0.06444444444444436,1.1264000000059653],[-0.17520833333333338,-0.013518518518518435,1.141600000001489],[-0.12572916666666673,-0.04814814814814815,1.156300000004471],[-0.09739583333333333,-0.12925925925925927,1.1723000000044692],[-0.027604166666666666,-0.22981481481481486,1.1889000000059653],[-0.027604166666666666,-0.22981481481481486,1.205600000001489],[0.04125000000000002,-0.3424074074074074,1.2223000000044735],[0.06302083333333333,-0.3979629629629629,1.2406000000014927],[0.12572916666666673,-0.41074074074074074,1.2557000000029817],[0.1678124999999999,-0.48777777777777775,1.2752000000029824],[0.2256249999999999,-0.5929629629629629,1.2889000000059596],[0.27999999999999997,-0.7294444444444445,1.3079999999999998],[0.32489583333333344,-0.7025925925925925,1.3225000000000051],[0.3697916666666667,-0.6757407407407408,1.3392000000029824],[0.39052083333333343,-0.5907407407407408,1.3583000000044692],[0.41291666666666677,-0.5653703703703704,1.3726000000014906],[0.46687500000000004,-0.5355555555555556,1.3891000000014913],[0.5180208333333333,-0.5531481481481482,1.4087000000029803],[0.5291666666666667,-0.5453703703703704,1.4224000000059647],[0.5566666666666668,-0.4888888888888889,1.4391000000014955],[0.5580208333333334,-0.47074074074074074,1.460300000004473],[0.5897916666666667,-0.4227777777777778,1.4747000000029828],[0.5642708333333334,-0.45,1.4891000000014927],[0.5912499999999999,-0.5533333333333333,1.50580000000447],[0.6188541666666666,-0.7429629629629629,1.5259000000059615],[0.6711458333333333,-0.7975925925925925,1.5397000000029806],[0.6928124999999999,-0.8446296296296296,1.5588000000044744],[0.6528125,-0.8166666666666667,1.5725000000000051],[0.6462500000000001,-0.7820370370370371,1.5889000000059639],[0.6462500000000001,-0.7820370370370371,1.6056000000014947],[0.685625,-0.7681481481481481,1.6222000000029837],[0.7392708333333334,-0.7470370370370369,1.6391000000014913],[0.740625,-0.7194444444444444,1.6557000000029802],[0.7429166666666667,-0.6688888888888889,1.67290000000596],[0.6927083333333334,-0.5422222222222223,1.6889000000059653],[0.6705208333333333,-0.3844444444444445,1.7057000000029845],[0.6534375,-0.31351851851851853,1.7223000000044735],[0.6363541666666668,-0.24259259259259258,1.7389000000059625],[0.6228125000000001,-0.23962962962962958,1.7557000000029817],[0.6092708333333334,-0.2366666666666667,1.7723000000044706],[0.5865624999999999,-0.2766666666666666,1.7890000000000015],[0.5635416666666667,-0.20259259259259255,1.8056000000014905],[0.6083333333333333,-0.255,1.822300000004475],[0.6728125000000001,-0.2794444444444444,1.8389000000059639],[0.6315624999999999,-0.2983333333333334,1.855700000002983],[0.5903125,-0.31722222222222224,1.872700000002979],[0.5646874999999999,-0.2929629629629629,1.889000000000003],[0.5301041666666667,-0.3705555555555556,1.9056000000014919],[0.5181250000000001,-0.4153703703703704,1.9223000000044692],[0.5480208333333333,-0.4142592592592592,1.942900000005963],[0.5411458333333333,-0.34944444444444445,1.95920000000298],[0.5758333333333333,-0.4711111111111111,1.9748000000044712],[0.5645833333333333,-0.5025925925925926,1.9894999999999996],[0.5169791666666667,-0.5457407407407407,2.008100000001491],[0.5751041666666665,-0.5944444444444444,2.0222000000029823],[0.6053124999999999,-0.6509259259259259,2.039600000001492],[0.5884375000000001,-0.7390740740740741,2.0566000000014952],[0.5705208333333334,-0.6051851851851852,2.0745000000000005],[0.5705208333333334,-0.6051851851851852,2.088900000005964],[0.5881249999999999,-0.5111111111111111,2.1056000000014947],[0.4900000000000001,-0.5225925925925926,2.1222000000029837],[0.42427083333333326,-0.5472222222222223,2.143300000004473],[0.3229166666666667,-0.43574074074074076,2.160100000001492],[0.25270833333333326,-0.30537037037037035,2.1766000000014927],[0.15125000000000005,-0.25407407407407406,2.1923000000044723],[0.049791666666666616,-0.20277777777777778,2.2079000000059636],[0.030416666666666713,-0.17777777777777778,2.224800000004471],[-0.0020833333333333333,-0.10666666666666672,2.2389000000059625],[-0.020833333333333332,-0.1412962962962963,2.2587000000029818],[-0.07989583333333337,-0.18851851851851853,2.2745000000000033],[-0.06510416666666667,-0.17611111111111116,2.2889000000059596],[-0.090625,-0.15185185185185185,2.308],[-0.10666666666666665,-0.14981481481481476,2.322300000004475],[-0.13614583333333338,-0.1933333333333333,2.3432000000029802],[-0.11864583333333331,-0.19703703703703698,2.3602000000029832],[-0.04812500000000005,-0.2081481481481481,2.37630000000447],[-0.03177083333333333,-0.18518518518518517,2.391200000002982],[-0.058229166666666644,-0.3198148148148148,2.4083000000044734],[-0.08739583333333331,-0.4542592592592593,2.422200000002981],[-0.08718750000000004,-0.46111111111111114,2.439200000002984],[-0.0985416666666667,-0.45759259259259266,2.455800000004473],[-0.04114583333333333,-0.47259259259259256,2.4746000000014945],[0.019270833333333334,-0.5246296296296297,2.4889000000059625],[0.019270833333333334,-0.5246296296296297,2.5057000000029817],[0.05572916666666667,-0.5233333333333334,2.5223000000044706],[0.04854166666666669,-0.4933333333333333,2.53910000000149],[-0.029062499999999977,-0.4142592592592592,2.5558000000044743],[-0.10666666666666665,-0.3351851851851852,2.5722000000029794],[-0.10364583333333334,-0.2388888888888889,2.588900000005964],[-0.1016666666666667,-0.15722222222222218,2.6056000000014947],[-0.10072916666666672,-0.102962962962963,2.622300000004472],[-0.08822916666666672,-0.05907407407407403,2.638900000005961],[-0.06531250000000005,-0.07888888888888893,2.6580000000000013],[-0.04864583333333338,-0.072037037037037,2.672300000004469],[-0.059583333333333384,-0.021481481481481525,2.689],[-0.06114583333333338,0.01592592592592597,2.708200000002982],[-0.0453125,0.011666666666666582,2.7225000000000037],[-0.010520833333333358,-0.017592592592592594,2.743000000000002],[-0.000416666666666643,0.04740740740740745,2.760900000005961],[0.042708333333333334,0.11259259259259251,2.77620000000298],[0.0978125000000001,0.09018518518518527,2.7912000000029806],[0.09718749999999995,0.02962962962962963,2.807900000005965],[0.025312499999999953,0.05259259259259255,2.824600000001489],[0.008020833333333382,0.06759259259259259,2.841600000001492],[0.024583333333333356,0.012222222222222264,2.8560000000000016],[0.024583333333333356,0.012222222222222264,2.872300000004472],[0.10031249999999996,-0.10351851851851848,2.888900000005961],[0.17604166666666668,-0.2192592592592592,2.905600000001492],[0.20625,-0.30037037037037034,2.926000000000002],[0.24833333333333343,-0.3522222222222222,2.9436000000014957],[0.25322916666666656,-0.4148148148148148,2.960100000001489],[0.25812499999999994,-0.47740740740740745,2.9783000000044737],[0.3319791666666667,-0.5433333333333333,2.9927000000029835],[0.4058333333333332,-0.6092592592592593,3.0080000000000027],[0.3711458333333333,-0.5842592592592593,3.0223000000044706],[0.33645833333333336,-0.5592592592592592,3.0389000000059596],[0.2630208333333333,-0.5181481481481481,3.058300000004472],[0.24447916666666672,-0.45870370370370367,3.074600000001489],[0.2525000000000001,-0.4088888888888889,3.0929000000059617],[0.2267708333333334,-0.41203703703703703,3.111200000002981],[0.2267708333333334,-0.41203703703703703,3.122300000004472],[0.20520833333333333,-0.4046296296296296,3.139000000000003],[0.20520833333333333,-0.4046296296296296,3.1557000000029802],[0.20322916666666657,-0.4346296296296296,3.172300000004469],[0.20322916666666657,-0.4346296296296296,3.1889000000059653],[0.1578125,-0.34333333333333327,3.2057000000029845],[0.1578125,-0.34333333333333327,3.2223000000044735],[0.10499999999999995,-0.317037037037037,3.2389000000059625],[0.10499999999999995,-0.317037037037037,3.2557000000029817],[0.11427083333333338,-0.2518518518518518,3.2723000000044706],[0.11427083333333338,-0.2518518518518518,3.2889000000059596],[0.10437500000000005,-0.24000000000000005,3.3056000000014905],[0.13708333333333325,-0.17444444444444443,3.3224000000059632],[0.11489583333333328,-0.1272222222222222,3.338900000005964],[0.11479166666666671,-0.1294444444444444,3.356400000005962],[0.1171875,-0.12259259259259257,3.3724000000059604],[0.08052083333333329,-0.06703703703703702,3.388900000005961],[0.023958333333333335,0.004814814814814857,3.405600000001492],[0.024062500000000025,0.03370370370370379,3.422200000002981],[0.02354166666666669,0.14314814814814805,3.4389000000059653],[0.025520833333333333,0.07462962962962955,3.4557000000029845],[0.044062499999999956,0.08092592592592601,3.472200000002985],[0.028750000000000022,0.07222222222222222,3.4894999999999996],[0.026979166666666644,0.02240740740740745,3.508300000004475],[0.020833333333333332,-0.03462962962962971,3.522500000000001],[0.0796875,-0.034074074074074034,3.5389000000059596],[0.13020833333333334,-0.028703703703703703,3.5566000000014952],[0.19031250000000005,-0.09296296296296294,3.573800000004475],[0.26322916666666674,-0.18185185185185182,3.588900000005964],[0.278125,-0.2733333333333334,3.608000000000004],[0.28239583333333323,-0.3087037037037037,3.622300000004472],[0.2928124999999999,-0.3183333333333333,3.638900000005961],[0.30833333333333335,-0.33796296296296297,3.655600000001492],[0.2883333333333333,-0.3701851851851851,3.6724000000059647],[0.25062499999999993,-0.34574074074074074,3.6909000000059606],[0.16375000000000003,-0.32537037037037037,3.708500000000001],[0.15947916666666656,-0.36870370370370376,3.7252000000029852],[0.13697916666666668,-0.3624074074074074,3.742600000001495],[0.13135416666666658,-0.38203703703703706,3.7590000000000003],[0.14010416666666667,-0.3877777777777777,3.7738000000044707],[0.13479166666666675,-0.39592592592592596,3.7893000000044736],[0.14593749999999991,-0.4594444444444445,3.8056000000014905],[0.1883333333333333,-0.527962962962963,3.822300000004475],[0.20343749999999997,-0.5385185185185185,3.838900000005964],[0.2275000000000001,-0.5883333333333333,3.8558000000044714],[0.25510416666666674,-0.6770370370370371,3.8722000000029837],[0.2738541666666668,-0.7387037037037036,3.888900000005961],[0.3015625,-0.7592592592592593,3.909900000005962],[0.2952083333333334,-0.7759259259259259,3.9251000000014926],[0.31312499999999993,-0.8005555555555556,3.9395000000000024],[0.3451041666666666,-0.8227777777777778,3.9564000000059636],[0.37052083333333335,-0.8162962962962963,3.9750000000000014],[0.35812499999999997,-0.8240740740740741,3.9889000000059625],[0.35437500000000005,-0.8046296296296296,4.009100000001489],[0.3416666666666667,-0.745925925925926,4.0248000000044755],[0.3515625,-0.6835185185185185,4.0390000000000015],[0.3351041666666667,-0.637962962962963,4.0556000000014905],[0.2911458333333333,-0.5861111111111111,4.072300000004475],[0.24114583333333334,-0.5424074074074073,4.088999999999999],[0.2025000000000001,-0.49962962962962965,4.105600000001495],[0.19677083333333342,-0.4368518518518518,4.122200000002984],[0.17760416666666667,-0.39462962962962966,4.138800000004473],[0.16083333333333344,-0.35240740740740745,4.156400000005959],[0.15812499999999996,-0.36129629629629634,4.172200000002981],[0.11572916666666658,-0.32944444444444443,4.190400000005965],[0.1040625000000001,-0.3111111111111111,4.205500000000001],[0.07135416666666666,-0.3151851851851852,4.222200000002985],[0.06614583333333333,-0.3255555555555556,4.2389000000059625],[0.09635416666666667,-0.3387037037037037,4.255700000002982],[0.14260416666666675,-0.3698148148148148,4.272200000002982],[0.07958333333333342,-0.372037037037037,4.28890000000596],[0.016562499999999977,-0.3742592592592593,4.3056000000014905],[-0.01395833333333331,-0.3933333333333333,4.322400000005963],[-0.017916666666666713,-0.39277777777777784,4.338900000005964],[0.05677083333333333,-0.4375925925925926,4.371500000000005]]","[0.00020000000298381337,0.04540000000596223,0.05570000000297881,0.07250000000000512,0.08890000000596388,0.10580000000447143,0.12510000000149546,0.14070000000297966,0.15570000000298023,0.1728000000044716,0.18900000000000006,0.20630000000447524,0.22400000000000375,0.24220000000298114,0.25730000000447006,0.27230000000447063,0.2890000000000015,0.3060000000000045,0.3228000000044702,0.3389000000059639,0.3557000000029831,0.3724000000059604,0.38910000000149125,0.40570000000298023,0.4223000000044692,0.4389000000059653,0.4557000000029845,0.47330000000447114,0.4953000000044696,0.5114000000059633,0.525500000000001,0.5395000000000039,0.5558000000044743,0.5723000000044749,0.5889999999999986,0.6056000000014947,0.6224000000059604,0.6390000000000029,0.6557000000029802,0.6731000000014902,0.6890000000000001,0.705600000001489,0.7224000000059618,0.7389000000059625,0.7557000000029817,0.7723000000044706,0.7890000000000015,0.8057000000029788,0.8223000000044749,0.8389999999999986,0.8557000000029831,0.872300000004472,0.8890000000000029,0.9057000000029802,0.9222000000029809,0.9389000000059653,0.9557000000029845,0.9723000000044735,0.9923000000044695,1.0083000000044748,1.022400000005959,1.0391000000014898,1.0609000000059652,1.0759000000059658,1.0898000000044732,1.1059000000059598,1.1264000000059653,1.141600000001489,1.156300000004471,1.1723000000044692,1.1889000000059653,1.205600000001489,1.2223000000044735,1.2406000000014927,1.2557000000029817,1.2752000000029824,1.2889000000059596,1.3079999999999998,1.3225000000000051,1.3392000000029824,1.3583000000044692,1.3726000000014906,1.3891000000014913,1.4087000000029803,1.4224000000059647,1.4391000000014955,1.460300000004473,1.4747000000029828,1.4891000000014927,1.50580000000447,1.5259000000059615,1.5397000000029806,1.5588000000044744,1.5725000000000051,1.5889000000059639,1.6056000000014947,1.6222000000029837,1.6391000000014913,1.6557000000029802,1.67290000000596,1.6889000000059653,1.7057000000029845,1.7223000000044735,1.7389000000059625,1.7557000000029817,1.7723000000044706,1.7890000000000015,1.8056000000014905,1.822300000004475,1.8389000000059639,1.855700000002983,1.872700000002979,1.889000000000003,1.9056000000014919,1.9223000000044692,1.942900000005963,1.95920000000298,1.9748000000044712,1.9894999999999996,2.008100000001491,2.0222000000029823,2.039600000001492,2.0566000000014952,2.0745000000000005,2.088900000005964,2.1056000000014947,2.1222000000029837,2.143300000004473,2.160100000001492,2.1766000000014927,2.1923000000044723,2.2079000000059636,2.224800000004471,2.2389000000059625,2.2587000000029818,2.2745000000000033,2.2889000000059596,2.308,2.322300000004475,2.3432000000029802,2.3602000000029832,2.37630000000447,2.391200000002982,2.4083000000044734,2.422200000002981,2.439200000002984,2.455800000004473,2.4746000000014945,2.4889000000059625,2.5057000000029817,2.5223000000044706,2.53910000000149,2.5558000000044743,2.5722000000029794,2.588900000005964,2.6056000000014947,2.622300000004472,2.638900000005961,2.6580000000000013,2.672300000004469,2.689,2.708200000002982,2.7225000000000037,2.743000000000002,2.760900000005961,2.77620000000298,2.7912000000029806,2.807900000005965,2.824600000001489,2.841600000001492,2.8560000000000016,2.872300000004472,2.888900000005961,2.905600000001492,2.926000000000002,2.9436000000014957,2.960100000001489,2.9783000000044737,2.9927000000029835,3.0080000000000027,3.0223000000044706,3.0389000000059596,3.058300000004472,3.074600000001489,3.0929000000059617,3.111200000002981,3.122300000004472,3.139000000000003,3.1557000000029802,3.172300000004469,3.1889000000059653,3.2057000000029845,3.2223000000044735,3.2389000000059625,3.2557000000029817,3.2723000000044706,3.2889000000059596,3.3056000000014905,3.3224000000059632,3.338900000005964,3.356400000005962,3.3724000000059604,3.388900000005961,3.405600000001492,3.422200000002981,3.4389000000059653,3.4557000000029845,3.472200000002985,3.4894999999999996,3.508300000004475,3.522500000000001,3.5389000000059596,3.5566000000014952,3.573800000004475,3.588900000005964,3.608000000000004,3.622300000004472,3.638900000005961,3.655600000001492,3.6724000000059647,3.6909000000059606,3.708500000000001,3.7252000000029852,3.742600000001495,3.7590000000000003,3.7738000000044707,3.7893000000044736,3.8056000000014905,3.822300000004475,3.838900000005964,3.8558000000044714,3.8722000000029837,3.888900000005961,3.909900000005962,3.9251000000014926,3.9395000000000024,3.9564000000059636,3.9750000000000014,3.9889000000059625,4.009100000001489,4.0248000000044755,4.0390000000000015,4.0556000000014905,4.072300000004475,4.088999999999999,4.105600000001495,4.122200000002984,4.138800000004473,4.156400000005959,4.172200000002981,4.190400000005965,4.205500000000001,4.222200000002985,4.2389000000059625,4.255700000002982,4.272200000002982,4.28890000000596,4.3056000000014905,4.322400000005963,4.338900000005964,4.371500000000005]","[1733292290166,1733292290204,1733292290214,1733292290231,1733292290247,1733292290264,1733292290283,1733292290299,1733292290314,1733292290331,1733292290347,1733292290365,1733292290382,1733292290401,1733292290416,1733292290431,1733292290447,1733292290466,1733292290483,1733292290499,1733292290516,1733292290533,1733292290549,1733292290566,1733292290583,1733292290599,1733292290616,1733292290634,1733292290656,1733292290672,1733292290686,1733292290700,1733292290716,1733292290733,1733292290749,1733292290766,1733292290783,1733292290799,1733292290816,1733292290833,1733292290849,1733292290866,1733292290883,1733292290899,1733292290916,1733292290933,1733292290949,1733292290966,1733292290983,1733292290999,1733292291016,1733292291033,1733292291049,1733292291066,1733292291083,1733292291099,1733292291116,1733292291133,1733292291153,1733292291169,1733292291183,1733292291199,1733292291221,1733292291236,1733292291250,1733292291266,1733292291287,1733292291302,1733292291317,1733292291333,1733292291349,1733292291366,1733292291383,1733292291401,1733292291416,1733292291436,1733292291449,1733292291468,1733292291483,1733292291500,1733292291519,1733292291533,1733292291549,1733292291569,1733292291583,1733292291599,1733292291621,1733292291635,1733292291649,1733292291666,1733292291686,1733292291700,1733292291719,1733292291733,1733292291749,1733292291766,1733292291783,1733292291799,1733292291816,1733292291833,1733292291849,1733292291866,1733292291883,1733292291899,1733292291916,1733292291933,1733292291949,1733292291966,1733292291983,1733292291999,1733292292016,1733292292033,1733292292049,1733292292066,1733292292083,1733292292103,1733292292120,1733292292135,1733292292150,1733292292168,1733292292183,1733292292200,1733292292217,1733292292235,1733292292249,1733292292266,1733292292283,1733292292304,1733292292320,1733292292337,1733292292353,1733292292368,1733292292385,1733292292399,1733292292419,1733292292435,1733292292449,1733292292468,1733292292483,1733292292503,1733292292520,1733292292537,1733292292551,1733292292569,1733292292583,1733292292599,1733292292616,1733292292635,1733292292649,1733292292666,1733292292683,1733292292699,1733292292716,1733292292732,1733292292749,1733292292766,1733292292783,1733292292799,1733292292818,1733292292833,1733292292849,1733292292868,1733292292883,1733292292903,1733292292921,1733292292937,1733292292951,1733292292968,1733292292985,1733292293002,1733292293016,1733292293033,1733292293049,1733292293066,1733292293086,1733292293104,1733292293120,1733292293139,1733292293153,1733292293168,1733292293183,1733292293199,1733292293219,1733292293235,1733292293253,1733292293271,1733292293283,1733292293299,1733292293316,1733292293333,1733292293349,1733292293366,1733292293383,1733292293399,1733292293416,1733292293433,1733292293449,1733292293466,1733292293483,1733292293499,1733292293517,1733292293533,1733292293549,1733292293566,1733292293583,1733292293599,1733292293616,1733292293633,1733292293650,1733292293669,1733292293683,1733292293699,1733292293717,1733292293734,1733292293749,1733292293768,1733292293783,1733292293799,1733292293816,1733292293833,1733292293851,1733292293869,1733292293885,1733292293903,1733292293919,1733292293934,1733292293950,1733292293966,1733292293983,1733292293999,1733292294016,1733292294032,1733292294049,1733292294070,1733292294085,1733292294100,1733292294117,1733292294135,1733292294149,1733292294169,1733292294185,1733292294199,1733292294216,1733292294233,1733292294249,1733292294266,1733292294283,1733292294299,1733292294317,1733292294332,1733292294351,1733292294366,1733292294382,1733292294399,1733292294416,1733292294433,1733292294449,1733292294466,1733292294483,1733292294499,1733292294532]","[[668.6,476.2],[668.6,476.2],[725.5,486.4],[725.5,486.4],[720.9,517.1],[729.8,527.4],[722.6,562.4],[708.8,633.5],[707.2,669.8],[714.3,657.8],[758.5,601.8],[794.5,554.7],[838,544.3],[773.1,527.3],[768.1,521],[763.1,514.7],[789.1,479.3],[802.4,438.7],[792.7,423.1],[806.5,434.5],[810.4,475.3],[838.7,499.1],[814,517.4],[874.3,512.2],[967.5,494.9],[967.5,494.9],[992.5,490.2],[1024,477.5],[1024,477.5],[1068.2,470],[1128.7,478.7],[1187.6,467.2],[1192,470],[1180.2,480.9],[1241,462.7],[1216.8,468],[1154.7,454.9],[1183.3,451.2],[1165.6,442.5],[1147.9,433.8],[1157.6,427],[1167.3,420.2],[1176.9,376.6],[1191.2,354.9],[1168,351.9],[1184,343.9],[1215.7,323.6],[1164.5,333.7],[1131.9,359],[1069.2,382.9],[973.6,398.5],[919.7,420.6],[926.5,477.5],[928.6,512.5],[912.5,525.8],[857.2,544.1],[846.3,581.7],[872.9,588.8],[872,572.5],[917.2,581.1],[922.6,600.2],[886.3,612.8],[891.8,607.9],[864.3,562.6],[859.1,547.4],[838.8,547.4],[771.8,574.8],[791.8,532.7],[839.3,514],[866.5,470.2],[933.5,415.9],[933.5,415.9],[999.6,355.1],[1020.5,325.1],[1080.7,318.2],[1121.1,276.6],[1176.6,219.8],[1228.8,146.1],[1271.9,160.6],[1315,175.1],[1334.9,221],[1356.4,234.7],[1408.2,250.8],[1457.3,241.3],[1468,245.5],[1494.4,276],[1495.7,285.8],[1526.2,311.7],[1501.7,297],[1527.6,241.2],[1554.1,138.8],[1604.3,109.3],[1625.1,83.9],[1586.7,99],[1580.4,117.7],[1580.4,117.7],[1618.2,125.2],[1669.7,136.6],[1671,151.5],[1673.2,178.8],[1625,247.2],[1603.7,332.4],[1587.3,370.7],[1570.9,409],[1557.9,410.6],[1544.9,412.2],[1523.1,390.6],[1501,430.6],[1544,402.3],[1605.9,389.1],[1566.3,378.9],[1526.7,368.7],[1502.1,381.8],[1468.9,339.9],[1457.4,315.7],[1486.1,316.3],[1479.5,351.3],[1512.8,285.6],[1502,268.6],[1456.3,245.3],[1512.1,219],[1541.1,188.5],[1524.9,140.9],[1507.7,213.2],[1507.7,213.2],[1524.6,264],[1430.4,257.8],[1367.3,244.5],[1270,304.7],[1202.6,375.1],[1105.2,402.8],[1007.8,430.5],[989.2,444],[958,482.4],[940,463.7],[883.3,438.2],[897.5,444.9],[873,458],[857.6,459.1],[829.3,435.6],[846.1,433.6],[913.8,427.6],[929.5,440],[904.1,367.3],[876.1,294.7],[876.3,291],[865.4,292.9],[920.5,284.8],[978.5,256.7],[978.5,256.7],[1013.5,257.4],[1006.6,273.6],[932.1,316.3],[857.6,359],[860.5,411],[862.4,455.1],[863.3,484.4],[875.3,508.1],[897.3,497.4],[913.3,501.1],[902.8,528.4],[901.3,548.6],[916.5,546.3],[949.9,530.5],[959.6,565.6],[1001,600.8],[1053.9,588.7],[1053.3,556],[984.3,568.4],[967.7,576.5],[983.6,546.6],[983.6,546.6],[1056.3,484.1],[1129,421.6],[1158,377.8],[1198.4,349.8],[1203.1,316],[1207.8,282.2],[1278.7,246.6],[1349.6,211],[1316.3,224.5],[1283,238],[1212.5,260.2],[1194.7,292.3],[1202.4,319.2],[1177.7,317.5],[1177.7,317.5],[1157,321.5],[1157,321.5],[1155.1,305.3],[1155.1,305.3],[1111.5,354.6],[1111.5,354.6],[1060.8,368.8],[1060.8,368.8],[1069.7,404],[1069.7,404],[1060.2,410.4],[1091.6,445.8],[1070.3,471.3],[1070.2,470.1],[1072.5,473.8],[1037.3,503.8],[983,542.6],[983.1,558.2],[982.6,617.3],[984.5,580.3],[1002.3,583.7],[987.6,579],[985.9,552.1],[980,521.3],[1036.5,521.6],[1085,524.5],[1142.7,489.8],[1212.7,441.8],[1227,392.4],[1231.1,373.3],[1241.1,368.1],[1256,357.5],[1236.8,340.1],[1200.6,353.3],[1117.2,364.3],[1113.1,340.9],[1091.5,344.3],[1086.1,333.7],[1094.5,330.6],[1089.4,326.2],[1100.1,291.9],[1140.8,254.9],[1155.3,249.2],[1178.4,222.3],[1204.9,174.4],[1222.9,141.1],[1249.5,130],[1243.4,121],[1260.6,107.7],[1291.3,95.7],[1315.7,99.2],[1303.8,95],[1300.2,105.5],[1288,137.2],[1297.5,170.9],[1281.7,195.5],[1239.5,223.5],[1191.5,247.1],[1154.4,270.2],[1148.9,304.1],[1130.5,326.9],[1114.4,349.7],[1111.8,344.9],[1071.1,362.1],[1059.9,372],[1028.5,369.8],[1023.5,364.2],[1052.5,357.1],[1096.9,340.3],[1036.4,339.1],[975.9,337.9],[946.6,327.6],[942.8,327.9],[1014.5,303.7]]","[0,0.37864299999999995]","[0.37864299999999995,0.37864299999999995]","[-0.37864299999999995,-0.37864299999999995]","[-0.37864299999999995,0]","[0,-0.37864299999999995]","[0.37864299999999995,-0.37864299999999995]","[0,0]","[0.37864299999999995,0]",0,0,0,0,1,4,Laptop,11,5,13,9
,,,,,,,,,,,,,,,,,,,18,001,2024-12-04_14h04.05.565,Attention_exp_legacy,2023.1.0,Win32,59.88023952,,,,,,,,,,,[0.39375],[0.3851851851851852],[1],[0],[0],[2.386100000001491],"[""Option2_label""]",Option2_label,2,3.3991,"[[0.39375,0.3851851851851852],[0.39375,0.3851851851851852],[0.39375,0.3851851851851852],[0.39375,0.3851851851851852],[0.39375,0.3851851851851852],[0.39375,0.3851851851851852],[0.39375,0.3851851851851852],[0.39375,0.3851851851851852],[0.39375,0.3851851851851852],[0.39375,0.3851851851851852],[0.39375,0.3851851851851852],[0.39375,0.3851851851851852],[0.39375,0.3851851851851852],[0.39375,0.3851851851851852],[0.39375,0.3851851851851852],[0.39375,0.3851851851851852],[0.39375,0.3851851851851852],[0.39375,0.3851851851851852],[0.39375,0.3851851851851852],[0.39375,0.3851851851851852],[0.39375,0.3851851851851852],[0.39375,0.3851851851851852],[0.39375,0.3851851851851852],[0.39375,0.3851851851851852],[0.39375,0.3851851851851852],[0.39375,0.3851851851851852],[0.39375,0.3851851851851852],[0.39375,0.3851851851851852],[0.39375,0.3851851851851852],[0.39375,0.3851851851851852],[0.39375,0.3851851851851852],[0.39375,0.3851851851851852],[0.39375,0.3851851851851852],[0.39375,0.3851851851851852],[0.39375,0.3851851851851852],[0.39375,0.3851851851851852],[0.39375,0.3851851851851852],[0.39375,0.3851851851851852],[0.39375,0.3851851851851852],[0.39375,0.3851851851851852],[0.39375,0.3851851851851852],[0.39375,0.3851851851851852],[0.39375,0.3851851851851852],[0.39375,0.3851851851851852],[0.39375,0.3851851851851852],[0.39375,0.3851851851851852],[0.39375,0.3851851851851852],[0.39375,0.3851851851851852],[0.39375,0.3851851851851852],[0.39375,0.3851851851851852],[0.39375,0.3851851851851852],[0.39375,0.3851851851851852],[0.39375,0.3851851851851852],[0.39375,0.3851851851851852],[0.39375,0.3851851851851852],[0.39375,0.3851851851851852],[0.39375,0.3851851851851852],[0.39375,0.3851851851851852],[0.39375,0.3851851851851852],[0.39375,0.3851851851851852],[0.39375,0.3851851851851852],[0.39375,0.3851851851851852],[0.39375,0.3851851851851852],[0.39375,0.3851851851851852],[0.39375,0.3851851851851852],[0.39375,0.3851851851851852],[0.39375,0.3851851851851852],[0.39375,0.3851851851851852],[0.39375,0.3851851851851852],[0.39375,0.3851851851851852],[0.39375,0.3851851851851852],[0.39375,0.3851851851851852],[0.39375,0.3851851851851852],[0.39375,0.3851851851851852],[0.39375,0.3851851851851852],[0.39375,0.3851851851851852],[0.39375,0.3851851851851852],[0.39375,0.3851851851851852],[0.39375,0.3851851851851852],[0.39375,0.3851851851851852],[0.39375,0.3851851851851852],[0.39375,0.3851851851851852],[0.39375,0.3851851851851852],[0.39375,0.3851851851851852],[0.39375,0.3851851851851852],[0.39375,0.3851851851851852],[0.39375,0.3851851851851852],[0.39375,0.3851851851851852],[0.39375,0.3851851851851852],[0.39375,0.3851851851851852],[0.39375,0.3851851851851852],[0.39375,0.3851851851851852],[0.39375,0.3851851851851852],[0.39375,0.3851851851851852],[0.39375,0.3851851851851852],[0.39375,0.3851851851851852],[0.39375,0.3851851851851852],[0.39375,0.3851851851851852],[0.39375,0.3851851851851852],[0.39375,0.3851851851851852],[0.39375,0.3851851851851852],[0.39375,0.3851851851851852],[0.39375,0.3851851851851852],[0.39375,0.3851851851851852],[0.39375,0.3851851851851852],[0.39375,0.3851851851851852],[0.39375,0.3851851851851852],[0.39375,0.3851851851851852],[0.39375,0.3851851851851852],[0.39375,0.3851851851851852],[0.39375,0.3851851851851852],[0.39375,0.3851851851851852],[0.39375,0.3851851851851852],[0.39375,0.3851851851851852],[0.39375,0.3851851851851852],[0.39375,0.3851851851851852],[0.39375,0.3851851851851852],[0.39375,0.3851851851851852],[0.39375,0.3851851851851852],[0.39375,0.3851851851851852],[0.39375,0.3851851851851852],[0.39375,0.3851851851851852],[0.39375,0.3851851851851852],[0.39375,0.3851851851851852],[0.39375,0.3851851851851852],[0.39375,0.3851851851851852],[0.39375,0.3851851851851852],[0.39375,0.3851851851851852],[0.39375,0.3851851851851852],[0.39375,0.3851851851851852],[0.39375,0.3851851851851852],[0.39375,0.3851851851851852],[0.39375,0.3851851851851852],[0.39375,0.3851851851851852],[0.39375,0.3851851851851852],[0.39375,0.3851851851851852],[0.39375,0.3851851851851852],[0.39375,0.3851851851851852],[0.39375,0.3851851851851852],[0.39375,0.3851851851851852],[0.39375,0.3851851851851852],[0.39375,0.3851851851851852],[0.39375,0.3851851851851852],[0.39375,0.3851851851851852],[0.39375,0.3851851851851852],[0.39375,0.3851851851851852],[0.39375,0.3851851851851852],[0.39375,0.3851851851851852],[0.39375,0.3851851851851852],[0.39375,0.3851851851851852],[0.39375,0.3851851851851852],[0.39375,0.3851851851851852],[0.39375,0.3851851851851852],[0.39375,0.3851851851851852],[0.39375,0.3851851851851852],[0.39375,0.3851851851851852],[0.39375,0.3851851851851852],[0.39375,0.3851851851851852],[0.39375,0.3851851851851852],[0.39375,0.3851851851851852],[0.39375,0.3851851851851852],[0.39375,0.3851851851851852],[0.39375,0.3851851851851852],[0.39375,0.3851851851851852],[0.39375,0.3851851851851852],[0.39375,0.3851851851851852],[0.39375,0.3851851851851852],[0.39375,0.3851851851851852],[0.39375,0.3851851851851852],[0.39375,0.3851851851851852],[0.39375,0.3851851851851852],[0.39375,0.3851851851851852],[0.39375,0.3851851851851852],[0.39375,0.3851851851851852],[0.39375,0.3851851851851852],[0.39375,0.3851851851851852],[0.39375,0.3851851851851852],[0.39375,0.3851851851851852],[0.39375,0.3851851851851852],[0.39375,0.3851851851851852],[0.39375,0.3851851851851852],[0.39375,0.3851851851851852],[0.39375,0.3851851851851852],[0.39375,0.3851851851851852],[0.39375,0.3851851851851852],[0.39375,0.3851851851851852],[0.39375,0.3851851851851852],[0.39375,0.3851851851851852],[0.39375,0.3851851851851852],[0.39375,0.3851851851851852],[0.39375,0.3851851851851852],[0.39375,0.3851851851851852],[0.39375,0.3851851851851852],[0.39375,0.3851851851851852],[0.39375,0.3851851851851852],[0.39375,0.3851851851851852],[0.39375,0.3851851851851852],[0.39375,0.3851851851851852],[0.39375,0.3851851851851852],[0.39375,0.3851851851851852],[0.39375,0.3851851851851852],[0.39375,0.3851851851851852],[0.39375,0.3851851851851852],[0.39375,0.3851851851851852],[0.39375,0.3851851851851852]]","[[-0.027187500000000024,0.18314814814814812],[-0.03812500000000003,0.19166666666666668],[-0.06020833333333329,0.22370370370370363],[-0.08229166666666667,0.25574074074074077],[-0.07541666666666665,0.3164814814814814],[-0.09781249999999998,0.4046296296296296],[-0.021041666666666715,0.4535185185185185],[0.0375,0.48518518518518516],[0.1570833333333333,0.4546296296296296],[0.28927083333333337,0.3968518518518518],[0.46843750000000006,0.3890740740740741],[0.5527083333333332,0.37462962962962953],[0.6330208333333334,0.38870370370370366],[0.6921875,0.3253703703703705],[0.7177083333333333,0.24277777777777781],[0.7953125,0.1596296296296297],[0.8136458333333333,0.07481481481481478],[0.73625,0.02370370370370362],[0.6588541666666666,-0.027407407407407325],[0.6588541666666666,-0.027407407407407325],[0.5688541666666665,-0.05129629629629638],[0.4983333333333334,-0.11851851851851852],[0.5107291666666666,-0.12037037037037036],[0.5129166666666668,-0.10759259259259263],[0.5342708333333335,-0.1264814814814815],[0.5360416666666665,-0.1381481481481482],[0.48375000000000007,-0.17370370370370372],[0.43114583333333345,-0.18796296296296297],[0.4037499999999999,-0.2588888888888889],[0.3763541666666666,-0.32981481481481484],[0.31760416666666674,-0.3990740740740741],[0.26052083333333326,-0.37092592592592594],[0.2039583333333333,-0.4131481481481482],[0.2039583333333333,-0.4131481481481482],[0.13354166666666673,-0.4474074074074075],[0.0853125000000001,-0.4096296296296296],[0.03708333333333336,-0.3718518518518519],[0.05697916666666671,-0.35537037037037034],[0.06031249999999998,-0.3118518518518518],[0.14500000000000005,-0.26796296296296296],[0.2296875,-0.22407407407407406],[0.33624999999999994,-0.1653703703703704],[0.42166666666666663,-0.16074074074074077],[0.42166666666666663,-0.16074074074074077],[0.5070833333333333,-0.15611111111111114],[0.5070833333333333,-0.15611111111111114],[0.5330208333333334,-0.1161111111111111],[0.5330208333333334,-0.1161111111111111],[0.60625,-0.16166666666666668],[0.60625,-0.16166666666666668],[0.6302083333333334,-0.11685185185185189],[0.6302083333333334,-0.11685185185185189],[0.5771874999999999,-0.041666666666666664],[0.5771874999999999,-0.041666666666666664],[0.5613541666666667,-0.09703703703703699],[0.4861458333333334,-0.08518518518518518],[0.4109375,-0.07333333333333338],[0.35093750000000007,-0.10277777777777777],[0.29802083333333323,-0.09129629629629632],[0.2025000000000001,-0.09055555555555551],[0.16979166666666667,-0.17111111111111107],[0.0978125000000001,-0.12129629629629629],[0.084375,-0.18555555555555553],[0.11989583333333324,-0.3362962962962963],[0.12947916666666662,-0.38203703703703706],[0.13604166666666656,-0.4772222222222222],[0.12260416666666671,-0.5146296296296295],[0.09572916666666677,-0.5601851851851852],[0.11010416666666671,-0.6766666666666666],[0.16895833333333338,-0.7964814814814816],[0.18364583333333329,-0.821111111111111],[0.19760416666666672,-0.890925925925926],[0.1875,-0.8492592592592593],[0.17541666666666675,-0.7516666666666666],[0.16239583333333343,-0.7662962962962964],[0.17489583333333342,-0.7594444444444445],[0.203125,-0.7622222222222222],[0.2390625,-0.732037037037037],[0.20583333333333323,-0.7124074074074074],[0.16614583333333333,-0.6068518518518519],[0.18041666666666673,-0.5581481481481481],[0.21239583333333342,-0.6057407407407408],[0.2591666666666666,-0.741111111111111],[0.2591666666666666,-0.741111111111111],[0.2594791666666666,-0.8011111111111111],[0.24510416666666662,-0.6711111111111111],[0.20302083333333343,-0.5794444444444444],[0.25499999999999995,-0.5664814814814815],[0.3069791666666667,-0.5535185185185185],[0.3494791666666667,-0.4818518518518518],[0.3741666666666667,-0.5212962962962963],[0.3890625,-0.5990740740740741],[0.3736458333333334,-0.45796296296296296],[0.36302083333333335,-0.35611111111111116],[0.3160416666666668,-0.2662962962962963],[0.2846874999999999,-0.2542592592592593],[0.3082291666666668,-0.3031481481481481],[0.2169791666666666,-0.2727777777777778],[0.15302083333333344,-0.30481481481481487],[0.15302083333333344,-0.30481481481481487],[0.11937499999999991,-0.355],[0.09958333333333323,-0.3461111111111111],[0.08020833333333334,-0.3285185185185185],[0.05260416666666667,-0.4038888888888889],[0.02020833333333331,-0.44000000000000006],[0.06302083333333333,-0.5275925925925925],[0.10583333333333324,-0.6151851851851852],[0.03999999999999997,-0.5731481481481482],[-0.000833333333333286,-0.5798148148148149],[0.02177083333333331,-0.515],[0.044375000000000026,-0.45018518518518524],[0.008437500000000023,-0.4427777777777778],[-0.02791666666666662,-0.4440740740740741],[-0.10666666666666665,-0.44518518518518513],[-0.13958333333333334,-0.45796296296296296],[-0.17177083333333332,-0.46407407407407414],[-0.16593749999999996,-0.4537037037037037],[-0.09416666666666665,-0.48499999999999993],[-0.027187500000000024,-0.4742592592592593],[-0.07635416666666663,-0.4646296296296296],[-0.07885416666666671,-0.5077777777777778],[-0.01427083333333338,-0.5133333333333333],[0.058541666666666714,-0.5422222222222223],[0.16708333333333342,-0.5635185185185185],[0.2326041666666666,-0.5085185185185186],[0.29812500000000003,-0.4535185185185185],[0.28312499999999996,-0.4281481481481481],[0.2681250000000001,-0.4027777777777778],[0.3069791666666667,-0.4033333333333334],[0.3636458333333332,-0.4105555555555555],[0.3546875,-0.3164814814814814],[0.35927083333333343,-0.3551851851851852],[0.3697916666666667,-0.2838888888888889],[0.4025000000000001,-0.23277777777777775],[0.43239583333333326,-0.2462962962962963],[0.45499999999999996,-0.2368518518518518],[0.5548958333333334,-0.25925925925925924],[0.7842708333333335,-0.4498148148148148],[0.9645833333333333,-0.6564814814814814],[1.1525,-0.8644444444444445],[1.3333333333333333,-1.127962962962963],[1.5006249999999999,-1.2587037037037039],[1.6563541666666666,-1.5050000000000001],[1.7898958333333335,-1.731111111111111],[1.7898958333333335,-1.731111111111111],[1.9413541666666665,-1.9787037037037036],[2.050520833333333,-2.2088888888888887],[2.1248958333333334,-2.394074074074074],[2.086875,-2.4698148148148147],[2.0488541666666666,-2.5455555555555556],[2.0190625,-2.6462962962962964],[2.0153125,-2.7399999999999998],[2.0360416666666667,-2.7729629629629633],[2.024375,-2.7801851851851853],[2.036875,-2.7675925925925924],[1.9947916666666667,-2.759259259259259],[2.0022916666666664,-2.7912962962962964],[2.0121875,-2.8266666666666667],[2.0050000000000003,-2.8033333333333332],[1.9729166666666667,-2.7322222222222226],[1.9484375,-2.6350000000000002],[1.7891666666666666,-2.346481481481481],[1.5939583333333331,-2.1048148148148145],[1.4285416666666668,-1.8599999999999999],[1.2293749999999999,-1.622962962962963],[1.2293749999999999,-1.622962962962963],[1.066875,-1.3601851851851852],[0.8854166666666666,-1.0994444444444444],[0.6844791666666665,-0.8342592592592593],[0.4835416666666667,-0.5690740740740741],[0.35010416666666655,-0.35537037037037034],[0.20083333333333328,-0.1427777777777778],[0.22958333333333342,-0.18370370370370367],[0.2247916666666666,-0.1551851851851852],[0.2247916666666666,-0.1551851851851852],[0.22000000000000006,-0.12666666666666662],[0.3015625,-0.21592592592592597],[0.27468750000000003,-0.2507407407407407],[0.26677083333333323,-0.28351851851851856],[0.3679166666666667,-0.30925925925925923],[0.46906249999999994,-0.33499999999999996],[0.4773958333333333,-0.3587037037037037],[0.4857291666666666,-0.3824074074074074],[0.49760416666666674,-0.3255555555555556],[0.5544791666666666,-0.3520370370370371],[0.5565625,-0.40981481481481485],[0.5565625,-0.40981481481481485],[0.4818749999999999,-0.3618518518518518],[0.5616666666666668,-0.40425925925925926],[0.5616666666666668,-0.40425925925925926],[0.6414583333333332,-0.44666666666666666],[0.6414583333333332,-0.44666666666666666],[0.5787499999999999,-0.4209259259259259],[0.5158333333333334,-0.41388888888888886],[0.4913541666666667,-0.37962962962962965],[0.484375,-0.3622222222222223],[0.42864583333333334,-0.33907407407407414],[0.3572916666666667,-0.29888888888888887],[0.32041666666666657,-0.2953703703703704],[0.31052083333333325,-0.2946296296296297],[0.25458333333333344,-0.257962962962963],[0.20843749999999991,-0.2081481481481481],[0.21281249999999996,-0.2346296296296296],[0.20979166666666677,-0.26962962962962966],[0.2185416666666666,-0.3301851851851852]]","[[-0.027187500000000024,0.18314814814814812,0],[-0.03812500000000003,0.19166666666666668,0.018299999997019256],[-0.06020833333333329,0.22370370370370363,0.03260000000148722],[-0.08229166666666667,0.25574074074074077,0.0492000000029833],[-0.07541666666666665,0.3164814814814814,0.0660000000000025],[-0.09781249999999998,0.4046296296296296,0.08260000000149148],[-0.021041666666666715,0.4535185185185185,0.09920000000298046],[0.0375,0.48518518518518516,0.11639999999851369],[0.1570833333333333,0.4546296296296296,0.13539999999851204],[0.28927083333333337,0.3968518518518518,0.15200000000000102],[0.46843750000000006,0.3890740740740741,0.16779999999702255],[0.5527083333333332,0.37462962962962953,0.18529999999702085],[0.6330208333333334,0.38870370370370366,0.19910000000149353],[0.6921875,0.3253703703703705,0.21600000000000108],[0.7177083333333333,0.24277777777777781,0.23260000000149006],[0.7953125,0.1596296296296297,0.24920000000297904],[0.8136458333333333,0.07481481481481478,0.2658999999985099],[0.73625,0.02370370370370362,0.28620000000297807],[0.6588541666666666,-0.027407407407407325,0.29910000000148784],[0.6588541666666666,-0.027407407407407325,0.31589999999850704],[0.5688541666666665,-0.05129629629629638,0.3325000000000031],[0.4983333333333334,-0.11851851851851852,0.34949999999999903],[0.5107291666666666,-0.12037037037037036,0.36599999999999966],[0.5129166666666668,-0.10759259259259263,0.38260000000148864],[0.5342708333333335,-0.1264814814814815,0.3992000000029776],[0.5360416666666665,-0.1381481481481482,0.41589999999850846],[0.48375000000000007,-0.17370370370370372,0.43249999999999744],[0.43114583333333345,-0.18796296296296297,0.4491000000014935],[0.4037499999999999,-0.2588888888888889,0.4658999999985127],[0.3763541666666666,-0.32981481481481484,0.48260000000149006],[0.31760416666666674,-0.3990740740740741,0.49920000000297904],[0.26052083333333326,-0.37092592592592594,0.5158999999985099],[0.2039583333333333,-0.4131481481481482,0.5326000000014872],[0.2039583333333333,-0.4131481481481482,0.5491000000014878],[0.13354166666666673,-0.4474074074074075,0.5660000000000025],[0.0853125000000001,-0.4096296296296296,0.5827999999970217],[0.03708333333333336,-0.3718518518518519,0.5992999999970223],[0.05697916666666671,-0.35537037037037034,0.6182000000029788],[0.06031249999999998,-0.3118518518518518,0.6325000000000003],[0.14500000000000005,-0.26796296296296296,0.6518999999985127],[0.2296875,-0.22407407407407406,0.6658999999985085],[0.33624999999999994,-0.1653703703703704,0.6824999999999974],[0.42166666666666663,-0.16074074074074077,0.6992000000029819],[0.42166666666666663,-0.16074074074074077,0.7157999999970173],[0.5070833333333333,-0.15611111111111114,0.7325000000000017],[0.5070833333333333,-0.15611111111111114,0.749200000002979],[0.5330208333333334,-0.1161111111111111,0.7659999999999982],[0.5330208333333334,-0.1161111111111111,0.7824999999999989],[0.60625,-0.16166666666666668,0.7992000000029833],[0.60625,-0.16166666666666668,0.8157999999970187],[0.6302083333333334,-0.11685185185185189,0.8325000000000031],[0.6302083333333334,-0.11685185185185189,0.8492000000029805],[0.5771874999999999,-0.041666666666666664,0.8658999999985113],[0.5771874999999999,-0.041666666666666664,0.8825000000000003],[0.5613541666666667,-0.09703703703703699,0.8992999999970195],[0.4861458333333334,-0.08518518518518518,0.9157999999970201],[0.4109375,-0.07333333333333338,0.9326000000014929],[0.35093750000000007,-0.10277777777777777,0.9508999999985122],[0.29802083333333323,-0.09129629629629632,0.9681000000014919],[0.2025000000000001,-0.09055555555555551,0.9861000000014926],[0.16979166666666667,-0.17111111111111107,1.0015],[0.0978125000000001,-0.12129629629629629,1.0191000000014938],[0.084375,-0.18555555555555553,1.0324999999999989],[0.11989583333333324,-0.3362962962962963,1.0492000000029833],[0.12947916666666662,-0.38203703703703706,1.065899999998507],[0.13604166666666656,-0.4772222222222222,1.0852000000029776],[0.12260416666666671,-0.5146296296296295,1.0997999999970176],[0.09572916666666677,-0.5601851851851852,1.116100000001488],[0.11010416666666671,-0.6766666666666666,1.1325000000000003],[0.16895833333333338,-0.7964814814814816,1.1493999999985078],[0.18364583333333329,-0.821111111111111,1.1667999999970178],[0.19760416666666672,-0.890925925925926,1.1829999999999998],[0.1875,-0.8492592592592593,1.1992000000029819],[0.17541666666666675,-0.7516666666666666,1.2158999999985127],[0.16239583333333343,-0.7662962962962964,1.2325000000000017],[0.17489583333333342,-0.7594444444444445,1.2491000000014907],[0.203125,-0.7622222222222222,1.266600000001489],[0.2390625,-0.732037037037037,1.2824999999999989],[0.20583333333333323,-0.7124074074074074,1.299299999997018],[0.16614583333333333,-0.6068518518518519,1.3160000000000025],[0.18041666666666673,-0.5581481481481481,1.3326000000014915],[0.21239583333333342,-0.6057407407407408,1.3492000000029805],[0.2591666666666666,-0.741111111111111,1.3659999999999997],[0.2591666666666666,-0.741111111111111,1.3826000000014886],[0.2594791666666666,-0.8011111111111111,1.3992000000029776],[0.24510416666666662,-0.6711111111111111,1.41579999999702],[0.20302083333333343,-0.5794444444444444,1.4324999999999974],[0.25499999999999995,-0.5664814814814815,1.4491000000014935],[0.3069791666666667,-0.5535185185185185,1.4662000000029778],[0.3494791666666667,-0.4818518518518518,1.4861000000014926],[0.3741666666666667,-0.5212962962962963,1.5022000000029792],[0.3890625,-0.5990740740740741,1.516600000001489],[0.3736458333333334,-0.45796296296296296,1.5342000000029827],[0.36302083333333335,-0.35611111111111116,1.550600000001488],[0.3160416666666668,-0.2662962962962963,1.5682000000029817],[0.2846874999999999,-0.2542592592592593,1.5825000000000031],[0.3082291666666668,-0.3031481481481481,1.599100000001492],[0.2169791666666666,-0.2727777777777778,1.615799999997023],[0.15302083333333344,-0.30481481481481487,1.6326000000014886],[0.15302083333333344,-0.30481481481481487,1.6492999999970195],[0.11937499999999991,-0.355,1.6659999999999968],[0.09958333333333323,-0.3461111111111111,1.6839999999999975],[0.08020833333333334,-0.3285185185185185,1.6992000000029819],[0.05260416666666667,-0.4038888888888889,1.7172999999970173],[0.02020833333333331,-0.44000000000000006,1.7325000000000017],[0.06302083333333333,-0.5275925925925925,1.7517999999970186],[0.10583333333333324,-0.6151851851851852,1.768500000000003],[0.03999999999999997,-0.5731481481481482,1.783999999999999],[-0.000833333333333286,-0.5798148148148149,1.799299999997018],[0.02177083333333331,-0.515,1.815899999998507],[0.044375000000000026,-0.45018518518518524,1.8325000000000031],[0.008437500000000023,-0.4427777777777778,1.8506000000014922],[-0.02791666666666662,-0.4440740740740741,1.8658999999985113],[-0.10666666666666665,-0.44518518518518513,1.882700000002977],[-0.13958333333333334,-0.45796296296296296,1.8992000000029776],[-0.17177083333333332,-0.46407407407407414,1.91579999999702],[-0.16593749999999996,-0.4537037037037037,1.9327000000029813],[-0.09416666666666665,-0.48499999999999993,1.9492999999970166],[-0.027187500000000024,-0.4742592592592593,1.9687999999970174],[-0.07635416666666663,-0.4646296296296296,1.9841000000014901],[-0.07885416666666671,-0.5077777777777778,1.999200000002979],[-0.01427083333333338,-0.5133333333333333,2.01589999999851],[0.058541666666666714,-0.5422222222222223,2.032499999999999],[0.16708333333333342,-0.5635185185185185,2.049100000001488],[0.2326041666666666,-0.5085185185185186,2.0660000000000025],[0.29812500000000003,-0.4535185185185185,2.0829999999999984],[0.28312499999999996,-0.4281481481481481,2.099100000001492],[0.2681250000000001,-0.4027777777777778,2.1158999999985113],[0.3069791666666667,-0.4033333333333334,2.1325000000000003],[0.3636458333333332,-0.4105555555555555,2.1492000000029776],[0.3546875,-0.3164814814814814,2.1702999999970203],[0.35927083333333343,-0.3551851851851852,2.1862000000029838],[0.3697916666666667,-0.2838888888888889,2.199700000002977],[0.4025000000000001,-0.23277777777777775,2.2157999999970173],[0.43239583333333326,-0.2462962962962963,2.2325000000000017],[0.45499999999999996,-0.2368518518518518,2.249200000002979],[0.5548958333333334,-0.25925925925925924,2.267700000002982],[0.7842708333333335,-0.4498148148148148,2.285100000001492],[0.9645833333333333,-0.6564814814814814,2.2997999999970204],[1.1525,-0.8644444444444445,2.3160000000000025],[1.3333333333333333,-1.127962962962963,2.3326000000014915],[1.5006249999999999,-1.2587037037037039,2.3492000000029805],[1.6563541666666666,-1.5050000000000001,2.366100000001488],[1.7898958333333335,-1.731111111111111,2.386899999998512],[1.7898958333333335,-1.731111111111111,2.3992000000029776],[1.9413541666666665,-1.9787037037037036,2.4158999999985085],[2.050520833333333,-2.2088888888888887,2.4332000000029836],[2.1248958333333334,-2.394074074074074,2.4491000000014935],[2.086875,-2.4698148148148147,2.467500000000001],[2.0488541666666666,-2.5455555555555556,2.4825000000000017],[2.0190625,-2.6462962962962964,2.499200000002979],[2.0153125,-2.7399999999999998,2.51589999999851],[2.0360416666666667,-2.7729629629629633,2.5327000000029827],[2.024375,-2.7801851851851853,2.5497000000029786],[2.036875,-2.7675925925925924,2.5667999999970235],[1.9947916666666667,-2.759259259259259,2.584600000001494],[2.0022916666666664,-2.7912962962962964,2.5992000000029805],[2.0121875,-2.8266666666666667,2.615799999997023],[2.0050000000000003,-2.8033333333333332,2.6325000000000003],[1.9729166666666667,-2.7322222222222226,2.6491000000014893],[1.9484375,-2.6350000000000002,2.666499999999999],[1.7891666666666666,-2.346481481481481,2.6847000000029837],[1.5939583333333331,-2.1048148148148145,2.6991000000014935],[1.4285416666666668,-1.8599999999999999,2.7157999999970173],[1.2293749999999999,-1.622962962962963,2.7323999999985134],[1.2293749999999999,-1.622962962962963,2.7491000000014907],[1.066875,-1.3601851851851852,2.7661000000014937],[0.8854166666666666,-1.0994444444444444,2.783399999998508],[0.6844791666666665,-0.8342592592592593,2.7997000000029786],[0.4835416666666667,-0.5690740740740741,2.8157999999970187],[0.35010416666666655,-0.35537037037037034,2.835100000001489],[0.20083333333333328,-0.1427777777777778,2.8515000000000015],[0.22958333333333342,-0.18370370370370367,2.868700000002981],[0.2247916666666666,-0.1551851851851852,2.888600000001489],[0.2247916666666666,-0.1551851851851852,2.8992000000029776],[0.22000000000000006,-0.12666666666666662,2.9158999999985085],[0.3015625,-0.21592592592592597,2.9351000000014906],[0.27468750000000003,-0.2507407407407407,2.9532000000029797],[0.26677083333333323,-0.28351851851851856,2.968600000001487],[0.3679166666666667,-0.30925925925925923,2.985999999999997],[0.46906249999999994,-0.33499999999999996,3.0020000000000024],[0.4773958333333333,-0.3587037037037037,3.018100000001489],[0.4857291666666666,-0.3824074074074074,3.032600000001487],[0.49760416666666674,-0.3255555555555556,3.051399999998509],[0.5544791666666666,-0.3520370370370371,3.0681000000014933],[0.5565625,-0.40981481481481485,3.084799999997017],[0.5565625,-0.40981481481481485,3.099100000001492],[0.4818749999999999,-0.3618518518518518,3.115799999997023],[0.5616666666666668,-0.40425925925925926,3.1392000000029796],[0.5616666666666668,-0.40425925925925926,3.1573999999985105],[0.6414583333333332,-0.44666666666666666,3.176499999999997],[0.6414583333333332,-0.44666666666666666,3.1827000000029813],[0.5787499999999999,-0.4209259259259259,3.1992999999970166],[0.5158333333333334,-0.41388888888888886,3.2187000000029826],[0.4913541666666667,-0.37962962962962965,3.2325000000000017],[0.484375,-0.3622222222222223,3.2497000000029814],[0.42864583333333334,-0.33907407407407414,3.2657999999970215],[0.3572916666666667,-0.29888888888888887,3.282499999999999],[0.32041666666666657,-0.2953703703703704,3.299100000001488],[0.31052083333333325,-0.2946296296296297,3.318700000002984],[0.25458333333333344,-0.257962962962963,3.332500000000003],[0.20843749999999991,-0.2081481481481481,3.3519999999999968],[0.21281249999999996,-0.2346296296296296,3.3684999999999974],[0.20979166666666677,-0.26962962962962966,3.3848999999985097],[0.2185416666666666,-0.3301851851851852,3.3991000000014893]]","[0,0.018299999997019256,0.03260000000148722,0.0492000000029833,0.0660000000000025,0.08260000000149148,0.09920000000298046,0.11639999999851369,0.13539999999851204,0.15200000000000102,0.16779999999702255,0.18529999999702085,0.19910000000149353,0.21600000000000108,0.23260000000149006,0.24920000000297904,0.2658999999985099,0.28620000000297807,0.29910000000148784,0.31589999999850704,0.3325000000000031,0.34949999999999903,0.36599999999999966,0.38260000000148864,0.3992000000029776,0.41589999999850846,0.43249999999999744,0.4491000000014935,0.4658999999985127,0.48260000000149006,0.49920000000297904,0.5158999999985099,0.5326000000014872,0.5491000000014878,0.5660000000000025,0.5827999999970217,0.5992999999970223,0.6182000000029788,0.6325000000000003,0.6518999999985127,0.6658999999985085,0.6824999999999974,0.6992000000029819,0.7157999999970173,0.7325000000000017,0.749200000002979,0.7659999999999982,0.7824999999999989,0.7992000000029833,0.8157999999970187,0.8325000000000031,0.8492000000029805,0.8658999999985113,0.8825000000000003,0.8992999999970195,0.9157999999970201,0.9326000000014929,0.9508999999985122,0.9681000000014919,0.9861000000014926,1.0015,1.0191000000014938,1.0324999999999989,1.0492000000029833,1.065899999998507,1.0852000000029776,1.0997999999970176,1.116100000001488,1.1325000000000003,1.1493999999985078,1.1667999999970178,1.1829999999999998,1.1992000000029819,1.2158999999985127,1.2325000000000017,1.2491000000014907,1.266600000001489,1.2824999999999989,1.299299999997018,1.3160000000000025,1.3326000000014915,1.3492000000029805,1.3659999999999997,1.3826000000014886,1.3992000000029776,1.41579999999702,1.4324999999999974,1.4491000000014935,1.4662000000029778,1.4861000000014926,1.5022000000029792,1.516600000001489,1.5342000000029827,1.550600000001488,1.5682000000029817,1.5825000000000031,1.599100000001492,1.615799999997023,1.6326000000014886,1.6492999999970195,1.6659999999999968,1.6839999999999975,1.6992000000029819,1.7172999999970173,1.7325000000000017,1.7517999999970186,1.768500000000003,1.783999999999999,1.799299999997018,1.815899999998507,1.8325000000000031,1.8506000000014922,1.8658999999985113,1.882700000002977,1.8992000000029776,1.91579999999702,1.9327000000029813,1.9492999999970166,1.9687999999970174,1.9841000000014901,1.999200000002979,2.01589999999851,2.032499999999999,2.049100000001488,2.0660000000000025,2.0829999999999984,2.099100000001492,2.1158999999985113,2.1325000000000003,2.1492000000029776,2.1702999999970203,2.1862000000029838,2.199700000002977,2.2157999999970173,2.2325000000000017,2.249200000002979,2.267700000002982,2.285100000001492,2.2997999999970204,2.3160000000000025,2.3326000000014915,2.3492000000029805,2.366100000001488,2.386899999998512,2.3992000000029776,2.4158999999985085,2.4332000000029836,2.4491000000014935,2.467500000000001,2.4825000000000017,2.499200000002979,2.51589999999851,2.5327000000029827,2.5497000000029786,2.5667999999970235,2.584600000001494,2.5992000000029805,2.615799999997023,2.6325000000000003,2.6491000000014893,2.666499999999999,2.6847000000029837,2.6991000000014935,2.7157999999970173,2.7323999999985134,2.7491000000014907,2.7661000000014937,2.783399999998508,2.7997000000029786,2.8157999999970187,2.835100000001489,2.8515000000000015,2.868700000002981,2.888600000001489,2.8992000000029776,2.9158999999985085,2.9351000000014906,2.9532000000029797,2.968600000001487,2.985999999999997,3.0020000000000024,3.018100000001489,3.032600000001487,3.051399999998509,3.0681000000014933,3.084799999997017,3.099100000001492,3.115799999997023,3.1392000000029796,3.1573999999985105,3.176499999999997,3.1827000000029813,3.1992999999970166,3.2187000000029826,3.2325000000000017,3.2497000000029814,3.2657999999970215,3.282499999999999,3.299100000001488,3.318700000002984,3.332500000000003,3.3519999999999968,3.3684999999999974,3.3848999999985097,3.3991000000014893]","[1733292295551,1733292295568,1733292295583,1733292295599,1733292295616,1733292295633,1733292295649,1733292295666,1733292295685,1733292295702,1733292295718,1733292295735,1733292295749,1733292295766,1733292295782,1733292295799,1733292295816,1733292295836,1733292295849,1733292295866,1733292295883,1733292295899,1733292295916,1733292295933,1733292295949,1733292295966,1733292295982,1733292295999,1733292296016,1733292296033,1733292296049,1733292296066,1733292296083,1733292296099,1733292296116,1733292296133,1733292296149,1733292296168,1733292296182,1733292296202,1733292296216,1733292296232,1733292296249,1733292296266,1733292296282,1733292296299,1733292296316,1733292296332,1733292296349,1733292296366,1733292296383,1733292296399,1733292296416,1733292296432,1733292296449,1733292296466,1733292296483,1733292296501,1733292296518,1733292296536,1733292296551,1733292296569,1733292296582,1733292296599,1733292296616,1733292296635,1733292296650,1733292296666,1733292296682,1733292296699,1733292296717,1733292296733,1733292296749,1733292296766,1733292296782,1733292296799,1733292296817,1733292296832,1733292296849,1733292296866,1733292296883,1733292296899,1733292296916,1733292296933,1733292296949,1733292296966,1733292296982,1733292296999,1733292297016,1733292297036,1733292297052,1733292297067,1733292297084,1733292297101,1733292297118,1733292297132,1733292297149,1733292297166,1733292297183,1733292297199,1733292297216,1733292297234,1733292297249,1733292297267,1733292297282,1733292297302,1733292297318,1733292297334,1733292297349,1733292297366,1733292297382,1733292297401,1733292297416,1733292297433,1733292297449,1733292297466,1733292297483,1733292297499,1733292297519,1733292297534,1733292297549,1733292297566,1733292297582,1733292297599,1733292297616,1733292297633,1733292297649,1733292297666,1733292297682,1733292297699,1733292297720,1733292297736,1733292297750,1733292297766,1733292297782,1733292297799,1733292297818,1733292297835,1733292297850,1733292297866,1733292297883,1733292297899,1733292297916,1733292297937,1733292297949,1733292297966,1733292297983,1733292297999,1733292298017,1733292298032,1733292298049,1733292298066,1733292298083,1733292298100,1733292298117,1733292298135,1733292298149,1733292298166,1733292298182,1733292298199,1733292298217,1733292298235,1733292298249,1733292298266,1733292298282,1733292298299,1733292298316,1733292298333,1733292298350,1733292298366,1733292298385,1733292298401,1733292298419,1733292298439,1733292298449,1733292298466,1733292298485,1733292298503,1733292298519,1733292298536,1733292298552,1733292298568,1733292298583,1733292298601,1733292298618,1733292298635,1733292298649,1733292298666,1733292298689,1733292298707,1733292298726,1733292298733,1733292298749,1733292298769,1733292298782,1733292298800,1733292298816,1733292298832,1733292298849,1733292298869,1733292298882,1733292298902,1733292298918,1733292298935,1733292298949]","[[933.9,638.9],[923.4,643.5],[902.2,660.8],[881,678.1],[887.6,710.9],[866.1,758.5],[939.8,784.9],[996,802],[1110.8,785.5],[1237.7,754.3],[1409.7,750.1],[1490.6,742.3],[1567.7,749.9],[1624.5,715.7],[1649,671.1],[1723.5,626.2],[1741.1,580.4],[1666.8,552.8],[1592.5,525.2],[1592.5,525.2],[1506.1,512.3],[1438.4,476],[1450.3,475],[1452.4,481.9],[1472.9,471.7],[1474.6,465.4],[1424.4,446.2],[1373.9,438.5],[1347.6,400.2],[1321.3,361.9],[1264.9,324.5],[1210.1,339.7],[1155.8,316.9],[1155.8,316.9],[1088.2,298.4],[1041.9,318.8],[995.6,339.2],[1014.7,348.1],[1017.9,371.6],[1099.2,395.3],[1180.5,419],[1282.8,450.7],[1364.8,453.2],[1364.8,453.2],[1446.8,455.7],[1446.8,455.7],[1471.7,477.3],[1471.7,477.3],[1542,452.7],[1542,452.7],[1565,476.9],[1565,476.9],[1514.1,517.5],[1514.1,517.5],[1498.9,487.6],[1426.7,494],[1354.5,500.4],[1296.9,484.5],[1246.1,490.7],[1154.4,491.1],[1123,447.6],[1053.9,474.5],[1041,439.8],[1075.1,358.4],[1084.3,333.7],[1090.6,282.3],[1077.7,262.1],[1051.9,237.5],[1065.7,174.6],[1122.2,109.9],[1136.3,96.6],[1149.7,58.9],[1140,81.4],[1128.4,134.1],[1115.9,126.2],[1127.9,129.9],[1155,128.4],[1189.5,144.7],[1157.6,155.3],[1119.5,212.3],[1133.2,238.6],[1163.9,212.9],[1208.8,139.8],[1208.8,139.8],[1209.1,107.4],[1195.3,177.6],[1154.9,227.1],[1204.8,234.1],[1254.7,241.1],[1295.5,279.8],[1319.2,258.5],[1333.5,216.5],[1318.7,292.7],[1308.5,347.7],[1263.4,396.2],[1233.3,402.7],[1255.9,376.3],[1168.3,392.7],[1106.9,375.4],[1106.9,375.4],[1074.6,348.3],[1055.6,353.1],[1037,362.6],[1010.5,321.9],[979.4,302.4],[1020.5,255.1],[1061.6,207.8],[998.4,230.5],[959.2,226.9],[980.9,261.9],[1002.6,296.9],[968.1,300.9],[933.2,300.2],[857.6,299.6],[826,292.7],[795.1,289.4],[800.7,295],[869.6,278.1],[933.9,283.9],[886.7,289.1],[884.3,265.8],[946.3,262.8],[1016.2,247.2],[1120.4,235.7],[1183.3,265.4],[1246.2,295.1],[1231.8,308.8],[1217.4,322.5],[1254.7,322.2],[1309.1,318.3],[1300.5,369.1],[1304.9,348.2],[1315,386.7],[1346.4,414.3],[1375.1,407],[1396.8,412.1],[1492.7,400],[1712.9,297.1],[1886,185.5],[2066.4,73.2],[2240,-69.1],[2400.6,-139.7],[2550.1,-272.7],[2678.3,-394.8],[2678.3,-394.8],[2823.7,-528.5],[2928.5,-652.8],[2999.9,-752.8],[2963.4,-793.7],[2926.9,-834.6],[2898.3,-889],[2894.7,-939.6],[2914.6,-957.4],[2903.4,-961.3],[2915.4,-954.5],[2875,-950],[2882.2,-967.3],[2891.7,-986.4],[2884.8,-973.8],[2854,-935.4],[2830.5,-882.9],[2677.6,-727.1],[2490.2,-596.6],[2331.4,-464.4],[2140.2,-336.4],[2140.2,-336.4],[1984.2,-194.5],[1810,-53.7],[1617.1,89.5],[1424.2,232.7],[1296.1,348.1],[1152.8,462.9],[1180.4,440.8],[1175.8,456.2],[1175.8,456.2],[1171.2,471.6],[1249.5,423.4],[1223.7,404.6],[1216.1,386.9],[1313.2,373],[1410.3,359.1],[1418.3,346.3],[1426.3,333.5],[1437.7,364.2],[1492.3,349.9],[1494.3,318.7],[1494.3,318.7],[1422.6,344.6],[1499.2,321.7],[1499.2,321.7],[1575.8,298.8],[1575.8,298.8],[1515.6,312.7],[1455.2,316.5],[1431.7,335],[1425,344.4],[1371.5,356.9],[1303,378.6],[1267.6,380.5],[1258.1,380.9],[1204.4,400.7],[1160.1,427.6],[1164.3,413.3],[1161.4,394.4],[1169.8,361.7]]","[0,0.37864299999999995]","[0.37864299999999995,0.37864299999999995]","[-0.37864299999999995,-0.37864299999999995]","[-0.37864299999999995,0]","[0,-0.37864299999999995]","[0.37864299999999995,-0.37864299999999995]","[0,0]","[0.37864299999999995,0]",0,1,1,1,1,4,Laptop,5,1,13,7
