inst1_resp.keys,inst1_resp.rt,calibrationMouse.x,calibrationMouse.y,calibrationMouse.leftButton,calibrationMouse.midButton,calibrationMouse.rightButton,calibrationClick.x,calibrationClick.y,calibrationClick.leftButton,calibrationClick.midButton,calibrationClick.rightButton,trialsc.thisRepN,trialsc.thisTrialN,trialsc.thisN,trialsc.thisIndex,trialsc.ran,calibration_x,calibration_y,participant,session,date,expName,psychopyVersion,OS,frameRate,calibrationClick.clicked_name,ScreenRes_pixels,Camera_pixels,mouse_2.x,mouse_2.y,mouse_2.leftButton,mouse_2.midButton,mouse_2.rightButton,mouse_2.time,mouse_2.clicked_name,mouse.x,mouse.y,mouse.leftButton,mouse.midButton,mouse.rightButton,mouse.time,mouse.clicked_name,Choice,Trial,TrialDuration,MOUSE_GAZE,ET_GAZE,ET_GAZE_x_T,time,unixTime,ET_GAZE_NF,Loc_Option1_label,Loc_Option2_label,Loc_Cost_label,Loc_Qual_label,Loc_Option1_cost,Loc_Option2_cost,Loc_Option1_quality,Loc_Option2_quality,trials.thisRepN,trials.thisTrialN,trials.thisN,trials.thisIndex,trials.ran,Block,Device,cost1,qual1,cost2,qual2
space,1.1491,-0.034375,-0.272222222,1,0,0,-0.68125,0.005555556,1,0,0,0,0,0,2,1,-0.67,0,08,001,2024-12-04_14h37.25.996,Attention_exp_legacy,2023.1.0,Win32,59.88023952,,,,,,,,,,,,,,,,,,,,,,,,,,,,,,,,,,,,,,,,,,,,,
,,,,,,,0.328125,0.338888889,1,0,0,0,1,1,17,1,0.33,0.33,08,001,2024-12-04_14h37.25.996,Attention_exp_legacy,2023.1.0,Win32,59.88023952,calibration_square,,,,,,,,,,,,,,,,,,,,,,,,,,,,,,,,,,,,,,,,,,,,
,,,,,,,-0.001041667,-0.333333333,1,0,0,0,2,2,10,1,0,-0.33,08,001,2024-12-04_14h37.25.996,Attention_exp_legacy,2023.1.0,Win32,59.88023952,calibration_square,,,,,,,,,,,,,,,,,,,,,,,,,,,,,,,,,,,,,,,,,,,,
,,,,,,,-0.320833333,-0.318518519,1,0,0,0,3,3,5,1,-0.33,-0.33,08,001,2024-12-04_14h37.25.996,Attention_exp_legacy,2023.1.0,Win32,59.88023952,,,,,,,,,,,,,,,,,,,,,,,,,,,,,,,,,,,,,,,,,,,,,
,,,,,,,-0.003125,0.672222222,1,0,0,0,4,4,13,1,0,0.67,08,001,2024-12-04_14h37.25.996,Attention_exp_legacy,2023.1.0,Win32,59.88023952,calibration_square,,,,,,,,,,,,,,,,,,,,,,,,,,,,,,,,,,,,,,,,,,,,
,,,,,,,0.002083333,-0.662962963,1,0,0,0,5,5,9,1,0,-0.67,08,001,2024-12-04_14h37.25.996,Attention_exp_legacy,2023.1.0,Win32,59.88023952,calibration_square,,,,,,,,,,,,,,,,,,,,,,,,,,,,,,,,,,,,,,,,,,,,
,,,,,,,-0.667708333,-0.666666667,1,0,0,0,6,6,0,1,-0.67,-0.67,08,001,2024-12-04_14h37.25.996,Attention_exp_legacy,2023.1.0,Win32,59.88023952,calibration_square,,,,,,,,,,,,,,,,,,,,,,,,,,,,,,,,,,,,,,,,,,,,
,,,,,,,-0.326041667,0.674074074,1,0,0,0,7,7,8,1,-0.33,0.67,08,001,2024-12-04_14h37.25.996,Attention_exp_legacy,2023.1.0,Win32,59.88023952,calibration_square,,,,,,,,,,,,,,,,,,,,,,,,,,,,,,,,,,,,,,,,,,,,
,,,,,,,-0.328125,-0.674074074,1,0,0,0,8,8,4,1,-0.33,-0.67,08,001,2024-12-04_14h37.25.996,Attention_exp_legacy,2023.1.0,Win32,59.88023952,calibration_square,,,,,,,,,,,,,,,,,,,,,,,,,,,,,,,,,,,,,,,,,,,,
,,,,,,,0.327083333,-0.32962963,1,0,0,0,9,9,15,1,0.33,-0.33,08,001,2024-12-04_14h37.25.996,Attention_exp_legacy,2023.1.0,Win32,59.88023952,calibration_square,,,,,,,,,,,,,,,,,,,,,,,,,,,,,,,,,,,,,,,,,,,,
,,,,,,,-0.6625,-0.327777778,1,0,0,0,10,10,1,1,-0.67,-0.33,08,001,2024-12-04_14h37.25.996,Attention_exp_legacy,2023.1.0,Win32,59.88023952,calibration_square,,,,,,,,,,,,,,,,,,,,,,,,,,,,,,,,,,,,,,,,,,,,
,,,,,,,-0.33125,0.325925926,1,0,0,0,11,11,7,1,-0.33,0.33,08,001,2024-12-04_14h37.25.996,Attention_exp_legacy,2023.1.0,Win32,59.88023952,calibration_square,,,,,,,,,,,,,,,,,,,,,,,,,,,,,,,,,,,,,,,,,,,,
,,,,,,,0.00625,-0.003703704,1,0,0,0,12,12,11,1,0,0,08,001,2024-12-04_14h37.25.996,Attention_exp_legacy,2023.1.0,Win32,59.88023952,calibration_square,,,,,,,,,,,,,,,,,,,,,,,,,,,,,,,,,,,,,,,,,,,,
,,,,,,,0.332291667,0.674074074,1,0,0,0,13,13,18,1,0.33,0.67,08,001,2024-12-04_14h37.25.996,Attention_exp_legacy,2023.1.0,Win32,59.88023952,calibration_square,,,,,,,,,,,,,,,,,,,,,,,,,,,,,,,,,,,,,,,,,,,,
,,,,,,,-0.007291667,0.324074074,1,0,0,0,14,14,12,1,0,0.33,08,001,2024-12-04_14h37.25.996,Attention_exp_legacy,2023.1.0,Win32,59.88023952,calibration_square,,,,,,,,,,,,,,,,,,,,,,,,,,,,,,,,,,,,,,,,,,,,
,,,,,,,-0.676041667,0.333333333,1,0,0,0,15,15,3,1,-0.67,0.33,08,001,2024-12-04_14h37.25.996,Attention_exp_legacy,2023.1.0,Win32,59.88023952,calibration_square,,,,,,,,,,,,,,,,,,,,,,,,,,,,,,,,,,,,,,,,,,,,
,,,,,,,0.329166667,-0.651851852,1,0,0,0,16,16,14,1,0.33,-0.67,08,001,2024-12-04_14h37.25.996,Attention_exp_legacy,2023.1.0,Win32,59.88023952,,,,,,,,,,,,,,,,,,,,,,,,,,,,,,,,,,,,,,,,,,,,,
,,,,,,,0.322916667,0.012962963,1,0,0,0,17,17,16,1,0.33,0,08,001,2024-12-04_14h37.25.996,Attention_exp_legacy,2023.1.0,Win32,59.88023952,,,,,,,,,,,,,,,,,,,,,,,,,,,,,,,,,,,,,,,,,,,,,
,,,,,,,0.666666667,-0.653703704,1,0,0,0,18,18,20,1,0.67,-0.67,08,001,2024-12-04_14h37.25.996,Attention_exp_legacy,2023.1.0,Win32,59.88023952,,,,,,,,,,,,,,,,,,,,,,,,,,,,,,,,,,,,,,,,,,,,,
,,,,,,,0.669791667,0.685185185,1,0,0,0,19,19,19,1,0.67,0.67,08,001,2024-12-04_14h37.25.996,Attention_exp_legacy,2023.1.0,Win32,59.88023952,,,,,,,,,,,,,,,,,,,,,,,,,,,,,,,,,,,,,,,,,,,,,
,,,,,,,-0.330208333,-0.009259259,1,0,0,0,20,20,6,1,-0.33,0,08,001,2024-12-04_14h37.25.996,Attention_exp_legacy,2023.1.0,Win32,59.88023952,calibration_square,,,,,,,,,,,,,,,,,,,,,,,,,,,,,,,,,,,,,,,,,,,,
,,,,,,,,,,,,,,,,,,,08,001,2024-12-04_14h37.25.996,Attention_exp_legacy,2023.1.0,Win32,59.88023952,,"[1920,1080]","[640,480]",[0],[-0.5166666666666667],[1],[0],[0],[19.801299999997028],"[""StartButton""]","[0.43333333333333335,0.375]","[0.42962962962962964,0.3537037037037037]","[1,1]","[0,0]","[0,0]","[6.888200000002982,7.738100000001495]","[""Option2_label"",""Option2_label""]",Option2_label,1,7.9141,"[[0,-0.5148148148148148],[0,-0.5148148148148148],[0,-0.5148148148148148],[0,-0.5148148148148148],[0,-0.5148148148148148],[0,-0.5148148148148148],[0,-0.5148148148148148],[0,-0.5148148148148148],[0,-0.5148148148148148],[0,-0.5148148148148148],[0,-0.5148148148148148],[0,-0.5148148148148148],[0,-0.5148148148148148],[0,-0.5148148148148148],[0,-0.5148148148148148],[0,-0.5148148148148148],[0,-0.5148148148148148],[0,-0.5148148148148148],[0,-0.5148148148148148],[0,-0.5148148148148148],[0,-0.5148148148148148],[0,-0.5148148148148148],[0,-0.5148148148148148],[0,-0.5148148148148148],[0,-0.5148148148148148],[0,-0.5148148148148148],[0,-0.5148148148148148],[0,-0.5148148148148148],[0,-0.5148148148148148],[0,-0.5148148148148148],[0,-0.5148148148148148],[0,-0.5148148148148148],[0,-0.5148148148148148],[0,-0.5148148148148148],[0,-0.5148148148148148],[0,-0.5148148148148148],[0,-0.5148148148148148],[0,-0.5148148148148148],[0,-0.5148148148148148],[0,-0.5148148148148148],[0,-0.5148148148148148],[0,-0.5148148148148148],[0,-0.5148148148148148],[0,-0.5148148148148148],[0,-0.5148148148148148],[0,-0.5148148148148148],[0,-0.5148148148148148],[0,-0.5148148148148148],[0,-0.5148148148148148],[0,-0.5148148148148148],[0,-0.5148148148148148],[0,-0.5148148148148148],[0,-0.5148148148148148],[0,-0.5148148148148148],[0,-0.5148148148148148],[0,-0.5148148148148148],[0,-0.5148148148148148],[0,-0.5148148148148148],[0,-0.5148148148148148],[0,-0.5148148148148148],[0,-0.5148148148148148],[0,-0.5148148148148148],[0,-0.5148148148148148],[0,-0.5148148148148148],[0,-0.5148148148148148],[0,-0.5148148148148148],[0,-0.5148148148148148],[0,-0.5148148148148148],[0,-0.5148148148148148],[0,-0.5148148148148148],[0,-0.5148148148148148],[0,-0.5148148148148148],[0,-0.5148148148148148],[0,-0.5148148148148148],[0,-0.5148148148148148],[0,-0.5148148148148148],[0,-0.5148148148148148],[0,-0.5148148148148148],[0,-0.5148148148148148],[0,-0.5148148148148148],[0,-0.5148148148148148],[0,-0.5148148148148148],[0,-0.5148148148148148],[0,-0.5148148148148148],[0,-0.5148148148148148],[0,-0.5148148148148148],[0,-0.5148148148148148],[0,-0.5148148148148148],[0,-0.5148148148148148],[0,-0.5148148148148148],[0,-0.5148148148148148],[0,-0.5148148148148148],[0,-0.5148148148148148],[0,-0.512962962962963],[0,-0.5092592592592593],[0,-0.5074074074074074],[0,-0.5037037037037037],[0,-0.5037037037037037],[0,-0.5018518518518519],[0,-0.5018518518518519],[0,-0.5018518518518519],[0,-0.5018518518518519],[0,-0.5018518518518519],[0,-0.5018518518518519],[0,-0.5018518518518519],[0,-0.5018518518518519],[0,-0.5018518518518519],[0,-0.5018518518518519],[0,-0.5018518518518519],[0,-0.5018518518518519],[0,-0.5],[0,-0.4981481481481482],[0,-0.4962962962962963],[0,-0.49444444444444446],[0,-0.4925925925925926],[0,-0.4925925925925926],[0,-0.4925925925925926],[0,-0.49074074074074076],[0,-0.4888888888888889],[0,-0.48703703703703705],[0,-0.48703703703703705],[0,-0.48703703703703705],[0,-0.48703703703703705],[0,-0.48703703703703705],[0,-0.48703703703703705],[0,-0.48703703703703705],[0,-0.48703703703703705],[0,-0.48703703703703705],[0,-0.48703703703703705],[0,-0.48703703703703705],[0,-0.48703703703703705],[0,-0.48703703703703705],[0,-0.48703703703703705],[0,-0.48703703703703705],[0,-0.48703703703703705],[0,-0.48703703703703705],[0,-0.48703703703703705],[0,-0.48703703703703705],[0,-0.48703703703703705],[0,-0.48703703703703705],[0,-0.48703703703703705],[0,-0.48703703703703705],[0,-0.48703703703703705],[0,-0.48703703703703705],[0,-0.48703703703703705],[0,-0.48703703703703705],[0,-0.48703703703703705],[0,-0.48703703703703705],[0,-0.48703703703703705],[0,-0.48703703703703705],[0,-0.48703703703703705],[0,-0.48703703703703705],[0,-0.48703703703703705],[0,-0.48703703703703705],[0,-0.48703703703703705],[0,-0.48703703703703705],[0,-0.48703703703703705],[0,-0.48703703703703705],[0,-0.48703703703703705],[0,-0.48703703703703705],[0,-0.48703703703703705],[0,-0.48703703703703705],[0,-0.48703703703703705],[0,-0.48703703703703705],[0,-0.48703703703703705],[0,-0.48703703703703705],[0,-0.48703703703703705],[0,-0.48703703703703705],[0,-0.48703703703703705],[0,-0.48703703703703705],[0,-0.48703703703703705],[0,-0.48703703703703705],[0,-0.48703703703703705],[0,-0.48703703703703705],[0,-0.48703703703703705],[0,-0.48703703703703705],[0,-0.48703703703703705],[0,-0.48703703703703705],[0,-0.48703703703703705],[0,-0.48703703703703705],[0,-0.48703703703703705],[0,-0.48703703703703705],[0,-0.48703703703703705],[0,-0.48703703703703705],[0,-0.48703703703703705],[0,-0.48703703703703705],[0,-0.48703703703703705],[0,-0.48703703703703705],[0,-0.48703703703703705],[0,-0.48703703703703705],[0,-0.48703703703703705],[0,-0.48703703703703705],[0,-0.48703703703703705],[0,-0.48703703703703705],[0,-0.48703703703703705],[0,-0.48703703703703705],[0,-0.48703703703703705],[0,-0.48703703703703705],[0,-0.48703703703703705],[0,-0.48703703703703705],[0,-0.48703703703703705],[0,-0.48703703703703705],[0,-0.48703703703703705],[0,-0.48703703703703705],[0,-0.48703703703703705],[0,-0.48703703703703705],[0,-0.48703703703703705],[0,-0.48703703703703705],[0,-0.48703703703703705],[0,-0.48703703703703705],[0,-0.48703703703703705],[0,-0.48703703703703705],[0,-0.48703703703703705],[0,-0.48703703703703705],[0,-0.48703703703703705],[0,-0.48703703703703705],[0,-0.48703703703703705],[0,-0.48703703703703705],[0,-0.48703703703703705],[0,-0.48703703703703705],[0,-0.48703703703703705],[0,-0.48703703703703705],[0,-0.48703703703703705],[0,-0.48703703703703705],[0,-0.48703703703703705],[0,-0.48703703703703705],[0,-0.48703703703703705],[0,-0.48703703703703705],[0,-0.48703703703703705],[0,-0.48703703703703705],[0,-0.48703703703703705],[0,-0.48703703703703705],[0,-0.48703703703703705],[0,-0.48148148148148145],[0,-0.40925925925925927],[-0.0020833333333333333,-0.23333333333333334],[-0.0020833333333333333,-0.022222222222222223],[-0.0020833333333333333,0.14814814814814814],[-0.0020833333333333333,0.22962962962962963],[0.0010416666666666667,0.2740740740740741],[0.004166666666666667,0.3074074074074074],[0.00625,0.3314814814814815],[0.007291666666666667,0.3425925925925926],[0.007291666666666667,0.34814814814814815],[0.007291666666666667,0.34814814814814815],[0.007291666666666667,0.34814814814814815],[0.007291666666666667,0.35],[0.007291666666666667,0.35],[0.007291666666666667,0.35],[0.007291666666666667,0.35],[0.007291666666666667,0.35],[0.008333333333333333,0.35185185185185186],[0.009375,0.35],[0.010416666666666666,0.34629629629629627],[0.010416666666666666,0.3425925925925926],[0.0125,0.337037037037037],[0.014583333333333334,0.3296296296296296],[0.016666666666666666,0.32407407407407407],[0.01875,0.32037037037037036],[0.020833333333333332,0.31666666666666665],[0.021875,0.31296296296296294],[0.022916666666666665,0.3111111111111111],[0.023958333333333335,0.30925925925925923],[0.023958333333333335,0.30925925925925923],[0.025,0.3055555555555556],[0.028125,0.29814814814814816],[0.03229166666666667,0.28703703703703703],[0.041666666666666664,0.26296296296296295],[0.051041666666666666,0.24074074074074073],[0.0625,0.20185185185185187],[0.071875,0.1814814814814815],[0.07708333333333334,0.16666666666666666],[0.08020833333333334,0.15],[0.08854166666666667,0.12037037037037036],[0.103125,0.05555555555555555],[0.128125,-0.040740740740740744],[0.15625,-0.12407407407407407],[0.18333333333333332,-0.19814814814814816],[0.19166666666666668,-0.21851851851851853],[0.21666666666666667,-0.2796296296296296],[0.23958333333333334,-0.3351851851851852],[0.2708333333333333,-0.4],[0.2864583333333333,-0.43333333333333335],[0.2989583333333333,-0.45555555555555555],[0.30416666666666664,-0.4703703703703704],[0.30833333333333335,-0.4777777777777778],[0.3104166666666667,-0.48148148148148145],[0.3104166666666667,-0.48148148148148145],[0.3104166666666667,-0.48148148148148145],[0.3104166666666667,-0.48333333333333334],[0.3104166666666667,-0.48333333333333334],[0.3104166666666667,-0.48333333333333334],[0.3104166666666667,-0.48333333333333334],[0.3104166666666667,-0.48333333333333334],[0.3104166666666667,-0.48333333333333334],[0.3104166666666667,-0.48333333333333334],[0.3104166666666667,-0.48333333333333334],[0.3104166666666667,-0.48333333333333334],[0.3104166666666667,-0.48333333333333334],[0.31145833333333334,-0.48333333333333334],[0.31145833333333334,-0.48333333333333334],[0.31145833333333334,-0.48333333333333334],[0.31145833333333334,-0.48333333333333334],[0.31145833333333334,-0.48333333333333334],[0.31145833333333334,-0.48333333333333334],[0.31145833333333334,-0.48333333333333334],[0.31145833333333334,-0.48333333333333334],[0.31145833333333334,-0.48333333333333334],[0.3125,-0.48333333333333334],[0.3125,-0.48333333333333334],[0.3125,-0.48148148148148145],[0.3145833333333333,-0.47962962962962963],[0.3145833333333333,-0.4759259259259259],[0.3145833333333333,-0.4759259259259259],[0.315625,-0.4740740740740741],[0.315625,-0.4740740740740741],[0.315625,-0.4722222222222222],[0.31666666666666665,-0.4722222222222222],[0.31666666666666665,-0.4703703703703704],[0.31875,-0.4685185185185185],[0.31875,-0.4666666666666667],[0.31979166666666664,-0.4648148148148148],[0.321875,-0.46111111111111114],[0.3229166666666667,-0.45555555555555555],[0.325,-0.45],[0.32708333333333334,-0.4462962962962963],[0.32708333333333334,-0.4462962962962963],[0.32708333333333334,-0.4444444444444444],[0.328125,-0.4444444444444444],[0.3302083333333333,-0.4388888888888889],[0.33229166666666665,-0.43333333333333335],[0.33645833333333336,-0.4222222222222222],[0.3385416666666667,-0.40925925925925927],[0.34375,-0.3851851851851852],[0.35208333333333336,-0.35185185185185186],[0.36041666666666666,-0.3074074074074074],[0.37604166666666666,-0.23333333333333334],[0.40208333333333335,-0.07777777777777778],[0.41041666666666665,-0.016666666666666666],[0.428125,0.10185185185185185],[0.4395833333333333,0.22407407407407406],[0.4427083333333333,0.2759259259259259],[0.44583333333333336,0.32037037037037036],[0.4479166666666667,0.36666666666666664],[0.45,0.4074074074074074],[0.45,0.4444444444444444],[0.45,0.4759259259259259],[0.45,0.4962962962962963],[0.45,0.5037037037037037],[0.45,0.5055555555555555],[0.45,0.5055555555555555],[0.45,0.5055555555555555],[0.45,0.5074074074074074],[0.45,0.5074074074074074],[0.45,0.5074074074074074],[0.45,0.5074074074074074],[0.45,0.5074074074074074],[0.45,0.5074074074074074],[0.45,0.5037037037037037],[0.44895833333333335,0.4962962962962963],[0.4479166666666667,0.49074074074074076],[0.4479166666666667,0.48518518518518516],[0.4479166666666667,0.48148148148148145],[0.4479166666666667,0.4777777777777778],[0.4479166666666667,0.4740740740740741],[0.44583333333333336,0.4648148148148148],[0.4427083333333333,0.45925925925925926],[0.4427083333333333,0.45555555555555555],[0.440625,0.45],[0.4395833333333333,0.44814814814814813],[0.4395833333333333,0.4462962962962963],[0.43854166666666666,0.4444444444444444],[0.43854166666666666,0.4444444444444444],[0.43854166666666666,0.4444444444444444],[0.43854166666666666,0.4444444444444444],[0.43854166666666666,0.4444444444444444],[0.43854166666666666,0.4425925925925926],[0.43854166666666666,0.4425925925925926],[0.43854166666666666,0.4425925925925926],[0.43854166666666666,0.4425925925925926],[0.43854166666666666,0.4425925925925926],[0.43854166666666666,0.4425925925925926],[0.43854166666666666,0.4425925925925926],[0.43854166666666666,0.4425925925925926],[0.43854166666666666,0.4425925925925926],[0.43854166666666666,0.4425925925925926],[0.43854166666666666,0.4425925925925926],[0.43854166666666666,0.4425925925925926],[0.43854166666666666,0.4425925925925926],[0.43854166666666666,0.4388888888888889],[0.43854166666666666,0.4388888888888889],[0.43854166666666666,0.4388888888888889],[0.43854166666666666,0.4388888888888889],[0.43854166666666666,0.4388888888888889],[0.43854166666666666,0.4388888888888889],[0.43854166666666666,0.4388888888888889],[0.43854166666666666,0.4388888888888889],[0.43854166666666666,0.4388888888888889],[0.43854166666666666,0.4388888888888889],[0.43854166666666666,0.4388888888888889],[0.43645833333333334,0.4351851851851852],[0.4354166666666667,0.43333333333333335],[0.4354166666666667,0.43148148148148147],[0.434375,0.42962962962962964],[0.43333333333333335,0.42962962962962964],[0.43333333333333335,0.42962962962962964],[0.43333333333333335,0.42962962962962964],[0.43333333333333335,0.42962962962962964],[0.43333333333333335,0.42962962962962964],[0.43333333333333335,0.42962962962962964],[0.43333333333333335,0.42962962962962964],[0.43333333333333335,0.42962962962962964],[0.43333333333333335,0.42962962962962964],[0.43333333333333335,0.42962962962962964],[0.43333333333333335,0.42962962962962964],[0.43333333333333335,0.42962962962962964],[0.43333333333333335,0.42962962962962964],[0.43333333333333335,0.42962962962962964],[0.43333333333333335,0.42962962962962964],[0.43333333333333335,0.42962962962962964],[0.43333333333333335,0.42962962962962964],[0.43333333333333335,0.42962962962962964],[0.43333333333333335,0.42962962962962964],[0.43333333333333335,0.42962962962962964],[0.43333333333333335,0.42962962962962964],[0.43333333333333335,0.42962962962962964],[0.43333333333333335,0.42962962962962964],[0.43333333333333335,0.42962962962962964],[0.43333333333333335,0.42962962962962964],[0.43333333333333335,0.42962962962962964],[0.43333333333333335,0.42962962962962964],[0.43333333333333335,0.42962962962962964],[0.43333333333333335,0.42962962962962964],[0.43333333333333335,0.42962962962962964],[0.43333333333333335,0.42962962962962964],[0.43333333333333335,0.42962962962962964],[0.43333333333333335,0.42962962962962964],[0.43333333333333335,0.42962962962962964],[0.43333333333333335,0.42962962962962964],[0.43333333333333335,0.42962962962962964],[0.43333333333333335,0.42962962962962964],[0.43333333333333335,0.42962962962962964],[0.43333333333333335,0.42962962962962964],[0.43333333333333335,0.42962962962962964],[0.43333333333333335,0.42962962962962964],[0.43333333333333335,0.42962962962962964],[0.43125,0.4185185185185185],[0.4125,0.4],[0.3875,0.37037037037037035],[0.38125,0.3611111111111111],[0.375,0.3537037037037037],[0.375,0.3537037037037037],[0.375,0.3537037037037037],[0.375,0.3537037037037037],[0.375,0.3537037037037037],[0.375,0.3537037037037037],[0.375,0.3537037037037037],[0.375,0.3537037037037037],[0.375,0.3537037037037037],[0.375,0.3537037037037037],[0.375,0.3537037037037037],[0.375,0.3537037037037037],[0.375,0.3537037037037037],[0.375,0.3537037037037037],[0.375,0.3537037037037037],[0.375,0.3537037037037037],[0.375,0.3537037037037037],[0.375,0.3537037037037037],[0.375,0.3537037037037037],[0.375,0.3537037037037037],[0.375,0.3537037037037037],[0.375,0.3537037037037037],[0.375,0.3537037037037037],[0.375,0.3537037037037037],[0.375,0.3537037037037037]]","[[0.051250000000000046,-0.18851851851851853],[0.051250000000000046,-0.18851851851851853],[0.051250000000000046,-0.18851851851851853],[0.06333333333333328,-0.19092592592592597],[0.0943749999999999,-0.18462962962962962],[0.12885416666666671,-0.16370370370370366],[0.15552083333333327,-0.15259259259259256],[0.1790625000000001,-0.14370370370370375],[0.2146874999999999,-0.10018518518518522],[0.24229166666666657,-0.06722222222222224],[0.26020833333333326,-0.01574074074074074],[0.2578125,0.012962962962962963],[0.2586458333333333,0.01592592592592597],[0.26583333333333337,0.0455555555555556],[0.25020833333333337,0.06185185185185181],[0.2345833333333334,0.07814814814814823],[0.221875,0.09537037037037037],[0.2091666666666666,0.11259259259259251],[0.18822916666666673,0.10648148148148148],[0.16156249999999991,0.1361111111111111],[0.15572916666666667,0.12777777777777777],[0.14989583333333342,0.11944444444444445],[0.14541666666666658,0.10870370370370379],[0.14093749999999997,0.09796296296296292],[0.140625,0.08833333333333342],[0.13208333333333327,0.07222222222222222],[0.12843749999999995,0.06500000000000004],[0.12614583333333323,0.07907407407407416],[0.12000000000000005,0.08185185185185194],[0.11958333333333329,0.04888888888888885],[0.09968750000000005,0.022592592592592678],[0.07979166666666657,-0.003703703703703704],[0.06697916666666662,0.0257407407407407],[0.05416666666666667,0.0551851851851851],[0.013437499999999976,0.09277777777777782],[-0.01906249999999995,0.1368518518518518],[-0.06541666666666662,0.16925925925925922],[-0.11312500000000002,0.18037037037037032],[-0.16468750000000001,0.20425925925925917],[-0.21625000000000003,0.22814814814814824],[-0.25114583333333335,0.2507407407407407],[-0.2860416666666667,0.2733333333333334],[-0.31625000000000003,0.2551851851851851],[-0.34645833333333337,0.23703703703703705],[-0.34874999999999995,0.22481481481481477],[-0.35104166666666664,0.2125925925925925],[-0.33927083333333335,0.21944444444444444],[-0.32749999999999996,0.22629629629629638],[-0.325,0.21592592592592597],[-0.3047916666666667,0.19185185185185188],[-0.3047916666666667,0.152962962962963],[-0.2985416666666667,0.13111111111111104],[-0.29666666666666663,0.1398148148148148],[-0.2947916666666667,0.1485185185185186],[-0.26666666666666666,0.11203703703703703],[-0.23854166666666668,0.07555555555555547],[-0.19302083333333328,0.03370370370370379],[-0.14750000000000002,-0.008148148148148106],[-0.11156250000000002,-0.04203703703703712],[-0.09333333333333335,-0.06222222222222226],[-0.05572916666666667,-0.07296296296296292],[-0.024374999999999977,-0.1007407407407407],[0.005729166666666666,-0.10611111111111113],[0.03583333333333331,-0.11148148148148146],[0.051250000000000046,-0.06018518518518518],[0.058854166666666666,-0.030740740740740784],[0.06645833333333329,0.018333333333333292],[0.07802083333333343,0.04462962962962967],[0.1118750000000001,0.07240740740740745],[0.14572916666666677,0.10018518518518522],[0.18270833333333342,0.1574074074074074],[0.18270833333333342,0.1574074074074074],[0.2196875000000001,0.2146296296296296],[0.24718749999999995,0.2007407407407407],[0.27468750000000003,0.1868518518518518],[0.28937499999999994,0.1824074074074074],[0.2864583333333333,0.17851851851851847],[0.2913541666666667,0.1742592592592593],[0.2557291666666667,0.1727777777777777],[0.2205208333333334,0.16629629629629622],[0.215625,0.1844444444444445],[0.16958333333333328,0.18870370370370365],[0.1443749999999999,0.16796296296296304],[0.10614583333333343,0.1727777777777777],[0.09072916666666657,0.1905555555555555],[0.07625000000000005,0.17685185185185184],[0.07458333333333324,0.16814814814814807],[0.04750000000000002,0.1381481481481482],[0.06822916666666666,0.14203703703703713],[0.08895833333333343,0.14592592592592585],[0.0787499999999999,0.1242592592592593],[0.09718749999999995,0.08833333333333342],[0.09281249999999991,0.07888888888888893],[0.10979166666666676,0.07185185185185176],[0.08208333333333329,0.08574074074074066],[0.08208333333333329,0.08574074074074066],[0.07614583333333323,0.11462962962962958],[0.07614583333333323,0.11462962962962958],[0.08010416666666677,0.15425925925925918],[0.08010416666666677,0.15425925925925918],[0.0943749999999999,0.15999999999999995],[0.08499999999999991,0.16777777777777783],[0.08499999999999991,0.16777777777777783],[0.057083333333333285,0.1911111111111112],[0.057291666666666664,0.19740740740740745],[0.057291666666666664,0.19740740740740745],[0.044062499999999956,0.22962962962962963],[0.07708333333333334,0.23185185185185195],[0.13812499999999991,0.24648148148148152],[0.22104166666666672,0.2272222222222223],[0.25770833333333343,0.15907407407407403],[0.2508333333333333,0.16814814814814807],[0.2681250000000001,0.21999999999999992],[0.2978125000000001,0.255925925925926],[0.3376041666666666,0.2772222222222223],[0.3498958333333334,0.3164814814814814],[0.3792708333333332,0.33555555555555566],[0.35479166666666656,0.33555555555555566],[0.2984375,0.3918518518518519],[0.2039583333333333,0.4564814814814815],[0.13395833333333323,0.555],[0.15177083333333338,0.5303703703703704],[0.13510416666666672,0.49685185185185177],[0.12895833333333329,0.4485185185185186],[0.13125,0.3992592592592593],[0.13354166666666673,0.35],[0.12802083333333342,0.3411111111111112],[0.13208333333333327,0.3798148148148149],[0.10072916666666672,0.35703703703703693],[0.10499999999999995,0.3448148148148149],[0.10750000000000005,0.31296296296296294],[0.08322916666666676,0.33666666666666656],[0.05541666666666671,0.3568518518518519],[0.022187499999999954,0.3714814814814815],[-0.04645833333333336,0.41],[-0.1094791666666667,0.44666666666666677],[-0.16281249999999994,0.45481481481481484],[-0.20833333333333334,0.4433333333333333],[-0.21812499999999999,0.4418518518518519],[-0.20187499999999994,0.4044444444444444],[-0.22531249999999994,0.42740740740740735],[-0.22531249999999994,0.42740740740740735],[-0.29635416666666664,0.4787037037037037],[-0.29635416666666664,0.4787037037037037],[-0.3572916666666667,0.5361111111111111],[-0.4101041666666667,0.6131481481481482],[-0.42875,0.6909259259259259],[-0.4523958333333333,0.7453703703703703],[-0.4901041666666667,0.8359259259259259],[-0.535625,0.9461111111111112],[-0.5990625,0.9944444444444445],[-0.6860416666666667,1.0598148148148148],[-0.744375,1.144814814814815],[-0.7698958333333333,1.1974074074074073],[-0.7971874999999999,1.2170370370370371],[-0.8309375,1.225740740740741],[-0.8309375,1.225740740740741],[-0.8533333333333334,1.1894444444444443],[-0.8841666666666667,1.1807407407407406],[-0.9045833333333333,1.1364814814814816],[-0.8261458333333334,1.083888888888889],[-0.7268749999999999,1.0729629629629631],[-0.5803125,0.9949999999999999],[-0.4209375,0.8566666666666667],[-0.27666666666666667,0.6755555555555555],[-0.13895833333333332,0.5548148148148149],[0.004375000000000047,0.42185185185185176],[0.09052083333333343,0.3792592592592592],[0.22083333333333333,0.28296296296296286],[0.3511458333333332,0.1866666666666666],[0.3125,0.16222222222222227],[0.26291666666666674,0.16666666666666666],[0.1875,0.2270370370370371],[0.11208333333333324,0.2874074074074075],[0.04895833333333333,0.3587037037037038],[-0.004166666666666667,0.4385185185185184],[-0.05562499999999997,0.4859259259259259],[-0.060000000000000026,0.46333333333333343],[-0.08520833333333329,0.4583333333333333],[-0.11041666666666666,0.45333333333333325],[-0.05281250000000005,0.36314814814814816],[0.016354166666666715,0.247037037037037],[0.050625000000000024,0.14333333333333328],[0.09541666666666657,0.0588888888888888],[0.14385416666666656,0.005555555555555556],[0.18406250000000005,-0.08629629629629634],[0.19874999999999995,-0.14370370370370375],[0.21343750000000009,-0.20111111111111116],[0.2146874999999999,-0.20851851851851855],[0.22552083333333334,-0.2190740740740741],[0.21281249999999996,-0.22870370370370371],[0.20010416666666658,-0.2383333333333333],[0.20593750000000005,-0.24611111111111106],[0.22374999999999995,-0.23944444444444446],[0.2608333333333334,-0.21592592592592597],[0.2557291666666667,-0.1896296296296296],[0.2685416666666666,-0.1270370370370371],[0.28145833333333337,-0.08203703703703706],[0.2672916666666666,0.014259259259259343],[0.24052083333333343,0.12314814814814815],[0.22937500000000005,0.24074074074074073],[0.21822916666666667,0.35833333333333334],[0.21083333333333343,0.47962962962962963],[0.1865624999999999,0.5525925925925925],[0.1390625,0.5748148148148148],[0.1390625,0.5748148148148148],[0.1337500000000001,0.5942592592592593],[0.115625,0.6112962962962963],[0.09302083333333329,0.6137037037037036],[0.09291666666666672,0.5844444444444444],[0.1053124999999999,0.5342592592592592],[0.11291666666666676,0.49611111111111106],[0.07447916666666667,0.42555555555555546],[0.011979166666666667,0.3785185185185185],[0.011979166666666667,0.3785185185185185],[-0.06822916666666666,0.36574074074074076],[-0.06822916666666666,0.36574074074074076],[-0.13614583333333338,0.3755555555555555],[-0.20499999999999996,0.36314814814814816],[-0.20499999999999996,0.36314814814814816],[-0.2685416666666666,0.3581481481481481],[-0.2685416666666666,0.3581481481481481],[-0.330625,0.38870370370370366],[-0.330625,0.38870370370370366],[-0.39510416666666665,0.3992592592592593],[-0.39510416666666665,0.3992592592592593],[-0.4515625,0.39648148148148155],[-0.5191666666666667,0.4107407407407407],[-0.5347916666666667,0.43203703703703694],[-0.5352083333333333,0.42296296296296293],[-0.5266666666666667,0.41722222222222216],[-0.5272916666666666,0.4235185185185186],[-0.5328125,0.4551851851851851],[-0.525,0.45111111111111113],[-0.525,0.45111111111111113],[-0.48812500000000003,0.4703703703703704],[-0.46822916666666664,0.4537037037037037],[-0.42614583333333333,0.4214814814814815],[-0.3729166666666667,0.37222222222222223],[-0.325625,0.3483333333333334],[-0.27062499999999995,0.34814814814814815],[-0.22083333333333333,0.3418518518518519],[-0.1710416666666667,0.33555555555555566],[-0.12729166666666672,0.28777777777777774],[-0.09583333333333334,0.25629629629629624],[-0.09052083333333331,0.19814814814814816],[-0.06270833333333338,0.17592592592592593],[-0.051250000000000046,0.1337037037037038],[-0.05291666666666662,0.07388888888888885],[-0.0578125,0.03351851851851856],[-0.02791666666666662,-0.041111111111111195],[0.010312499999999976,-0.13259259259259262],[-0.002708333333333357,-0.205],[-0.003854166666666714,-0.2390740740740741],[-0.026250000000000048,-0.1698148148148148],[-0.04864583333333338,-0.10055555555555558],[-0.03947916666666664,-0.1655555555555555],[-0.05364583333333333,-0.17018518518518513],[-0.05364583333333333,-0.17018518518518513],[-0.05249999999999998,-0.18351851851851855],[-0.04989583333333331,-0.15351851851851847],[-0.08979166666666671,-0.11296296296296296],[-0.1358333333333333,-0.0690740740740741],[-0.0936458333333333,-0.07555555555555557],[-0.05145833333333331,-0.08203703703703706],[0.05666666666666664,-0.2103703703703704],[0.16479166666666673,-0.3387037037037037],[0.1540625000000001,-0.3227777777777778],[0.15187499999999995,-0.3205555555555556],[0.1474999999999999,-0.29203703703703704],[0.17677083333333338,-0.297037037037037],[0.20604166666666662,-0.3020370370370371],[0.2586458333333333,-0.35259259259259257],[0.24010416666666667,-0.334074074074074],[0.26875,-0.34814814814814815],[0.25270833333333326,-0.34370370370370373],[0.22468750000000004,-0.31555555555555553],[0.2557291666666667,-0.2770370370370371],[0.29562499999999997,-0.22018518518518515],[0.3540625000000001,-0.15018518518518523],[0.37510416666666657,-0.1566666666666667],[0.3844791666666666,-0.14148148148148143],[0.35604166666666665,-0.08555555555555554],[0.36177083333333326,-0.06740740740740736],[0.34385416666666657,-0.013518518518518435],[0.31906249999999997,0.08111111111111102],[0.2771874999999999,0.15777777777777785],[0.30354166666666677,0.16425925925925935],[0.29416666666666674,0.1316666666666667],[0.28250000000000003,0.12666666666666662],[0.253125,0.1824074074074074],[0.24416666666666675,0.17407407407407408],[0.2742708333333333,0.15851851851851856],[0.30437500000000006,0.14296296296296304],[0.2708333333333333,0.1685185185185185],[0.26552083333333343,0.1479629629629629],[0.28406250000000005,0.10203703703703708],[0.26197916666666665,0.09000000000000004],[0.24958333333333324,0.13111111111111104],[0.21145833333333333,0.15537037037037033],[0.22583333333333327,0.17481481481481478],[0.23145833333333338,0.23666666666666658],[0.23635416666666675,0.2687037037037037],[0.2412499999999999,0.3007407407407407],[0.28104166666666663,0.2996296296296295],[0.2994791666666667,0.30388888888888893],[0.3367708333333333,0.33833333333333343],[0.3740624999999999,0.3727777777777777],[0.41687500000000005,0.37888888888888894],[0.44635416666666666,0.37777777777777777],[0.4428124999999999,0.33722222222222226],[0.4392708333333334,0.29666666666666675],[0.42906250000000007,0.29314814814814805],[0.42906250000000007,0.29314814814814805],[0.3898958333333333,0.30462962962962964],[0.3685416666666666,0.3307407407407408],[0.3471874999999999,0.35351851851851845],[0.31395833333333345,0.36444444444444435],[0.2598958333333333,0.33055555555555555],[0.20895833333333325,0.30629629629629623],[0.19656250000000006,0.23407407407407405],[0.20083333333333328,0.2631481481481482],[0.20822916666666677,0.3146296296296296],[0.20458333333333342,0.3675925925925926],[0.20645833333333338,0.3303703703703703],[0.22625000000000003,0.31203703703703706],[0.22781250000000006,0.2977777777777777],[0.21145833333333333,0.24314814814814806],[0.2209374999999999,0.31444444444444436],[0.25052083333333336,0.3516666666666666],[0.25052083333333336,0.3516666666666666],[0.25510416666666674,0.4275925925925925],[0.25593750000000004,0.42611111111111116],[0.25593750000000004,0.42611111111111116],[0.23802083333333332,0.37407407407407406],[0.23802083333333332,0.37407407407407406],[0.22010416666666663,0.322037037037037],[0.2445833333333333,0.35055555555555545],[0.2445833333333333,0.35055555555555545],[0.23854166666666668,0.3344444444444445],[0.24375,0.3122222222222223],[0.2724999999999999,0.3292592592592592],[0.2724999999999999,0.3292592592592592],[0.31354166666666666,0.2449999999999999],[0.31354166666666666,0.2449999999999999],[0.2984375,0.23722222222222225],[0.31666666666666665,0.1838888888888888],[0.32572916666666674,0.13740740740740748],[0.32572916666666674,0.13740740740740748],[0.3633333333333333,0.0911111111111112],[0.38916666666666655,0.06277777777777774],[0.39604166666666674,0.02907407407407416],[0.41510416666666666,-0.006296296296296254],[0.43114583333333345,-0.07388888888888885],[0.43875000000000003,-0.1316666666666667],[0.42218749999999994,-0.1411111111111111],[0.4409374999999999,-0.2014814814814815],[0.43552083333333325,-0.23129629629629625],[0.43718750000000006,-0.29074074074074074],[0.43333333333333335,-0.2887037037037037],[0.42687499999999995,-0.33499999999999996],[0.4306250000000001,-0.3440740740740741],[0.4306250000000001,-0.3440740740740741],[0.42041666666666655,-0.3794444444444444],[0.4358333333333334,-0.34148148148148144],[0.4358333333333334,-0.34148148148148144],[0.4366666666666667,-0.3455555555555556],[0.4366666666666667,-0.3455555555555556],[0.37781250000000005,-0.3309259259259259],[0.31968750000000007,-0.30777777777777776],[0.24552083333333338,-0.23796296296296296],[0.1642708333333334,-0.13851851851851854],[0.1252083333333334,-0.172037037037037],[0.10052083333333334,-0.17518518518518522],[0.06645833333333329,-0.22462962962962965],[0.05249999999999998,-0.2381481481481482],[-0.04541666666666669,-0.2477777777777778],[-0.027187500000000024,-0.2890740740740741],[0.000416666666666643,-0.30388888888888893],[0.02802083333333331,-0.31870370370370377],[0.09333333333333324,-0.3864814814814815],[0.13937499999999994,-0.43851851851851853],[0.16843750000000005,-0.415925925925926],[0.1974999999999999,-0.3933333333333333],[0.20604166666666662,-0.3814814814814815],[0.20666666666666675,-0.4094444444444445],[0.2756249999999999,-0.4770370370370371],[0.2345833333333334,-0.4388888888888889],[0.2507291666666667,-0.4740740740740741],[0.26687500000000003,-0.5092592592592593],[0.2833333333333333,-0.5322222222222222],[0.31906249999999997,-0.570925925925926],[0.334375,-0.5818518518518518],[0.34968750000000004,-0.5927777777777778],[0.3662499999999999,-0.5944444444444444],[0.3723958333333333,-0.5642592592592592],[0.38604166666666656,-0.495],[0.4091666666666666,-0.46518518518518515],[0.4296875,-0.46296296296296297],[0.44729166666666675,-0.47759259259259257],[0.3664583333333333,-0.43703703703703706],[0.3797916666666666,-0.4479629629629629],[0.3914583333333333,-0.42981481481481487],[0.403125,-0.4116666666666667],[0.42218749999999994,-0.38555555555555554],[0.4279166666666666,-0.36870370370370376],[0.39520833333333344,-0.4105555555555555],[0.39968750000000003,-0.4690740740740741],[0.3537499999999999,-0.4372222222222223],[0.3655208333333334,-0.41518518518518516],[0.4538541666666667,-0.44666666666666666],[0.4040625000000001,-0.3731481481481482],[0.34375,-0.3316666666666667],[0.2841666666666666,-0.2918518518518519],[0.2234375,-0.2512962962962963],[0.17604166666666668,-0.2014814814814815],[0.184375,-0.15314814814814812],[0.15552083333333327,-0.08814814814814818],[0.21708333333333343,-0.11129629629629634],[0.22541666666666677,-0.11277777777777774],[0.21427083333333338,-0.1014814814814815],[0.24708333333333338,-0.14370370370370375],[0.24708333333333338,-0.14370370370370375],[0.2691666666666668,-0.18222222222222217],[0.3150000000000001,-0.23351851851851857],[0.3729166666666667,-0.2825925925925926],[0.43093750000000003,-0.33055555555555555],[0.46416666666666656,-0.3574074074074074],[0.5070833333333333,-0.36666666666666664],[0.5126041666666665,-0.35055555555555556],[0.5546875,-0.3477777777777778],[0.6162499999999999,-0.35777777777777775],[0.6671875,-0.36796296296296294],[0.7288541666666667,-0.38185185185185183],[0.7502083333333334,-0.3877777777777777],[0.7486458333333333,-0.40259259259259256],[0.7469791666666665,-0.4185185185185185],[0.7354166666666667,-0.4274074074074074],[0.7341666666666666,-0.4316666666666667],[0.7329166666666665,-0.4359259259259259],[0.6986458333333334,-0.43574074074074076],[0.6643749999999999,-0.43555555555555553],[0.6095833333333334,-0.4251851851851852],[0.5547916666666666,-0.4148148148148148],[0.5317708333333333,-0.41074074074074074],[0.5317708333333333,-0.39814814814814814],[0.546875,-0.38870370370370366],[0.5476041666666667,-0.38074074074074077],[0.5227083333333333,-0.3912962962962963],[0.4978125000000001,-0.40185185185185185],[0.4765625,-0.4064814814814815],[0.45343749999999994,-0.38925925925925925],[0.4861458333333334,-0.3896296296296296],[0.5126041666666665,-0.40370370370370373],[0.5150000000000001,-0.3883333333333333],[0.5150000000000001,-0.3883333333333333],[0.5128125,-0.3990740740740741],[0.4931250000000001,-0.40407407407407403],[0.4931250000000001,-0.40407407407407403],[0.4977083333333333,-0.41462962962962957],[0.5148958333333333,-0.3998148148148148],[0.5148958333333333,-0.3998148148148148],[0.5322916666666667,-0.38499999999999995],[0.5322916666666667,-0.38499999999999995],[0.5478125000000001,-0.3603703703703704],[0.5478125000000001,-0.3603703703703704],[0.5586458333333333,-0.35037037037037033],[0.5366666666666667,-0.3383333333333333],[0.5414583333333333,-0.33499999999999996],[0.5543750000000001,-0.3483333333333334],[0.5492708333333333,-0.31203703703703706],[0.5465625000000001,-0.2783333333333334],[0.5370833333333332,-0.2559259259259259],[0.520625,-0.2625925925925926],[0.5070833333333333,-0.2603703703703704]]","[[0.051250000000000046,-0.18851851851851853,0.00019999999553022008],[0.051250000000000046,-0.18851851851851853,0.03889999999850602],[0.051250000000000046,-0.18851851851851853,0.04550000000000409],[0.06333333333333328,-0.19092592592592597,0.06210000000149307],[0.0943749999999999,-0.18462962962962962,0.07879999999701681],[0.12885416666666671,-0.16370370370370366,0.09560000000149671],[0.15552083333333327,-0.15259259259259256,0.11219999999552499],[0.1790625000000001,-0.14370370370370375,0.12879999999701397],[0.2146874999999999,-0.10018518518518522,0.14539999999851716],[0.24229166666666657,-0.06722222222222224,0.1621000000014874],[0.26020833333333326,-0.01574074074074074,0.17869999999552988],[0.2578125,0.012962962962962963,0.19539999999851432],[0.2586458333333333,0.01592592592592597,0.21429999999702432],[0.26583333333333337,0.0455555555555556,0.22939999999850613],[0.25020833333333337,0.06185185185185181,0.2469999999999999],[0.2345833333333334,0.07814814814814823,0.2621000000014959],[0.221875,0.09537037037037037,0.27879999999701965],[0.2091666666666666,0.11259259259259251,0.29539999999850863],[0.18822916666666673,0.10648148148148148,0.31219999999552783],[0.16156249999999991,0.1361111111111111,0.3287999999970168],[0.15572916666666667,0.12777777777777777,0.3453999999985058],[0.14989583333333342,0.11944444444444445,0.3651999999955251],[0.14541666666666658,0.10870370370370379,0.37879999999701397],[0.14093749999999997,0.09796296296296292,0.3954999999999984],[0.140625,0.08833333333333342,0.41219999999553636],[0.13208333333333327,0.07222222222222222,0.42879999999702534],[0.12843749999999995,0.06500000000000004,0.44549999999999557],[0.12614583333333323,0.07907407407407416,0.46210000000148455],[0.12000000000000005,0.08185185185185194,0.47869999999552704],[0.11958333333333329,0.04888888888888885,0.49550000000000693],[0.09968750000000005,0.022592592592592678,0.5121999999955307],[0.07979166666666657,-0.003703703703703704,0.5287999999970197],[0.06697916666666662,0.0257407407407407,0.5453999999985086],[0.05416666666666667,0.0551851851851851,0.5621999999955278],[0.013437499999999976,0.09277777777777782,0.5786999999955356],[-0.01906249999999995,0.1368518518518518,0.5955000000000013],[-0.06541666666666662,0.16925925925925922,0.612199999995525],[-0.11312500000000002,0.18037037037037032,0.628799999997014],[-0.16468750000000001,0.20425925925925917,0.6454999999999984],[-0.21625000000000003,0.22814814814814824,0.6621000000014874],[-0.25114583333333335,0.2507407407407407,0.6786999999955299],[-0.2860416666666667,0.2733333333333334,0.6954999999999956],[-0.31625000000000003,0.2551851851851851,0.7121999999955335],[-0.34645833333333337,0.23703703703703705,0.7287999999970225],[-0.34874999999999995,0.22481481481481477,0.7455000000000069],[-0.35104166666666664,0.2125925925925925,0.7621999999955307],[-0.33927083333333335,0.21944444444444444,0.7786999999955242],[-0.32749999999999996,0.22629629629629638,0.7953999999985086],[-0.325,0.21592592592592597,0.8121999999955278],[-0.3047916666666667,0.19185185185185188,0.8289999999999935],[-0.3047916666666667,0.152962962962963,0.8455000000000013],[-0.2985416666666667,0.13111111111111104,0.8621000000014902],[-0.29666666666666663,0.1398148148148148,0.878799999997014],[-0.2947916666666667,0.1485185185185186,0.8954999999999984],[-0.26666666666666666,0.11203703703703703,0.9121999999955364],[-0.23854166666666668,0.07555555555555547,0.9287999999970253],[-0.19302083333333328,0.03370370370370379,0.9453999999985143],[-0.14750000000000002,-0.008148148148148106,0.9620000000000033],[-0.11156250000000002,-0.04203703703703712,0.9787999999970225],[-0.09333333333333335,-0.06222222222222226,0.9953999999985115],[-0.05572916666666667,-0.07296296296296292,1.0121999999955307],[-0.024374999999999977,-0.1007407407407407,1.0287999999970197],[0.005729166666666666,-0.10611111111111113,1.045500000000004],[0.03583333333333331,-0.11148148148148146,1.0655000000000001],[0.051250000000000046,-0.06018518518518518,1.0806000000014961],[0.058854166666666666,-0.030740740740740784,1.0955000000000013],[0.06645833333333329,0.018333333333333292,1.112199999995525],[0.07802083333333343,0.04462962962962967,1.128799999997014],[0.1118750000000001,0.07240740740740745,1.1453999999985172],[0.14572916666666677,0.10018518518518522,1.1621000000014874],[0.18270833333333342,0.1574074074074074,1.1786999999955299],[0.18270833333333342,0.1574074074074074,1.1953999999985143],[0.2196875000000001,0.2146296296296296,1.2122999999970148],[0.24718749999999995,0.2007407407407407,1.228699999995527],[0.27468750000000003,0.1868518518518518,1.245500000000007],[0.28937499999999994,0.1824074074074074,1.262100000001496],[0.2864583333333333,0.17851851851851847,1.2787999999970197],[0.2913541666666667,0.1742592592592593,1.2953999999985086],[0.2557291666666667,0.1727777777777777,1.3121999999955278],[0.2205208333333334,0.16629629629629622,1.3287999999970168],[0.215625,0.1844444444444445,1.3455000000000013],[0.16958333333333328,0.18870370370370365,1.3621000000014902],[0.1443749999999999,0.16796296296296304,1.3786999999955327],[0.10614583333333343,0.1727777777777777,1.3953999999985172],[0.09072916666666657,0.1905555555555555,1.417100000001497],[0.07625000000000005,0.17685185185185184,1.4326000000014858],[0.07458333333333324,0.16814814814814807,1.4477999999970166],[0.04750000000000002,0.1381481481481482,1.4622999999970148],[0.06822916666666666,0.14203703703703713,1.4787999999970225],[0.08895833333333343,0.14592592592592585,1.495500000000007],[0.0787499999999999,0.1242592592592593,1.5151999999955308],[0.09718749999999995,0.08833333333333342,1.5288999999985151],[0.09281249999999991,0.07888888888888893,1.5453999999985086],[0.10979166666666676,0.07185185185185176,1.5651000000014932],[0.08208333333333329,0.08574074074074066,1.5811000000014843],[0.08208333333333329,0.08574074074074066,1.5956000000014967],[0.07614583333333323,0.11462962962962958,1.6176999999955228],[0.07614583333333323,0.11462962962962958,1.628799999997014],[0.08010416666666677,0.15425925925925918,1.6456999999955286],[0.08010416666666677,0.15425925925925918,1.6621000000014874],[0.0943749999999999,0.15999999999999995,1.6786999999955299],[0.08499999999999991,0.16777777777777783,1.6981000000014888],[0.08499999999999991,0.16777777777777783,1.7121000000014845],[0.057083333333333285,0.1911111111111112,1.7287999999970225],[0.057291666666666664,0.19740740740740745,1.7498999999985045],[0.057291666666666664,0.19740740740740745,1.7620000000000005],[0.044062499999999956,0.22962962962962963,1.7786999999955242],[0.07708333333333334,0.23185185185185195,1.7953999999985086],[0.13812499999999991,0.24648148148148152,1.8126999999955302],[0.22104166666666672,0.2272222222222223,1.8286999999955356],[0.25770833333333343,0.15907407407407403,1.8478999999985035],[0.2508333333333333,0.16814814814814807,1.862199999995525],[0.2681250000000001,0.21999999999999992,1.879199999995535],[0.2978125000000001,0.255925925925926,1.8988999999985055],[0.3376041666666666,0.2772222222222223,1.9154999999999944],[0.3498958333333334,0.3164814814814814,1.9298999999985114],[0.3792708333333332,0.33555555555555566,1.9454999999999956],[0.35479166666666656,0.33555555555555566,1.964899999998508],[0.2984375,0.3918518518518519,1.9812999999970202],[0.2039583333333333,0.4564814814814815,1.9969999999999999],[0.13395833333333323,0.555,2.0161999999955356],[0.15177083333333338,0.5303703703703704,2.0306999999955337],[0.13510416666666672,0.49685185185185177,2.045500000000004],[0.12895833333333329,0.4485185185185186,2.0619999999999976],[0.13125,0.3992592592592593,2.0786999999955356],[0.13354166666666673,0.35,2.0955000000000013],[0.12802083333333342,0.3411111111111112,2.112199999995525],[0.13208333333333327,0.3798148148148149,2.128799999997014],[0.10072916666666672,0.35703703703703693,2.1466000000014844],[0.10499999999999995,0.3448148148148149,2.1621000000014874],[0.10750000000000005,0.31296296296296294,2.183399999998514],[0.08322916666666676,0.33666666666666656,2.197299999997014],[0.05541666666666671,0.3568518518518519,2.2121000000014845],[0.022187499999999954,0.3714814814814815,2.2325000000000017],[-0.04645833333333336,0.41,2.2487999999970185],[-0.1094791666666667,0.44666666666666677,2.2631999999955354],[-0.16281249999999994,0.45481481481481484,2.2787999999970197],[-0.20833333333333334,0.4433333333333333,2.2953999999985086],[-0.21812499999999999,0.4418518518518519,2.312100000001493],[-0.20187499999999994,0.4044444444444444,2.3286999999955356],[-0.22531249999999994,0.42740740740740735,2.348600000001497],[-0.22531249999999994,0.42740740740740735,2.362499999999997],[-0.29635416666666664,0.4787037037037037,2.3786999999955327],[-0.29635416666666664,0.4787037037037037,2.3961000000014963],[-0.3572916666666667,0.5361111111111111,2.4121999999955364],[-0.4101041666666667,0.6131481481481482,2.42869999999553],[-0.42875,0.6909259259259259,2.4453999999985143],[-0.4523958333333333,0.7453703703703703,2.4621000000014845],[-0.4901041666666667,0.8359259259259259,2.4788999999985037],[-0.535625,0.9461111111111112,2.4953999999985115],[-0.5990625,0.9944444444444445,2.5150000000000006],[-0.6860416666666667,1.0598148148148148,2.528699999995524],[-0.744375,1.144814814814815,2.545500000000004],[-0.7698958333333333,1.1974074074074073,2.562100000001493],[-0.7971874999999999,1.2170370370370371,2.5786999999955356],[-0.8309375,1.225740740740741,2.5955000000000013],[-0.8309375,1.225740740740741,2.6121000000014902],[-0.8533333333333334,1.1894444444444443,2.6286999999955327],[-0.8841666666666667,1.1807407407407406,2.645399999998517],[-0.9045833333333333,1.1364814814814816,2.6621000000014874],[-0.8261458333333334,1.083888888888889,2.6787999999970253],[-0.7268749999999999,1.0729629629629631,2.6953999999985143],[-0.5803125,0.9949999999999999,2.7121000000014845],[-0.4209375,0.8566666666666667,2.7287999999970225],[-0.27666666666666667,0.6755555555555555,2.7453999999985115],[-0.13895833333333332,0.5548148148148149,2.762100000001496],[0.004375000000000047,0.42185185185185176,2.7817999999970198],[0.09052083333333343,0.3792592592592592,2.795299999997013],[0.22083333333333333,0.28296296296296286,2.812100000001493],[0.3511458333333332,0.1866666666666666,2.8286999999955356],[0.3125,0.16222222222222227,2.8455000000000013],[0.26291666666666674,0.16666666666666666,2.8621000000014902],[0.1875,0.2270370370370371,2.878799999997014],[0.11208333333333324,0.2874074074074075,2.895399999998517],[0.04895833333333333,0.3587037037037038,2.9121000000014874],[-0.004166666666666667,0.4385185185185184,2.9287999999970253],[-0.05562499999999997,0.4859259259259259,2.945299999997019],[-0.060000000000000026,0.46333333333333343,2.9621000000014845],[-0.08520833333333329,0.4583333333333333,2.978699999995527],[-0.11041666666666666,0.45333333333333325,2.9953999999985115],[-0.05281250000000005,0.36314814814814816,3.012100000001496],[0.016354166666666715,0.247037037037037,3.028699999995524],[0.050625000000000024,0.14333333333333328,3.0453999999985086],[0.09541666666666657,0.0588888888888888,3.0619999999999976],[0.14385416666666656,0.005555555555555556,3.0811000000014843],[0.18406250000000005,-0.08629629629629634,3.095399999998506],[0.19874999999999995,-0.14370370370370375,3.1121000000014902],[0.21343750000000009,-0.20111111111111116,3.1286999999955327],[0.2146874999999999,-0.20851851851851855,3.145399999998517],[0.22552083333333334,-0.2190740740740741,3.162000000000006],[0.21281249999999996,-0.22870370370370371,3.1787999999970253],[0.20010416666666658,-0.2383333333333333,3.1953999999985143],[0.20593750000000005,-0.24611111111111106,3.2121000000014845],[0.22374999999999995,-0.23944444444444446,3.228699999995527],[0.2608333333333334,-0.21592592592592597,3.2453999999985115],[0.2557291666666667,-0.1896296296296296,3.262100000001496],[0.2685416666666666,-0.1270370370370371,3.278699999995524],[0.28145833333333337,-0.08203703703703706,3.2953999999985086],[0.2672916666666666,0.014259259259259343,3.312199999995528],[0.24052083333333343,0.12314814814814815,3.3286999999955356],[0.22937500000000005,0.24074074074074073,3.345399999998506],[0.21822916666666667,0.35833333333333334,3.362199999995525],[0.21083333333333343,0.47962962962962963,3.3786999999955327],[0.1865624999999999,0.5525925925925925,3.395399999998517],[0.1390625,0.5748148148148148,3.412399999998513],[0.1390625,0.5748148148148148,3.42869999999553],[0.1337500000000001,0.5942592592592593,3.4453999999985143],[0.115625,0.6112962962962963,3.4620000000000033],[0.09302083333333329,0.6137037037037036,3.478699999995527],[0.09291666666666672,0.5844444444444444,3.4953999999985115],[0.1053124999999999,0.5342592592592592,3.512100000001496],[0.11291666666666676,0.49611111111111106,3.528699999995524],[0.07447916666666667,0.42555555555555546,3.54660000000149],[0.011979166666666667,0.3785185185185185,3.5619999999999976],[0.011979166666666667,0.3785185185185185,3.5786999999955356],[-0.06822916666666666,0.36574074074074076,3.5955000000000013],[-0.06822916666666666,0.36574074074074076,3.6121000000014902],[-0.13614583333333338,0.3755555555555555,3.6286999999955327],[-0.20499999999999996,0.36314814814814816,3.6486999999955287],[-0.20499999999999996,0.36314814814814816,3.662000000000006],[-0.2685416666666666,0.3581481481481481,3.67869999999553],[-0.2685416666666666,0.3581481481481481,3.6953999999985143],[-0.330625,0.38870370370370366,3.7121999999955335],[-0.330625,0.38870370370370366,3.728699999995527],[-0.39510416666666665,0.3992592592592593,3.7453999999985115],[-0.39510416666666665,0.3992592592592593,3.762100000001496],[-0.4515625,0.39648148148148155,3.7787999999970197],[-0.5191666666666667,0.4107407407407407,3.7953999999985086],[-0.5347916666666667,0.43203703703703694,3.8155],[-0.5352083333333333,0.42296296296296293,3.8286999999955356],[-0.5266666666666667,0.41722222222222216,3.845399999998506],[-0.5272916666666666,0.4235185185185186,3.8621000000014902],[-0.5328125,0.4551851851851851,3.8786999999955327],[-0.525,0.45111111111111113,3.8988999999985055],[-0.525,0.45111111111111113,3.9121999999955364],[-0.48812500000000003,0.4703703703703704,3.9287999999970253],[-0.46822916666666664,0.4537037037037037,3.948299999997019],[-0.42614583333333333,0.4214814814814815,3.964500000000001],[-0.3729166666666667,0.37222222222222223,3.9788999999985037],[-0.325625,0.3483333333333334,3.9976000000014835],[-0.27062499999999995,0.34814814814814815,4.012699999995533],[-0.22083333333333333,0.3418518518518519,4.029100000001492],[-0.1710416666666667,0.33555555555555566,4.049199999995537],[-0.12729166666666672,0.28777777777777774,4.063699999995535],[-0.09583333333333334,0.25629629629629624,4.078699999995536],[-0.09052083333333331,0.19814814814814816,4.0952999999970245],[-0.06270833333333338,0.17592592592592593,4.1156999999955275],[-0.051250000000000046,0.1337037037037038,4.129899999998514],[-0.05291666666666662,0.07388888888888885,4.146100000001496],[-0.0578125,0.03351851851851856,4.162000000000006],[-0.02791666666666662,-0.041111111111111195,4.17869999999553],[0.010312499999999976,-0.13259259259259262,4.197699999995535],[-0.002708333333333357,-0.205,4.213899999998503],[-0.003854166666666714,-0.2390740740740741,4.228999999999999],[-0.026250000000000048,-0.1698148148148148,4.245500000000007],[-0.04864583333333338,-0.10055555555555558,4.264699999995528],[-0.03947916666666664,-0.1655555555555555,4.280299999997027],[-0.05364583333333333,-0.17018518518518513,4.298199999995532],[-0.05364583333333333,-0.17018518518518513,4.3123999999985045],[-0.05249999999999998,-0.18351851851851855,4.33139999999851],[-0.04989583333333331,-0.15351851851851847,4.347999999999999],[-0.08979166666666671,-0.11296296296296296,4.364000000000004],[-0.1358333333333333,-0.0690740740740741,4.382899999998514],[-0.0936458333333333,-0.07555555555555557,4.396699999995533],[-0.05145833333333331,-0.08203703703703706,4.414199999995532],[0.05666666666666664,-0.2103703703703704,4.429000000000002],[0.16479166666666673,-0.3387037037037037,4.448100000001489],[0.1540625000000001,-0.3227777777777778,4.4621999999955335],[0.15187499999999995,-0.3205555555555556,4.479399999998506],[0.1474999999999999,-0.29203703703703704,4.499100000001491],[0.17677083333333338,-0.297037037037037,4.514499999999998],[0.20604166666666662,-0.3020370370370371,4.528899999998515],[0.2586458333333333,-0.35259259259259257,4.548799999997016],[0.24010416666666667,-0.334074074074074,4.564699999995526],[0.26875,-0.34814814814814815,4.580100000001494],[0.25270833333333326,-0.34370370370370373,4.595600000001497],[0.22468750000000004,-0.31555555555555553,4.616299999997025],[0.2557291666666667,-0.2770370370370371,4.6311999999955304],[0.29562499999999997,-0.22018518518518515,4.645899999998505],[0.3540625000000001,-0.15018518518518523,4.662199999995536],[0.37510416666666657,-0.1566666666666667,4.680999999999997],[0.3844791666666666,-0.14148148148148143,4.695499999999996],[0.35604166666666665,-0.08555555555555554,4.712799999997017],[0.36177083333333326,-0.06740740740740736,4.7287999999970225],[0.34385416666666657,-0.013518518518518435,4.747799999997014],[0.31906249999999997,0.08111111111111102,4.762199999995531],[0.2771874999999999,0.15777777777777785,4.779100000001492],[0.30354166666666677,0.16425925925925935,4.795399999998509],[0.29416666666666674,0.1316666666666667,4.811999999999998],[0.28250000000000003,0.12666666666666662,4.830799999997026],[0.253125,0.1824074074074074,4.846600000001487],[0.24416666666666675,0.17407407407407408,4.863799999997013],[0.2742708333333333,0.15851851851851856,4.878699999995533],[0.30437500000000006,0.14296296296296304,4.895399999998517],[0.2708333333333333,0.1685185185185185,4.912100000001487],[0.26552083333333343,0.1479629629629629,4.92869999999553],[0.28406250000000005,0.10203703703703708,4.945299999997019],[0.26197916666666665,0.09000000000000004,4.962000000000003],[0.24958333333333324,0.13111111111111104,4.978699999995527],[0.21145833333333333,0.15537037037037033,4.997399999998507],[0.22583333333333327,0.17481481481481478,5.012399999998507],[0.23145833333333338,0.23666666666666658,5.028699999995524],[0.23635416666666675,0.2687037037037037,5.045299999997013],[0.2412499999999999,0.3007407407407407,5.061999999999998],[0.28104166666666663,0.2996296296296295,5.078699999995536],[0.2994791666666667,0.30388888888888893,5.0952999999970245],[0.3367708333333333,0.33833333333333343,5.112699999995527],[0.3740624999999999,0.3727777777777777,5.128699999995533],[0.41687500000000005,0.37888888888888894,5.147799999997019],[0.44635416666666666,0.37777777777777777,5.162000000000006],[0.4428124999999999,0.33722222222222226,5.178899999998507],[0.4392708333333334,0.29666666666666675,5.195499999999996],[0.42906250000000007,0.29314814814814805,5.218199999995534],[0.42906250000000007,0.29314814814814805,5.228699999995527],[0.3898958333333333,0.30462962962962964,5.245699999995523],[0.3685416666666666,0.3307407407407408,5.262100000001496],[0.3471874999999999,0.35351851851851845,5.281100000001487],[0.31395833333333345,0.36444444444444435,5.295600000001485],[0.2598958333333333,0.33055555555555555,5.314299999997019],[0.20895833333333325,0.30629629629629623,5.328799999997017],[0.19656250000000006,0.23407407407407405,5.349600000001487],[0.20083333333333328,0.2631481481481482,5.364600000001488],[0.20822916666666677,0.3146296296296296,5.381],[0.20458333333333342,0.3675925925925926,5.395499999999998],[0.20645833333333338,0.3303703703703703,5.416100000001492],[0.22625000000000003,0.31203703703703706,5.43169999999553],[0.22781250000000006,0.2977777777777777,5.447100000001484],[0.21145833333333333,0.24314814814814806,5.462299999997015],[0.2209374999999999,0.31444444444444436,5.481199999995525],[0.25052083333333336,0.3516666666666666,5.495500000000007],[0.25052083333333336,0.3516666666666666,5.512399999998507],[0.25510416666666674,0.4275925925925925,5.528899999998515],[0.25593750000000004,0.42611111111111116,5.549199999995537],[0.25593750000000004,0.42611111111111116,5.562100000001493],[0.23802083333333332,0.37407407407407406,5.579100000001489],[0.23802083333333332,0.37407407407407406,5.595500000000001],[0.22010416666666663,0.322037037037037,5.6167999999970135],[0.2445833333333333,0.35055555555555545,5.633699999995528],[0.2445833333333333,0.35055555555555545,5.645499999999998],[0.23854166666666668,0.3344444444444445,5.662299999997018],[0.24375,0.3122222222222223,5.683600000001491],[0.2724999999999999,0.3292592592592592,5.699699999995531],[0.2724999999999999,0.3292592592592592,5.712299999997015],[0.31354166666666666,0.2449999999999999,5.728899999998504],[0.31354166666666666,0.2449999999999999,5.748399999998512],[0.2984375,0.23722222222222225,5.762199999995531],[0.31666666666666665,0.1838888888888888,5.779299999997022],[0.32572916666666674,0.13740740740740748,5.799000000000007],[0.32572916666666674,0.13740740740740748,5.812299999997023],[0.3633333333333333,0.0911111111111112,5.828799999997017],[0.38916666666666655,0.06277777777777774,5.845399999998506],[0.39604166666666674,0.02907407407407416,5.861999999999995],[0.41510416666666666,-0.006296296296296254,5.8811999999955304],[0.43114583333333345,-0.07388888888888885,5.895299999997022],[0.43875000000000003,-0.1316666666666667,5.912100000001487],[0.42218749999999994,-0.1411111111111111,5.92869999999553],[0.4409374999999999,-0.2014814814814815,5.945399999998514],[0.43552083333333325,-0.23129629629629625,5.962000000000003],[0.43718750000000006,-0.29074074074074074,5.981699999995527],[0.43333333333333335,-0.2887037037037037,5.995600000001488],[0.42687499999999995,-0.33499999999999996,6.0131999999955354],[0.4306250000000001,-0.3440740740740741,6.032299999997022],[0.4306250000000001,-0.3440740740740741,6.045600000001485],[0.42041666666666655,-0.3794444444444444,6.062100000001493],[0.4358333333333334,-0.34148148148148144,6.088499999999996],[0.4358333333333334,-0.34148148148148144,6.107699999995532],[0.4366666666666667,-0.3455555555555556,6.123000000000005],[0.4366666666666667,-0.3455555555555556,6.1356999999955235],[0.37781250000000005,-0.3309259259259259,6.145600000001494],[0.31968750000000007,-0.30777777777777776,6.162199999995536],[0.24552083333333338,-0.23796296296296296,6.179000000000002],[0.1642708333333334,-0.13851851851851854,6.197699999995535],[0.1252083333333334,-0.172037037037037,6.2121000000014845],[0.10052083333333334,-0.17518518518518522,6.228699999995527],[0.06645833333333329,-0.22462962962962965,6.2453999999985115],[0.05249999999999998,-0.2381481481481482,6.2620000000000005],[-0.04541666666666669,-0.2477777777777778,6.280699999995534],[-0.027187500000000024,-0.2890740740740741,6.295299999997013],[0.000416666666666643,-0.30388888888888893,6.312100000001493],[0.02802083333333331,-0.31870370370370377,6.328699999995536],[0.09333333333333324,-0.3864814814814815,6.3452999999970245],[0.13937499999999994,-0.43851851851851853,6.361999999999995],[0.16843750000000005,-0.415925925925926,6.378699999995533],[0.1974999999999999,-0.3933333333333333,6.395399999998517],[0.20604166666666662,-0.3814814814814815,6.412199999995536],[0.20666666666666675,-0.4094444444444445,6.429899999998511],[0.2756249999999999,-0.4770370370370371,6.445399999998514],[0.2345833333333334,-0.4388888888888889,6.462000000000003],[0.2507291666666667,-0.4740740740740741,6.478699999995527],[0.26687500000000003,-0.5092592592592593,6.497799999997014],[0.2833333333333333,-0.5322222222222222,6.5120000000000005],[0.31906249999999997,-0.570925925925926,6.528699999995524],[0.334375,-0.5818518518518518,6.545399999998509],[0.34968750000000004,-0.5927777777777778,6.561999999999998],[0.3662499999999999,-0.5944444444444444,6.578699999995536],[0.3723958333333333,-0.5642592592592592,6.5952999999970245],[0.38604166666666656,-0.495,6.61210000000149],[0.4091666666666666,-0.46518518518518515,6.628799999997014],[0.4296875,-0.46296296296296297,6.645299999997022],[0.44729166666666675,-0.47759259259259257,6.662000000000006],[0.3664583333333333,-0.43703703703703706,6.680699999995525],[0.3797916666666666,-0.4479629629629629,6.695699999995526],[0.3914583333333333,-0.42981481481481487,6.713199999995524],[0.403125,-0.4116666666666667,6.728899999998504],[0.42218749999999994,-0.38555555555555554,6.747399999998507],[0.4279166666666666,-0.36870370370370376,6.7620000000000005],[0.39520833333333344,-0.4105555555555555,6.778699999995524],[0.39968750000000003,-0.4690740740740741,6.795299999997013],[0.3537499999999999,-0.4372222222222223,6.811999999999998],[0.3655208333333334,-0.41518518518518516,6.828699999995536],[0.4538541666666667,-0.44666666666666666,6.845399999998506],[0.4040625000000001,-0.3731481481481482,6.861999999999995],[0.34375,-0.3316666666666667,6.878699999995533],[0.2841666666666666,-0.2918518518518519,6.895299999997022],[0.2234375,-0.2512962962962963,6.912000000000006],[0.17604166666666668,-0.2014814814814815,6.92869999999553],[0.184375,-0.15314814814814812,6.945399999998514],[0.15552083333333327,-0.08814814814814818,6.96239999999851],[0.21708333333333343,-0.11129629629629634,6.978600000001492],[0.22541666666666677,-0.11277777777777774,6.995299999997016],[0.21427083333333338,-0.1014814814814815,7.012100000001496],[0.24708333333333338,-0.14370370370370375,7.028600000001489],[0.24708333333333338,-0.14370370370370375,7.045600000001485],[0.2691666666666668,-0.18222222222222217,7.061999999999998],[0.3150000000000001,-0.23351851851851857,7.078699999995536],[0.3729166666666667,-0.2825925925925926,7.095399999998506],[0.43093750000000003,-0.33055555555555555,7.11210000000149],[0.46416666666666656,-0.3574074074074074,7.128600000001484],[0.5070833333333333,-0.36666666666666664,7.145399999998517],[0.5126041666666665,-0.35055555555555556,7.162100000001487],[0.5546875,-0.3477777777777778,7.17869999999553],[0.6162499999999999,-0.35777777777777775,7.195299999997019],[0.6671875,-0.36796296296296294,7.2121000000014845],[0.7288541666666667,-0.38185185185185183,7.228699999995527],[0.7502083333333334,-0.3877777777777777,7.2453999999985115],[0.7486458333333333,-0.40259259259259256,7.2620000000000005],[0.7469791666666665,-0.4185185185185185,7.278699999995524],[0.7354166666666667,-0.4274074074074074,7.295299999997013],[0.7341666666666666,-0.4316666666666667,7.312100000001493],[0.7329166666666665,-0.4359259259259259,7.328699999995536],[0.6986458333333334,-0.43574074074074076,7.3452999999970245],[0.6643749999999999,-0.43555555555555553,7.361999999999995],[0.6095833333333334,-0.4251851851851852,7.378600000001484],[0.5547916666666666,-0.4148148148148148,7.395399999998517],[0.5317708333333333,-0.41074074074074074,7.412000000000006],[0.5317708333333333,-0.39814814814814814,7.42869999999553],[0.546875,-0.38870370370370366,7.447100000001484],[0.5476041666666667,-0.38074074074074077,7.4621000000014845],[0.5227083333333333,-0.3912962962962963,7.4809999999999945],[0.4978125000000001,-0.40185185185185185,7.4976999999955325],[0.4765625,-0.4064814814814815,7.5138999999985145],[0.45343749999999994,-0.38925925925925925,7.528699999995524],[0.4861458333333334,-0.3896296296296296,7.547600000001495],[0.5126041666666665,-0.40370370370370373,7.561999999999998],[0.5150000000000001,-0.3883333333333333,7.585299999997019],[0.5150000000000001,-0.3883333333333333,7.595399999998506],[0.5128125,-0.3990740740740741,7.61210000000149],[0.4931250000000001,-0.40407407407407403,7.6322999999970165],[0.4931250000000001,-0.40407407407407403,7.645399999998517],[0.4977083333333333,-0.41462962962962957,7.662000000000006],[0.5148958333333333,-0.3998148148148148,7.680699999995525],[0.5148958333333333,-0.3998148148148148,7.695299999997019],[0.5322916666666667,-0.38499999999999995,7.7121000000014845],[0.5322916666666667,-0.38499999999999995,7.728699999995527],[0.5478125000000001,-0.3603703703703704,7.7453999999985115],[0.5478125000000001,-0.3603703703703704,7.7620000000000005],[0.5586458333333333,-0.35037037037037033,7.778699999995524],[0.5366666666666667,-0.3383333333333333,7.795399999998509],[0.5414583333333333,-0.33499999999999996,7.813399999998509],[0.5543750000000001,-0.3483333333333334,7.828699999995536],[0.5492708333333333,-0.31203703703703706,7.845899999998508],[0.5465625000000001,-0.2783333333333334,7.861999999999995],[0.5370833333333332,-0.2559259259259259,7.878699999995533],[0.520625,-0.2625925925925926,7.895299999997022],[0.5070833333333333,-0.2603703703703704,7.914100000001497]]","[0.00019999999553022008,0.03889999999850602,0.04550000000000409,0.06210000000149307,0.07879999999701681,0.09560000000149671,0.11219999999552499,0.12879999999701397,0.14539999999851716,0.1621000000014874,0.17869999999552988,0.19539999999851432,0.21429999999702432,0.22939999999850613,0.2469999999999999,0.2621000000014959,0.27879999999701965,0.29539999999850863,0.31219999999552783,0.3287999999970168,0.3453999999985058,0.3651999999955251,0.37879999999701397,0.3954999999999984,0.41219999999553636,0.42879999999702534,0.44549999999999557,0.46210000000148455,0.47869999999552704,0.49550000000000693,0.5121999999955307,0.5287999999970197,0.5453999999985086,0.5621999999955278,0.5786999999955356,0.5955000000000013,0.612199999995525,0.628799999997014,0.6454999999999984,0.6621000000014874,0.6786999999955299,0.6954999999999956,0.7121999999955335,0.7287999999970225,0.7455000000000069,0.7621999999955307,0.7786999999955242,0.7953999999985086,0.8121999999955278,0.8289999999999935,0.8455000000000013,0.8621000000014902,0.878799999997014,0.8954999999999984,0.9121999999955364,0.9287999999970253,0.9453999999985143,0.9620000000000033,0.9787999999970225,0.9953999999985115,1.0121999999955307,1.0287999999970197,1.045500000000004,1.0655000000000001,1.0806000000014961,1.0955000000000013,1.112199999995525,1.128799999997014,1.1453999999985172,1.1621000000014874,1.1786999999955299,1.1953999999985143,1.2122999999970148,1.228699999995527,1.245500000000007,1.262100000001496,1.2787999999970197,1.2953999999985086,1.3121999999955278,1.3287999999970168,1.3455000000000013,1.3621000000014902,1.3786999999955327,1.3953999999985172,1.417100000001497,1.4326000000014858,1.4477999999970166,1.4622999999970148,1.4787999999970225,1.495500000000007,1.5151999999955308,1.5288999999985151,1.5453999999985086,1.5651000000014932,1.5811000000014843,1.5956000000014967,1.6176999999955228,1.628799999997014,1.6456999999955286,1.6621000000014874,1.6786999999955299,1.6981000000014888,1.7121000000014845,1.7287999999970225,1.7498999999985045,1.7620000000000005,1.7786999999955242,1.7953999999985086,1.8126999999955302,1.8286999999955356,1.8478999999985035,1.862199999995525,1.879199999995535,1.8988999999985055,1.9154999999999944,1.9298999999985114,1.9454999999999956,1.964899999998508,1.9812999999970202,1.9969999999999999,2.0161999999955356,2.0306999999955337,2.045500000000004,2.0619999999999976,2.0786999999955356,2.0955000000000013,2.112199999995525,2.128799999997014,2.1466000000014844,2.1621000000014874,2.183399999998514,2.197299999997014,2.2121000000014845,2.2325000000000017,2.2487999999970185,2.2631999999955354,2.2787999999970197,2.2953999999985086,2.312100000001493,2.3286999999955356,2.348600000001497,2.362499999999997,2.3786999999955327,2.3961000000014963,2.4121999999955364,2.42869999999553,2.4453999999985143,2.4621000000014845,2.4788999999985037,2.4953999999985115,2.5150000000000006,2.528699999995524,2.545500000000004,2.562100000001493,2.5786999999955356,2.5955000000000013,2.6121000000014902,2.6286999999955327,2.645399999998517,2.6621000000014874,2.6787999999970253,2.6953999999985143,2.7121000000014845,2.7287999999970225,2.7453999999985115,2.762100000001496,2.7817999999970198,2.795299999997013,2.812100000001493,2.8286999999955356,2.8455000000000013,2.8621000000014902,2.878799999997014,2.895399999998517,2.9121000000014874,2.9287999999970253,2.945299999997019,2.9621000000014845,2.978699999995527,2.9953999999985115,3.012100000001496,3.028699999995524,3.0453999999985086,3.0619999999999976,3.0811000000014843,3.095399999998506,3.1121000000014902,3.1286999999955327,3.145399999998517,3.162000000000006,3.1787999999970253,3.1953999999985143,3.2121000000014845,3.228699999995527,3.2453999999985115,3.262100000001496,3.278699999995524,3.2953999999985086,3.312199999995528,3.3286999999955356,3.345399999998506,3.362199999995525,3.3786999999955327,3.395399999998517,3.412399999998513,3.42869999999553,3.4453999999985143,3.4620000000000033,3.478699999995527,3.4953999999985115,3.512100000001496,3.528699999995524,3.54660000000149,3.5619999999999976,3.5786999999955356,3.5955000000000013,3.6121000000014902,3.6286999999955327,3.6486999999955287,3.662000000000006,3.67869999999553,3.6953999999985143,3.7121999999955335,3.728699999995527,3.7453999999985115,3.762100000001496,3.7787999999970197,3.7953999999985086,3.8155,3.8286999999955356,3.845399999998506,3.8621000000014902,3.8786999999955327,3.8988999999985055,3.9121999999955364,3.9287999999970253,3.948299999997019,3.964500000000001,3.9788999999985037,3.9976000000014835,4.012699999995533,4.029100000001492,4.049199999995537,4.063699999995535,4.078699999995536,4.0952999999970245,4.1156999999955275,4.129899999998514,4.146100000001496,4.162000000000006,4.17869999999553,4.197699999995535,4.213899999998503,4.228999999999999,4.245500000000007,4.264699999995528,4.280299999997027,4.298199999995532,4.3123999999985045,4.33139999999851,4.347999999999999,4.364000000000004,4.382899999998514,4.396699999995533,4.414199999995532,4.429000000000002,4.448100000001489,4.4621999999955335,4.479399999998506,4.499100000001491,4.514499999999998,4.528899999998515,4.548799999997016,4.564699999995526,4.580100000001494,4.595600000001497,4.616299999997025,4.6311999999955304,4.645899999998505,4.662199999995536,4.680999999999997,4.695499999999996,4.712799999997017,4.7287999999970225,4.747799999997014,4.762199999995531,4.779100000001492,4.795399999998509,4.811999999999998,4.830799999997026,4.846600000001487,4.863799999997013,4.878699999995533,4.895399999998517,4.912100000001487,4.92869999999553,4.945299999997019,4.962000000000003,4.978699999995527,4.997399999998507,5.012399999998507,5.028699999995524,5.045299999997013,5.061999999999998,5.078699999995536,5.0952999999970245,5.112699999995527,5.128699999995533,5.147799999997019,5.162000000000006,5.178899999998507,5.195499999999996,5.218199999995534,5.228699999995527,5.245699999995523,5.262100000001496,5.281100000001487,5.295600000001485,5.314299999997019,5.328799999997017,5.349600000001487,5.364600000001488,5.381,5.395499999999998,5.416100000001492,5.43169999999553,5.447100000001484,5.462299999997015,5.481199999995525,5.495500000000007,5.512399999998507,5.528899999998515,5.549199999995537,5.562100000001493,5.579100000001489,5.595500000000001,5.6167999999970135,5.633699999995528,5.645499999999998,5.662299999997018,5.683600000001491,5.699699999995531,5.712299999997015,5.728899999998504,5.748399999998512,5.762199999995531,5.779299999997022,5.799000000000007,5.812299999997023,5.828799999997017,5.845399999998506,5.861999999999995,5.8811999999955304,5.895299999997022,5.912100000001487,5.92869999999553,5.945399999998514,5.962000000000003,5.981699999995527,5.995600000001488,6.0131999999955354,6.032299999997022,6.045600000001485,6.062100000001493,6.088499999999996,6.107699999995532,6.123000000000005,6.1356999999955235,6.145600000001494,6.162199999995536,6.179000000000002,6.197699999995535,6.2121000000014845,6.228699999995527,6.2453999999985115,6.2620000000000005,6.280699999995534,6.295299999997013,6.312100000001493,6.328699999995536,6.3452999999970245,6.361999999999995,6.378699999995533,6.395399999998517,6.412199999995536,6.429899999998511,6.445399999998514,6.462000000000003,6.478699999995527,6.497799999997014,6.5120000000000005,6.528699999995524,6.545399999998509,6.561999999999998,6.578699999995536,6.5952999999970245,6.61210000000149,6.628799999997014,6.645299999997022,6.662000000000006,6.680699999995525,6.695699999995526,6.713199999995524,6.728899999998504,6.747399999998507,6.7620000000000005,6.778699999995524,6.795299999997013,6.811999999999998,6.828699999995536,6.845399999998506,6.861999999999995,6.878699999995533,6.895299999997022,6.912000000000006,6.92869999999553,6.945399999998514,6.96239999999851,6.978600000001492,6.995299999997016,7.012100000001496,7.028600000001489,7.045600000001485,7.061999999999998,7.078699999995536,7.095399999998506,7.11210000000149,7.128600000001484,7.145399999998517,7.162100000001487,7.17869999999553,7.195299999997019,7.2121000000014845,7.228699999995527,7.2453999999985115,7.2620000000000005,7.278699999995524,7.295299999997013,7.312100000001493,7.328699999995536,7.3452999999970245,7.361999999999995,7.378600000001484,7.395399999998517,7.412000000000006,7.42869999999553,7.447100000001484,7.4621000000014845,7.4809999999999945,7.4976999999955325,7.5138999999985145,7.528699999995524,7.547600000001495,7.561999999999998,7.585299999997019,7.595399999998506,7.61210000000149,7.6322999999970165,7.645399999998517,7.662000000000006,7.680699999995525,7.695299999997019,7.7121000000014845,7.728699999995527,7.7453999999985115,7.7620000000000005,7.778699999995524,7.795399999998509,7.813399999998509,7.828699999995536,7.845899999998508,7.861999999999995,7.878699999995533,7.895299999997022,7.914100000001497]","[1733294329456,1733294329488,1733294329494,1733294329511,1733294329528,1733294329545,1733294329561,1733294329578,1733294329594,1733294329611,1733294329628,1733294329644,1733294329663,1733294329678,1733294329696,1733294329711,1733294329728,1733294329744,1733294329761,1733294329778,1733294329794,1733294329814,1733294329828,1733294329844,1733294329861,1733294329878,1733294329894,1733294329911,1733294329928,1733294329944,1733294329961,1733294329978,1733294329994,1733294330011,1733294330028,1733294330044,1733294330061,1733294330078,1733294330094,1733294330111,1733294330128,1733294330144,1733294330161,1733294330178,1733294330194,1733294330211,1733294330228,1733294330244,1733294330261,1733294330278,1733294330294,1733294330311,1733294330328,1733294330344,1733294330361,1733294330378,1733294330394,1733294330411,1733294330428,1733294330444,1733294330461,1733294330478,1733294330494,1733294330514,1733294330530,1733294330544,1733294330561,1733294330578,1733294330594,1733294330611,1733294330628,1733294330644,1733294330661,1733294330678,1733294330694,1733294330711,1733294330728,1733294330744,1733294330761,1733294330778,1733294330794,1733294330811,1733294330828,1733294330844,1733294330866,1733294330882,1733294330897,1733294330911,1733294330928,1733294330944,1733294330964,1733294330978,1733294330994,1733294331014,1733294331030,1733294331044,1733294331067,1733294331078,1733294331095,1733294331111,1733294331128,1733294331147,1733294331161,1733294331178,1733294331199,1733294331211,1733294331228,1733294331244,1733294331262,1733294331278,1733294331297,1733294331311,1733294331328,1733294331348,1733294331364,1733294331379,1733294331394,1733294331414,1733294331430,1733294331446,1733294331465,1733294331480,1733294331494,1733294331511,1733294331528,1733294331544,1733294331561,1733294331578,1733294331595,1733294331611,1733294331632,1733294331646,1733294331661,1733294331681,1733294331698,1733294331712,1733294331728,1733294331744,1733294331761,1733294331778,1733294331798,1733294331811,1733294331828,1733294331845,1733294331861,1733294331878,1733294331894,1733294331911,1733294331928,1733294331944,1733294331964,1733294331978,1733294331994,1733294332011,1733294332028,1733294332044,1733294332061,1733294332078,1733294332094,1733294332111,1733294332128,1733294332144,1733294332161,1733294332178,1733294332194,1733294332211,1733294332231,1733294332244,1733294332261,1733294332278,1733294332294,1733294332311,1733294332328,1733294332344,1733294332361,1733294332378,1733294332394,1733294332411,1733294332428,1733294332444,1733294332461,1733294332478,1733294332494,1733294332511,1733294332530,1733294332544,1733294332561,1733294332578,1733294332594,1733294332611,1733294332628,1733294332644,1733294332661,1733294332678,1733294332694,1733294332711,1733294332728,1733294332744,1733294332761,1733294332778,1733294332794,1733294332811,1733294332828,1733294332844,1733294332861,1733294332878,1733294332894,1733294332911,1733294332928,1733294332944,1733294332961,1733294332978,1733294332995,1733294333011,1733294333028,1733294333044,1733294333061,1733294333078,1733294333098,1733294333111,1733294333128,1733294333144,1733294333161,1733294333178,1733294333194,1733294333211,1733294333228,1733294333244,1733294333264,1733294333278,1733294333294,1733294333311,1733294333328,1733294333348,1733294333361,1733294333378,1733294333397,1733294333413,1733294333428,1733294333446,1733294333462,1733294333478,1733294333498,1733294333513,1733294333528,1733294333544,1733294333565,1733294333579,1733294333595,1733294333611,1733294333628,1733294333647,1733294333663,1733294333678,1733294333694,1733294333714,1733294333729,1733294333747,1733294333761,1733294333780,1733294333797,1733294333813,1733294333832,1733294333846,1733294333863,1733294333878,1733294333897,1733294333911,1733294333928,1733294333948,1733294333963,1733294333978,1733294333998,1733294334014,1733294334029,1733294334045,1733294334065,1733294334080,1733294334095,1733294334111,1733294334130,1733294334144,1733294334162,1733294334178,1733294334197,1733294334211,1733294334228,1733294334244,1733294334261,1733294334280,1733294334295,1733294334313,1733294334328,1733294334344,1733294334361,1733294334378,1733294334394,1733294334411,1733294334428,1733294334446,1733294334461,1733294334478,1733294334494,1733294334511,1733294334528,1733294334544,1733294334562,1733294334578,1733294334597,1733294334611,1733294334628,1733294334644,1733294334667,1733294334678,1733294334695,1733294334711,1733294334730,1733294334745,1733294334763,1733294334778,1733294334799,1733294334813,1733294334830,1733294334844,1733294334865,1733294334881,1733294334896,1733294334911,1733294334930,1733294334944,1733294334961,1733294334978,1733294334998,1733294335011,1733294335028,1733294335044,1733294335066,1733294335083,1733294335094,1733294335111,1733294335133,1733294335149,1733294335161,1733294335178,1733294335197,1733294335211,1733294335228,1733294335248,1733294335261,1733294335278,1733294335294,1733294335311,1733294335330,1733294335344,1733294335361,1733294335378,1733294335394,1733294335411,1733294335431,1733294335445,1733294335462,1733294335481,1733294335495,1733294335511,1733294335537,1733294335557,1733294335572,1733294335585,1733294335594,1733294335611,1733294335628,1733294335647,1733294335661,1733294335678,1733294335694,1733294335711,1733294335730,1733294335744,1733294335761,1733294335778,1733294335794,1733294335811,1733294335828,1733294335844,1733294335861,1733294335879,1733294335894,1733294335911,1733294335928,1733294335947,1733294335961,1733294335978,1733294335994,1733294336011,1733294336028,1733294336044,1733294336061,1733294336078,1733294336094,1733294336111,1733294336130,1733294336145,1733294336162,1733294336178,1733294336196,1733294336211,1733294336228,1733294336244,1733294336261,1733294336278,1733294336294,1733294336311,1733294336328,1733294336344,1733294336361,1733294336378,1733294336394,1733294336411,1733294336428,1733294336444,1733294336461,1733294336478,1733294336494,1733294336511,1733294336528,1733294336544,1733294336561,1733294336578,1733294336594,1733294336611,1733294336628,1733294336644,1733294336661,1733294336678,1733294336694,1733294336711,1733294336728,1733294336744,1733294336761,1733294336778,1733294336794,1733294336811,1733294336828,1733294336844,1733294336861,1733294336878,1733294336896,1733294336911,1733294336930,1733294336947,1733294336963,1733294336978,1733294336996,1733294337011,1733294337034,1733294337044,1733294337061,1733294337081,1733294337094,1733294337111,1733294337130,1733294337144,1733294337161,1733294337178,1733294337194,1733294337211,1733294337228,1733294337244,1733294337262,1733294337278,1733294337295,1733294337311,1733294337328,1733294337344,1733294337363]","[[1009.2,438.2],[1009.2,438.2],[1009.2,438.2],[1020.8,436.9],[1050.6,440.3],[1083.7,451.6],[1109.3,457.6],[1131.9,462.4],[1166.1,485.9],[1192.6,503.7],[1209.8,531.5],[1207.5,547],[1208.3,548.6],[1215.2,564.6],[1200.2,573.4],[1185.2,582.2],[1173,591.5],[1160.8,600.8],[1140.7,597.5],[1115.1,613.5],[1109.5,609],[1103.9,604.5],[1099.6,598.7],[1095.3,592.9],[1095,587.7],[1086.8,579],[1083.3,575.1],[1081.1,582.7],[1075.2,584.2],[1074.8,566.4],[1055.7,552.2],[1036.6,538],[1024.3,553.9],[1012,569.8],[972.9,590.1],[941.7,613.9],[897.2,631.4],[851.4,637.4],[801.9,650.3],[752.4,663.2],[718.9,675.4],[685.4,687.6],[656.4,677.8],[627.4,668],[625.2,661.4],[623,654.8],[634.3,658.5],[645.6,662.2],[648,656.6],[667.4,643.6],[667.4,622.6],[673.4,610.8],[675.2,615.5],[677,620.2],[704,600.5],[731,580.8],[774.7,558.2],[818.4,535.6],[852.9,517.3],[870.4,506.4],[906.5,500.6],[936.6,485.6],[965.5,482.7],[994.4,479.8],[1009.2,507.5],[1016.5,523.4],[1023.8,549.9],[1034.9,564.1],[1067.4,579.1],[1099.9,594.1],[1135.4,625],[1135.4,625],[1170.9,655.9],[1197.3,648.4],[1223.7,640.9],[1237.8,638.5],[1235,636.4],[1239.7,634.1],[1205.5,633.3],[1171.7,629.8],[1167,639.6],[1122.8,641.9],[1098.6,630.7],[1061.9,633.3],[1047.1,642.9],[1033.2,635.5],[1031.6,630.8],[1005.6,614.6],[1025.5,616.7],[1045.4,618.8],[1035.6,607.1],[1053.3,587.7],[1049.1,582.6],[1065.4,578.8],[1038.8,586.3],[1038.8,586.3],[1033.1,601.9],[1033.1,601.9],[1036.9,623.3],[1036.9,623.3],[1050.6,626.4],[1041.6,630.6],[1041.6,630.6],[1014.8,643.2],[1015,646.6],[1015,646.6],[1002.3,664],[1034,665.2],[1092.6,673.1],[1172.2,662.7],[1207.4,625.9],[1200.8,630.8],[1217.4,658.8],[1245.9,678.2],[1284.1,689.7],[1295.9,710.9],[1324.1,721.2],[1300.6,721.2],[1246.5,751.6],[1155.8,786.5],[1088.6,839.7],[1105.7,826.4],[1089.7,808.3],[1083.8,782.2],[1086,755.6],[1088.2,729],[1082.9,724.2],[1086.8,745.1],[1056.7,732.8],[1060.8,726.2],[1063.2,709],[1039.9,721.8],[1013.2,732.7],[981.3,740.6],[915.4,761.4],[854.9,781.2],[803.7,785.6],[760,779.4],[750.6,778.6],[766.2,758.4],[743.7,770.8],[743.7,770.8],[675.5,798.5],[675.5,798.5],[617,829.5],[566.3,871.1],[548.4,913.1],[525.7,942.5],[489.5,991.4],[445.8,1050.9],[384.9,1077],[301.4,1112.3],[245.4,1158.2],[220.9,1186.6],[194.7,1197.2],[162.3,1201.9],[162.3,1201.9],[140.8,1182.3],[111.2,1177.6],[91.6,1153.7],[166.9,1125.3],[262.2,1119.4],[402.9,1077.3],[555.9,1002.6],[694.4,904.8],[826.6,839.6],[964.2,767.8],[1046.9,744.8],[1172,692.8],[1297.1,640.8],[1260,627.6],[1212.4,630],[1140,662.6],[1067.6,695.2],[1007,733.7],[956,776.8],[906.6,802.4],[902.4,790.2],[878.2,787.5],[854,784.8],[909.3,736.1],[975.7,673.4],[1008.6,617.4],[1051.6,571.8],[1098.1,543],[1136.7,493.4],[1150.8,462.4],[1164.9,431.4],[1166.1,427.4],[1176.5,421.7],[1164.3,416.5],[1152.1,411.3],[1157.7,407.1],[1174.8,410.7],[1210.4,423.4],[1205.5,437.6],[1217.8,471.4],[1230.2,495.7],[1216.6,547.7],[1190.9,606.5],[1180.2,670],[1169.5,733.5],[1162.4,799],[1139.1,838.4],[1093.5,850.4],[1093.5,850.4],[1088.4,860.9],[1071,870.1],[1049.3,871.4],[1049.2,855.6],[1061.1,828.5],[1068.4,807.9],[1031.5,769.8],[971.5,744.4],[971.5,744.4],[894.5,737.5],[894.5,737.5],[829.3,742.8],[763.2,736.1],[763.2,736.1],[702.2,733.4],[702.2,733.4],[642.6,749.9],[642.6,749.9],[580.7,755.6],[580.7,755.6],[526.5,754.1],[461.6,761.8],[446.6,773.3],[446.2,768.4],[454.4,765.3],[453.8,768.7],[448.5,785.8],[456,783.6],[456,783.6],[491.4,794],[510.5,785],[550.9,767.6],[602,741],[647.4,728.1],[700.2,728],[748,724.6],[795.8,721.2],[837.8,695.4],[868,678.4],[873.1,647],[899.8,635],[910.8,612.2],[909.2,579.9],[904.5,558.1],[933.2,517.8],[969.9,468.4],[957.4,429.3],[956.3,410.9],[934.8,448.3],[913.3,485.7],[922.1,450.6],[908.5,448.1],[908.5,448.1],[909.6,440.9],[912.1,457.1],[873.8,479],[829.6,502.7],[870.1,499.2],[910.6,495.7],[1014.4,426.4],[1118.2,357.1],[1107.9,365.7],[1105.8,366.9],[1101.6,382.3],[1129.7,379.6],[1157.8,376.9],[1208.3,349.6],[1190.5,359.6],[1218,352],[1202.6,354.4],[1175.7,369.6],[1205.5,390.4],[1243.8,421.1],[1299.9,458.9],[1320.1,455.4],[1329.1,463.6],[1301.8,493.8],[1307.3,503.6],[1290.1,532.7],[1266.3,583.8],[1226.1,625.2],[1251.4,628.7],[1242.4,611.1],[1231.2,608.4],[1203,638.5],[1194.4,634],[1223.3,625.6],[1252.2,617.2],[1220,631],[1214.9,619.9],[1232.7,595.1],[1211.5,588.6],[1199.6,610.8],[1163,623.9],[1176.8,634.4],[1182.2,667.8],[1186.9,685.1],[1191.6,702.4],[1229.8,701.8],[1247.5,704.1],[1283.3,722.7],[1319.1,741.3],[1360.2,744.6],[1388.5,744],[1385.1,722.1],[1381.7,700.2],[1371.9,698.3],[1371.9,698.3],[1334.3,704.5],[1313.8,718.6],[1293.3,730.9],[1261.4,736.8],[1209.5,718.5],[1160.6,705.4],[1148.7,666.4],[1152.8,682.1],[1159.9,709.9],[1156.4,738.5],[1158.2,718.4],[1177.2,708.5],[1178.7,700.8],[1163,671.3],[1172.1,709.8],[1200.5,729.9],[1200.5,729.9],[1204.9,770.9],[1205.7,770.1],[1205.7,770.1],[1188.5,742],[1188.5,742],[1171.3,713.9],[1194.8,729.3],[1194.8,729.3],[1189,720.6],[1194,708.6],[1221.6,717.8],[1221.6,717.8],[1261,672.3],[1261,672.3],[1246.5,668.1],[1264,639.3],[1272.7,614.2],[1272.7,614.2],[1308.8,589.2],[1333.6,573.9],[1340.2,555.7],[1358.5,536.6],[1373.9,500.1],[1381.2,468.9],[1365.3,463.8],[1383.3,431.2],[1378.1,415.1],[1379.7,383],[1376,384.1],[1369.8,359.1],[1373.4,354.2],[1373.4,354.2],[1363.6,335.1],[1378.4,355.6],[1378.4,355.6],[1379.2,353.4],[1379.2,353.4],[1322.7,361.3],[1266.9,373.8],[1195.7,411.5],[1117.7,465.2],[1080.2,447.1],[1056.5,445.4],[1023.8,418.7],[1010.4,411.4],[916.4,406.2],[933.9,383.9],[960.4,375.9],[986.9,367.9],[1049.6,331.3],[1093.8,303.2],[1121.7,315.4],[1149.6,327.6],[1157.8,334],[1158.4,318.9],[1224.6,282.4],[1185.2,303],[1200.7,284],[1216.2,265],[1232,252.6],[1266.3,231.7],[1281,225.8],[1295.7,219.9],[1311.6,219],[1317.5,235.3],[1330.6,272.7],[1352.8,288.8],[1372.5,290],[1389.4,282.1],[1311.8,304],[1324.6,298.1],[1335.8,307.9],[1347,317.7],[1365.3,331.8],[1370.8,340.9],[1339.4,318.3],[1343.7,286.7],[1299.6,303.9],[1310.9,315.8],[1395.7,298.8],[1347.9,338.5],[1290,360.9],[1232.8,382.4],[1174.5,404.3],[1129,431.2],[1137,457.3],[1109.3,492.4],[1168.4,479.9],[1176.4,479.1],[1165.7,485.2],[1197.2,462.4],[1197.2,462.4],[1218.4,441.6],[1262.4,413.9],[1318,387.4],[1373.7,361.5],[1405.6,347],[1446.8,342],[1452.1,350.7],[1492.5,352.2],[1551.6,346.8],[1600.5,341.3],[1659.7,333.8],[1680.2,330.6],[1678.7,322.6],[1677.1,314],[1666,309.2],[1664.8,306.9],[1663.6,304.6],[1630.7,304.7],[1597.8,304.8],[1545.2,310.4],[1492.6,316],[1470.5,318.2],[1470.5,325],[1485,330.1],[1485.7,334.4],[1461.8,328.7],[1437.9,323],[1417.5,320.5],[1395.3,329.8],[1426.7,329.6],[1452.1,322],[1454.4,330.3],[1454.4,330.3],[1452.3,324.5],[1433.4,321.8],[1433.4,321.8],[1437.8,316.1],[1454.3,324.1],[1454.3,324.1],[1471,332.1],[1471,332.1],[1485.9,345.4],[1485.9,345.4],[1496.3,350.8],[1475.2,357.3],[1479.8,359.1],[1492.2,351.9],[1487.3,371.5],[1484.7,389.7],[1475.6,401.8],[1459.8,398.2],[1446.8,399.4]]","[0,0.37864299999999995]","[0.37864299999999995,0.37864299999999995]","[-0.37864299999999995,0]","[-0.37864299999999995,-0.37864299999999995]","[0,0]","[0.37864299999999995,0]","[0,-0.37864299999999995]","[0.37864299999999995,-0.37864299999999995]",0,0,0,0,1,2,Laptop,7,1,11,9
