inst1_resp.keys,inst1_resp.rt,calibrationMouse.x,calibrationMouse.y,calibrationMouse.leftButton,calibrationMouse.midButton,calibrationMouse.rightButton,calibrationClick.x,calibrationClick.y,calibrationClick.leftButton,calibrationClick.midButton,calibrationClick.rightButton,trialsc.thisRepN,trialsc.thisTrialN,trialsc.thisN,trialsc.thisIndex,trialsc.ran,calibration_x,calibration_y,participant,session,date,expName,psychopyVersion,OS,frameRate,calibrationClick.clicked_name,ScreenRes_pixels,Camera_pixels,mouse_2.x,mouse_2.y,mouse_2.leftButton,mouse_2.midButton,mouse_2.rightButton,mouse_2.time,mouse_2.clicked_name,mouse.x,mouse.y,mouse.leftButton,mouse.midButton,mouse.rightButton,mouse.time,mouse.clicked_name,Choice,Trial,TrialDuration,MOUSE_GAZE,ET_GAZE,ET_GAZE_x_T,time,unixTime,ET_GAZE_NF,Loc_Option1_label,Loc_Option2_label,Loc_Cost_label,Loc_Qual_label,Loc_Option1_cost,Loc_Option2_cost,Loc_Option1_quality,Loc_Option2_quality,trials.thisRepN,trials.thisTrialN,trials.thisN,trials.thisIndex,trials.ran,Block,Device,cost1,qual1,cost2,qual2
space,4.3615,0.34375,0.001851852,1,0,0,0.340625,-0.007407407,0,0,0,0,0,0,15,1,0.33,-0.33,20,001,2024-12-04_14h16.18.211,Attention_exp_legacy,2023.1.0,Win32,59.88023952,,,,,,,,,,,,,,,,,,,,,,,,,,,,,,,,,,,,,,,,,,,,,
,,,,,,,-0.005208333,0.668518519,1,0,0,0,1,1,13,1,0,0.67,20,001,2024-12-04_14h16.18.211,Attention_exp_legacy,2023.1.0,Win32,59.88023952,calibration_square,,,,,,,,,,,,,,,,,,,,,,,,,,,,,,,,,,,,,,,,,,,,
,,,,,,,0.001041667,0.333333333,1,0,0,0,2,2,12,1,0,0.33,20,001,2024-12-04_14h16.18.211,Attention_exp_legacy,2023.1.0,Win32,59.88023952,calibration_square,,,,,,,,,,,,,,,,,,,,,,,,,,,,,,,,,,,,,,,,,,,,
,,,,,,,-0.342708333,0.011111111,1,0,0,0,3,3,6,1,-0.33,0,20,001,2024-12-04_14h16.18.211,Attention_exp_legacy,2023.1.0,Win32,59.88023952,,,,,,,,,,,,,,,,,,,,,,,,,,,,,,,,,,,,,,,,,,,,,
,,,,,,,0.00625,-0.337037037,1,0,0,0,4,4,10,1,0,-0.33,20,001,2024-12-04_14h16.18.211,Attention_exp_legacy,2023.1.0,Win32,59.88023952,calibration_square,,,,,,,,,,,,,,,,,,,,,,,,,,,,,,,,,,,,,,,,,,,,
,,,,,,,-0.003125,-0.003703704,1,0,0,0,5,5,11,1,0,0,20,001,2024-12-04_14h16.18.211,Attention_exp_legacy,2023.1.0,Win32,59.88023952,calibration_square,,,,,,,,,,,,,,,,,,,,,,,,,,,,,,,,,,,,,,,,,,,,
,,,,,,,0.675,0.659259259,1,0,0,0,6,6,19,1,0.67,0.67,20,001,2024-12-04_14h16.18.211,Attention_exp_legacy,2023.1.0,Win32,59.88023952,,,,,,,,,,,,,,,,,,,,,,,,,,,,,,,,,,,,,,,,,,,,,
,,,,,,,-0.326041667,-0.655555556,1,0,0,0,7,7,4,1,-0.33,-0.67,20,001,2024-12-04_14h16.18.211,Attention_exp_legacy,2023.1.0,Win32,59.88023952,,,,,,,,,,,,,,,,,,,,,,,,,,,,,,,,,,,,,,,,,,,,,
,,,,,,,0.322916667,0.683333333,1,0,0,0,8,8,18,1,0.33,0.67,20,001,2024-12-04_14h16.18.211,Attention_exp_legacy,2023.1.0,Win32,59.88023952,,,,,,,,,,,,,,,,,,,,,,,,,,,,,,,,,,,,,,,,,,,,,
,,,,,,,0.319791667,-0.655555556,1,0,0,0,9,9,14,1,0.33,-0.67,20,001,2024-12-04_14h16.18.211,Attention_exp_legacy,2023.1.0,Win32,59.88023952,,,,,,,,,,,,,,,,,,,,,,,,,,,,,,,,,,,,,,,,,,,,,
,,,,,,,0.676041667,-0.664814815,1,0,0,0,10,10,20,1,0.67,-0.67,20,001,2024-12-04_14h16.18.211,Attention_exp_legacy,2023.1.0,Win32,59.88023952,calibration_square,,,,,,,,,,,,,,,,,,,,,,,,,,,,,,,,,,,,,,,,,,,,
,,,,,,,0.326041667,0.005555556,1,0,0,0,11,11,16,1,0.33,0,20,001,2024-12-04_14h16.18.211,Attention_exp_legacy,2023.1.0,Win32,59.88023952,calibration_square,,,,,,,,,,,,,,,,,,,,,,,,,,,,,,,,,,,,,,,,,,,,
,,,,,,,-0.673958333,-0.331481481,1,0,0,0,12,12,1,1,-0.67,-0.33,20,001,2024-12-04_14h16.18.211,Attention_exp_legacy,2023.1.0,Win32,59.88023952,calibration_square,,,,,,,,,,,,,,,,,,,,,,,,,,,,,,,,,,,,,,,,,,,,
,,,,,,,-0.672916667,-0.672222222,1,0,0,0,13,13,0,1,-0.67,-0.67,20,001,2024-12-04_14h16.18.211,Attention_exp_legacy,2023.1.0,Win32,59.88023952,calibration_square,,,,,,,,,,,,,,,,,,,,,,,,,,,,,,,,,,,,,,,,,,,,
,,,,,,,-0.341666667,0.675925926,1,0,0,0,14,14,8,1,-0.33,0.67,20,001,2024-12-04_14h16.18.211,Attention_exp_legacy,2023.1.0,Win32,59.88023952,,,,,,,,,,,,,,,,,,,,,,,,,,,,,,,,,,,,,,,,,,,,,
,,,,,,,-0.664583333,0.342592593,1,0,0,0,15,15,3,1,-0.67,0.33,20,001,2024-12-04_14h16.18.211,Attention_exp_legacy,2023.1.0,Win32,59.88023952,,,,,,,,,,,,,,,,,,,,,,,,,,,,,,,,,,,,,,,,,,,,,
,,,,,,,-0.336458333,-0.325925926,1,0,0,0,16,16,5,1,-0.33,-0.33,20,001,2024-12-04_14h16.18.211,Attention_exp_legacy,2023.1.0,Win32,59.88023952,calibration_square,,,,,,,,,,,,,,,,,,,,,,,,,,,,,,,,,,,,,,,,,,,,
,,,,,,,-0.341666667,0.318518519,1,0,0,0,17,17,7,1,-0.33,0.33,20,001,2024-12-04_14h16.18.211,Attention_exp_legacy,2023.1.0,Win32,59.88023952,,,,,,,,,,,,,,,,,,,,,,,,,,,,,,,,,,,,,,,,,,,,,
,,,,,,,-0.670833333,0.016666667,1,0,0,0,18,18,2,1,-0.67,0,20,001,2024-12-04_14h16.18.211,Attention_exp_legacy,2023.1.0,Win32,59.88023952,,,,,,,,,,,,,,,,,,,,,,,,,,,,,,,,,,,,,,,,,,,,,
,,,,,,,0.332291667,0.331481481,1,0,0,0,19,19,17,1,0.33,0.33,20,001,2024-12-04_14h16.18.211,Attention_exp_legacy,2023.1.0,Win32,59.88023952,calibration_square,,,,,,,,,,,,,,,,,,,,,,,,,,,,,,,,,,,,,,,,,,,,
,,,,,,,-0.002083333,-0.653703704,1,0,0,0,20,20,9,1,0,-0.67,20,001,2024-12-04_14h16.18.211,Attention_exp_legacy,2023.1.0,Win32,59.88023952,,,,,,,,,,,,,,,,,,,,,,,,,,,,,,,,,,,,,,,,,,,,,
,,,,,,,,,,,,,,,,,,,20,001,2024-12-04_14h16.18.211,Attention_exp_legacy,2023.1.0,Win32,59.88023952,,"[1920,1080]","[640,480]",[0.058333333333333334],[-0.5185185185185185],[1],[0],[0],[1.5811000000014985],"[""StartButton""]","[0.171875,0.16979166666666667]","[-0.027777777777777776,0.16111111111111112]","[1,1]","[0,0]","[0,0]","[5.32539999999851,6.541799999997025]","[""Option2_label""]",Option2_label,1,7.5676,"[[0.19791666666666666,-0.12777777777777777],[0.19791666666666666,-0.12777777777777777],[0.19791666666666666,-0.12777777777777777],[0.19791666666666666,-0.12777777777777777],[0.19791666666666666,-0.12777777777777777],[0.2,-0.12777777777777777],[0.2,-0.12777777777777777],[0.2,-0.12777777777777777],[0.20208333333333334,-0.1259259259259259],[0.203125,-0.12407407407407407],[0.203125,-0.12407407407407407],[0.20520833333333333,-0.12407407407407407],[0.20520833333333333,-0.12407407407407407],[0.20625,-0.12222222222222222],[0.20625,-0.12222222222222222],[0.20625,-0.12222222222222222],[0.20625,-0.12222222222222222],[0.20625,-0.12222222222222222],[0.20625,-0.12222222222222222],[0.20625,-0.12222222222222222],[0.20625,-0.12222222222222222],[0.20625,-0.12222222222222222],[0.20625,-0.12222222222222222],[0.20625,-0.12222222222222222],[0.20625,-0.12222222222222222],[0.20625,-0.12222222222222222],[0.20625,-0.12222222222222222],[0.20625,-0.12222222222222222],[0.20625,-0.12037037037037036],[0.20625,-0.12037037037037036],[0.20520833333333333,-0.12037037037037036],[0.20416666666666666,-0.12222222222222222],[0.203125,-0.12222222222222222],[0.203125,-0.12222222222222222],[0.203125,-0.12222222222222222],[0.203125,-0.12222222222222222],[0.203125,-0.12222222222222222],[0.203125,-0.12222222222222222],[0.203125,-0.12222222222222222],[0.203125,-0.12222222222222222],[0.203125,-0.12222222222222222],[0.203125,-0.12222222222222222],[0.203125,-0.12222222222222222],[0.203125,-0.12222222222222222],[0.203125,-0.12222222222222222],[0.203125,-0.12222222222222222],[0.203125,-0.12222222222222222],[0.203125,-0.12222222222222222],[0.203125,-0.12222222222222222],[0.20208333333333334,-0.12222222222222222],[0.20208333333333334,-0.12222222222222222],[0.20208333333333334,-0.12037037037037036],[0.20104166666666667,-0.11851851851851852],[0.19895833333333332,-0.11481481481481481],[0.19895833333333332,-0.11296296296296296],[0.19479166666666667,-0.10925925925925926],[0.19166666666666668,-0.10740740740740741],[0.18229166666666666,-0.0962962962962963],[0.17083333333333334,-0.08888888888888889],[0.14791666666666667,-0.06666666666666667],[0.13958333333333334,-0.05925925925925926],[0.115625,-0.03333333333333333],[0.109375,-0.024074074074074074],[0.07916666666666666,0.003703703703703704],[0.07083333333333333,0.009259259259259259],[0.04895833333333333,0.018518518518518517],[0.042708333333333334,0.020370370370370372],[0.035416666666666666,0.022222222222222223],[0.034375,0.022222222222222223],[0.034375,0.022222222222222223],[0.034375,0.022222222222222223],[0.034375,0.022222222222222223],[0.034375,0.022222222222222223],[0.034375,0.022222222222222223],[0.034375,0.022222222222222223],[0.042708333333333334,0.027777777777777776],[0.058333333333333334,0.03148148148148148],[0.07291666666666667,0.037037037037037035],[0.0875,0.040740740740740744],[0.10208333333333333,0.044444444444444446],[0.11458333333333333,0.044444444444444446],[0.12604166666666666,0.044444444444444446],[0.13333333333333333,0.044444444444444446],[0.13854166666666667,0.04259259259259259],[0.140625,0.04259259259259259],[0.14270833333333333,0.03888888888888889],[0.14375,0.03888888888888889],[0.14479166666666668,0.037037037037037035],[0.14479166666666668,0.037037037037037035],[0.14479166666666668,0.037037037037037035],[0.14583333333333334,0.03518518518518519],[0.14583333333333334,0.03333333333333333],[0.14583333333333334,0.03148148148148148],[0.14583333333333334,0.027777777777777776],[0.146875,0.022222222222222223],[0.146875,0.020370370370370372],[0.146875,0.018518518518518517],[0.146875,0.018518518518518517],[0.146875,0.018518518518518517],[0.146875,0.018518518518518517],[0.146875,0.018518518518518517],[0.146875,0.018518518518518517],[0.146875,0.018518518518518517],[0.146875,0.018518518518518517],[0.146875,0.018518518518518517],[0.146875,0.018518518518518517],[0.146875,0.018518518518518517],[0.146875,0.018518518518518517],[0.146875,0.016666666666666666],[0.14583333333333334,0.012962962962962963],[0.14270833333333333,0.007407407407407408],[0.1375,0],[0.12708333333333333,-0.014814814814814815],[0.11458333333333333,-0.027777777777777776],[0.103125,-0.037037037037037035],[0.096875,-0.044444444444444446],[0.090625,-0.05],[0.08541666666666667,-0.053703703703703705],[0.07916666666666666,-0.05740740740740741],[0.07291666666666667,-0.06296296296296296],[0.059375,-0.07222222222222222],[0.046875,-0.07962962962962963],[0.03333333333333333,-0.08333333333333333],[0.017708333333333333,-0.08703703703703704],[0,-0.09259259259259259],[-0.01875,-0.1037037037037037],[-0.03333333333333333,-0.11296296296296296],[-0.040625,-0.11666666666666667],[-0.040625,-0.11851851851851852],[-0.040625,-0.11851851851851852],[-0.040625,-0.11851851851851852],[-0.040625,-0.11851851851851852],[-0.040625,-0.11851851851851852],[-0.040625,-0.11851851851851852],[-0.040625,-0.11851851851851852],[-0.040625,-0.11851851851851852],[-0.040625,-0.11851851851851852],[-0.040625,-0.11851851851851852],[-0.040625,-0.11851851851851852],[-0.040625,-0.11851851851851852],[-0.040625,-0.11851851851851852],[-0.040625,-0.11851851851851852],[-0.040625,-0.11851851851851852],[-0.040625,-0.11851851851851852],[-0.040625,-0.11851851851851852],[-0.040625,-0.11851851851851852],[-0.040625,-0.11851851851851852],[-0.040625,-0.11851851851851852],[-0.040625,-0.11851851851851852],[-0.040625,-0.11851851851851852],[-0.040625,-0.11851851851851852],[-0.040625,-0.11851851851851852],[-0.040625,-0.11851851851851852],[-0.040625,-0.11851851851851852],[-0.040625,-0.11851851851851852],[-0.040625,-0.11851851851851852],[-0.040625,-0.11851851851851852],[-0.040625,-0.11851851851851852],[-0.040625,-0.11851851851851852],[-0.0375,-0.11851851851851852],[-0.035416666666666666,-0.11851851851851852],[-0.03333333333333333,-0.11851851851851852],[-0.03229166666666667,-0.11666666666666667],[-0.03125,-0.11666666666666667],[-0.030208333333333334,-0.11666666666666667],[-0.030208333333333334,-0.11666666666666667],[-0.029166666666666667,-0.11481481481481481],[-0.029166666666666667,-0.11481481481481481],[-0.029166666666666667,-0.11481481481481481],[-0.029166666666666667,-0.11481481481481481],[-0.028125,-0.11481481481481481],[-0.027083333333333334,-0.11481481481481481],[-0.026041666666666668,-0.11481481481481481],[-0.025,-0.11481481481481481],[-0.023958333333333335,-0.11481481481481481],[-0.022916666666666665,-0.11481481481481481],[-0.020833333333333332,-0.11481481481481481],[-0.01875,-0.11481481481481481],[-0.016666666666666666,-0.1111111111111111],[-0.011458333333333333,-0.1111111111111111],[-0.010416666666666666,-0.1111111111111111],[-0.004166666666666667,-0.1111111111111111],[-0.0010416666666666667,-0.1111111111111111],[0.0010416666666666667,-0.1111111111111111],[0.0020833333333333333,-0.1111111111111111],[0.003125,-0.1111111111111111],[0.004166666666666667,-0.1111111111111111],[0.004166666666666667,-0.1111111111111111],[0.004166666666666667,-0.1111111111111111],[0.004166666666666667,-0.1111111111111111],[0.004166666666666667,-0.1111111111111111],[0.004166666666666667,-0.1111111111111111],[0.004166666666666667,-0.1111111111111111],[0.004166666666666667,-0.1111111111111111],[0.004166666666666667,-0.1111111111111111],[0.005208333333333333,-0.1111111111111111],[0.00625,-0.1111111111111111],[0.008333333333333333,-0.1111111111111111],[0.010416666666666666,-0.1111111111111111],[0.0125,-0.1111111111111111],[0.016666666666666666,-0.1111111111111111],[0.019791666666666666,-0.1111111111111111],[0.022916666666666665,-0.1111111111111111],[0.022916666666666665,-0.1111111111111111],[0.022916666666666665,-0.1111111111111111],[0.022916666666666665,-0.1111111111111111],[0.022916666666666665,-0.1111111111111111],[0.022916666666666665,-0.1111111111111111],[0.020833333333333332,-0.1111111111111111],[0.013541666666666667,-0.1111111111111111],[0.0010416666666666667,-0.11296296296296296],[-0.015625,-0.11296296296296296],[-0.03854166666666667,-0.11296296296296296],[-0.0625,-0.11296296296296296],[-0.09583333333333334,-0.11296296296296296],[-0.13333333333333333,-0.10185185185185185],[-0.15104166666666666,-0.09074074074074075],[-0.165625,-0.08148148148148149],[-0.171875,-0.07962962962962963],[-0.175,-0.07962962962962963],[-0.17604166666666668,-0.07777777777777778],[-0.17604166666666668,-0.07777777777777778],[-0.17604166666666668,-0.07777777777777778],[-0.17604166666666668,-0.07777777777777778],[-0.17604166666666668,-0.07407407407407407],[-0.17604166666666668,-0.06481481481481481],[-0.16145833333333334,-0.046296296296296294],[-0.140625,-0.03148148148148148],[-0.10416666666666667,-0.012962962962962963],[-0.08645833333333333,-0.005555555555555556],[-0.07395833333333333,-0.003703703703703704],[-0.06979166666666667,-0.003703703703703704],[-0.06770833333333333,-0.003703703703703704],[-0.06666666666666667,-0.003703703703703704],[-0.06666666666666667,-0.003703703703703704],[-0.06666666666666667,-0.003703703703703704],[-0.06458333333333334,-0.003703703703703704],[-0.06354166666666666,-0.001851851851851852],[-0.06041666666666667,-0.001851851851851852],[-0.058333333333333334,-0.001851851851851852],[-0.05416666666666667,0],[-0.053125,0],[-0.053125,0],[-0.053125,0],[-0.05,0],[-0.040625,0],[-0.020833333333333332,0],[0.003125,0],[0.03125,0],[0.058333333333333334,0],[0.084375,0],[0.10520833333333333,0],[0.12083333333333333,0],[0.128125,0],[0.12916666666666668,0],[0.12916666666666668,0],[0.12916666666666668,0],[0.12916666666666668,0],[0.12916666666666668,0],[0.12916666666666668,0],[0.12916666666666668,0],[0.12916666666666668,0],[0.12916666666666668,0],[0.12916666666666668,0],[0.12916666666666668,0],[0.12916666666666668,0],[0.12916666666666668,0],[0.12916666666666668,0],[0.12916666666666668,0],[0.12916666666666668,0],[0.12916666666666668,0],[0.12916666666666668,0],[0.12916666666666668,0],[0.12916666666666668,0],[0.12916666666666668,0],[0.12916666666666668,0],[0.12916666666666668,0],[0.12916666666666668,0],[0.12916666666666668,0],[0.12916666666666668,0],[0.12916666666666668,0],[0.12916666666666668,0],[0.12916666666666668,0],[0.12916666666666668,0],[0.12916666666666668,0],[0.12916666666666668,0],[0.12916666666666668,0],[0.12708333333333333,-0.005555555555555556],[0.12395833333333334,-0.009259259259259259],[0.12083333333333333,-0.014814814814814815],[0.11770833333333333,-0.018518518518518517],[0.11458333333333333,-0.020370370370370372],[0.11145833333333334,-0.024074074074074074],[0.10625,-0.025925925925925925],[0.10416666666666667,-0.027777777777777776],[0.10416666666666667,-0.027777777777777776],[0.103125,-0.027777777777777776],[0.103125,-0.02962962962962963],[0.09895833333333333,-0.03333333333333333],[0.09583333333333334,-0.037037037037037035],[0.09166666666666666,-0.03888888888888889],[0.08854166666666667,-0.04259259259259259],[0.08645833333333333,-0.04259259259259259],[0.08541666666666667,-0.04259259259259259],[0.084375,-0.044444444444444446],[0.084375,-0.044444444444444446],[0.084375,-0.044444444444444446],[0.084375,-0.044444444444444446],[0.084375,-0.044444444444444446],[0.08541666666666667,-0.044444444444444446],[0.1,-0.04259259259259259],[0.11875,-0.03333333333333333],[0.1375,-0.03148148148148148],[0.159375,-0.024074074074074074],[0.165625,-0.024074074074074074],[0.16666666666666666,-0.024074074074074074],[0.16979166666666667,-0.025925925925925925],[0.16979166666666667,-0.025925925925925925],[0.16979166666666667,-0.025925925925925925],[0.171875,-0.027777777777777776],[0.171875,-0.027777777777777776],[0.171875,-0.027777777777777776],[0.171875,-0.027777777777777776],[0.17291666666666666,-0.027777777777777776],[0.17291666666666666,-0.027777777777777776],[0.17291666666666666,-0.027777777777777776],[0.17291666666666666,-0.027777777777777776],[0.17291666666666666,-0.027777777777777776],[0.17291666666666666,-0.027777777777777776],[0.17291666666666666,-0.027777777777777776],[0.17291666666666666,-0.027777777777777776],[0.17291666666666666,-0.027777777777777776],[0.17291666666666666,-0.027777777777777776],[0.171875,-0.027777777777777776],[0.17083333333333334,-0.027777777777777776],[0.16979166666666667,-0.027777777777777776],[0.16875,-0.027777777777777776],[0.16770833333333332,-0.027777777777777776],[0.16666666666666666,-0.024074074074074074],[0.165625,-0.018518518518518517],[0.16458333333333333,-0.012962962962962963],[0.16458333333333333,-0.005555555555555556],[0.16354166666666667,0.003703703703703704],[0.16354166666666667,0.007407407407407408],[0.16354166666666667,0.011111111111111112],[0.16354166666666667,0.012962962962962963],[0.16354166666666667,0.012962962962962963],[0.16354166666666667,0.014814814814814815],[0.16354166666666667,0.014814814814814815],[0.16354166666666667,0.014814814814814815],[0.16354166666666667,0.014814814814814815],[0.16354166666666667,0.014814814814814815],[0.16354166666666667,0.014814814814814815],[0.16354166666666667,0.014814814814814815],[0.16354166666666667,0.014814814814814815],[0.16354166666666667,0.014814814814814815],[0.16354166666666667,0.014814814814814815],[0.16354166666666667,0.014814814814814815],[0.16354166666666667,0.014814814814814815],[0.16354166666666667,0.014814814814814815],[0.16354166666666667,0.014814814814814815],[0.16354166666666667,0.014814814814814815],[0.16145833333333334,0.014814814814814815],[0.15833333333333333,0],[0.15625,-0.018518518518518517],[0.153125,-0.044444444444444446],[0.15104166666666666,-0.06296296296296296],[0.15,-0.07592592592592592],[0.14895833333333333,-0.08148148148148149],[0.14895833333333333,-0.08703703703703704],[0.14895833333333333,-0.08888888888888889],[0.14895833333333333,-0.08888888888888889],[0.14895833333333333,-0.08888888888888889],[0.14895833333333333,-0.08888888888888889],[0.15104166666666666,-0.07222222222222222],[0.15625,-0.044444444444444446],[0.1625,-0.007407407407407408],[0.16770833333333332,0.02962962962962963],[0.171875,0.07037037037037037],[0.17291666666666666,0.0962962962962963],[0.17291666666666666,0.12037037037037036],[0.17291666666666666,0.13518518518518519],[0.171875,0.14444444444444443],[0.171875,0.1537037037037037],[0.171875,0.1574074074074074],[0.171875,0.15925925925925927],[0.171875,0.15925925925925927],[0.17083333333333334,0.16111111111111112],[0.17083333333333334,0.16111111111111112],[0.16979166666666667,0.16111111111111112],[0.16979166666666667,0.16111111111111112],[0.16979166666666667,0.16111111111111112],[0.16979166666666667,0.16111111111111112],[0.16979166666666667,0.16111111111111112],[0.16979166666666667,0.16111111111111112],[0.16979166666666667,0.16111111111111112],[0.16979166666666667,0.16111111111111112],[0.16979166666666667,0.16111111111111112],[0.16875,0.16111111111111112],[0.165625,0.16111111111111112],[0.16458333333333333,0.16111111111111112],[0.16354166666666667,0.16111111111111112],[0.16354166666666667,0.16111111111111112],[0.1625,0.16111111111111112],[0.1625,0.16111111111111112],[0.1625,0.16111111111111112],[0.16145833333333334,0.16111111111111112],[0.15833333333333333,0.1574074074074074],[0.15833333333333333,0.1574074074074074],[0.15729166666666666,0.1537037037037037],[0.15625,0.15],[0.15520833333333334,0.15],[0.15416666666666667,0.14444444444444443],[0.153125,0.14444444444444443],[0.153125,0.1425925925925926],[0.15208333333333332,0.1425925925925926],[0.15208333333333332,0.1425925925925926],[0.15208333333333332,0.1425925925925926],[0.15208333333333332,0.1425925925925926],[0.15208333333333332,0.1425925925925926],[0.15208333333333332,0.1425925925925926],[0.15208333333333332,0.1425925925925926],[0.15208333333333332,0.1425925925925926],[0.15208333333333332,0.1425925925925926],[0.15208333333333332,0.1425925925925926],[0.15208333333333332,0.1425925925925926],[0.15208333333333332,0.1425925925925926],[0.15208333333333332,0.1425925925925926],[0.15208333333333332,0.1425925925925926],[0.15208333333333332,0.14074074074074075],[0.15208333333333332,0.1388888888888889],[0.15104166666666666,0.1388888888888889],[0.15104166666666666,0.13703703703703704],[0.15,0.13518518518518519],[0.15,0.13518518518518519],[0.15,0.13518518518518519],[0.15,0.13518518518518519],[0.15,0.13518518518518519],[0.15,0.13518518518518519],[0.15,0.13518518518518519],[0.15,0.13518518518518519],[0.15,0.13518518518518519],[0.15,0.13518518518518519],[0.15,0.13518518518518519],[0.15,0.13518518518518519],[0.15,0.13518518518518519],[0.15,0.13518518518518519],[0.15,0.13518518518518519],[0.15,0.13518518518518519],[0.14895833333333333,0.12962962962962962],[0.14895833333333333,0.12407407407407407],[0.14895833333333333,0.10925925925925926],[0.14895833333333333,0.08703703703703704],[0.15208333333333332,0.05]]","[[0.1326041666666666,0.28888888888888886],[0.15125000000000005,0.24833333333333338],[0.15125000000000005,0.24833333333333338],[0.15166666666666656,0.20925925925925926],[0.15166666666666656,0.20925925925925926],[0.17937500000000003,0.23962962962962958],[0.17937500000000003,0.23962962962962958],[0.17937500000000003,0.23962962962962958],[0.17937500000000003,0.23962962962962958],[0.14229166666666657,0.24648148148148152],[0.14229166666666657,0.24648148148148152],[0.1642708333333334,0.2388888888888889],[0.1642708333333334,0.2388888888888889],[0.1765625,0.1983333333333334],[0.1765625,0.1983333333333334],[0.18416666666666662,0.19537037037037036],[0.18416666666666662,0.19537037037037036],[0.2021874999999999,0.14462962962962966],[0.2021874999999999,0.14462962962962966],[0.1990624999999999,0.10777777777777786],[0.1990624999999999,0.10777777777777786],[0.14979166666666663,0.09981481481481477],[0.14979166666666663,0.09981481481481477],[0.1345833333333334,0.08518518518518518],[0.1345833333333334,0.08518518518518518],[0.13479166666666675,0.03685185185185181],[0.13479166666666675,0.03685185185185181],[0.11416666666666657,-0.1022222222222222],[0.11416666666666657,-0.1022222222222222],[0.13270833333333343,-0.11685185185185189],[0.13270833333333343,-0.11685185185185189],[0.1296875,-0.1418518518518519],[0.1296875,-0.1418518518518519],[0.1337500000000001,-0.09907407407407408],[0.1337500000000001,-0.09907407407407408],[0.12614583333333323,-0.06092592592592588],[0.12614583333333323,-0.06092592592592588],[0.10645833333333338,0.01796296296296305],[0.10645833333333338,0.01796296296296305],[0.0865624999999999,0.036666666666666584],[0.0865624999999999,0.036666666666666584],[0.10125000000000005,0.055000000000000084],[0.10125000000000005,0.055000000000000084],[0.09249999999999996,0.11222222222222226],[0.09249999999999996,0.11222222222222226],[0.09208333333333343,0.1633333333333334],[0.09208333333333343,0.1633333333333334],[0.10229166666666671,0.3164814814814814],[0.10229166666666671,0.3164814814814814],[0.13333333333333333,0.2729629629629629],[0.13333333333333333,0.2729629629629629],[0.12843749999999995,0.31555555555555553],[0.12843749999999995,0.31555555555555553],[0.1087500000000001,0.26796296296296307],[0.1087500000000001,0.26796296296296307],[0.12135416666666667,0.22814814814814824],[0.12135416666666667,0.22814814814814824],[0.14479166666666668,0.18888888888888888],[0.14479166666666668,0.18888888888888888],[0.19406249999999994,0.22666666666666663],[0.19406249999999994,0.22666666666666663],[0.2169791666666666,0.1925925925925926],[0.2169791666666666,0.1925925925925926],[0.2453125,0.1448148148148149],[0.2453125,0.1448148148148149],[0.2561458333333334,0.09870370370370361],[0.2561458333333334,0.09870370370370361],[0.278125,0.05018518518518523],[0.278125,0.05018518518518523],[0.25010416666666657,0.07222222222222222],[0.25010416666666657,0.07222222222222222],[0.2443749999999999,0.0742592592592593],[0.2598958333333333,0.09944444444444453],[0.23427083333333343,0.10259259259259255],[0.20125000000000004,0.1198148148148149],[0.16062500000000005,0.12370370370370362],[0.15208333333333332,0.12907407407407415],[0.15208333333333332,0.12907407407407415],[0.15052083333333333,0.16592592592592598],[0.1412499999999999,0.20666666666666672],[0.10385416666666672,0.18648148148148155],[0.09291666666666672,0.18425925925925926],[0.08093750000000005,0.19037037037037027],[0.08250000000000005,0.18407407407407403],[0.09489583333333323,0.18333333333333332],[0.09854166666666657,0.11351851851851844],[0.1125,0.06388888888888888],[0.1125,0.06388888888888888],[0.09791666666666667,0.13277777777777786],[0.09791666666666667,0.13277777777777786],[0.08177083333333333,0.10685185185185193],[0.06697916666666662,0.06296296296296296],[0.08270833333333343,0.12740740740740733],[0.0984375,0.19185185185185188],[0.10239583333333328,0.1985185185185186],[0.10062499999999991,0.1853703703703704],[0.1109375,0.16148148148148156],[0.12489583333333343,0.1766666666666666],[0.12395833333333334,0.2294444444444444],[0.15208333333333332,0.16777777777777783],[0.1586458333333333,0.21574074074074073],[0.1586458333333333,0.21574074074074073],[0.175,0.23499999999999996],[0.19166666666666668,0.18777777777777774],[0.1868750000000001,0.14166666666666666],[0.19197916666666662,0.12888888888888894],[0.20656249999999995,0.16314814814814818],[0.20343749999999997,0.18944444444444436],[0.2068749999999999,0.20611111111111102],[0.21302083333333333,0.16444444444444437],[0.21302083333333333,0.16444444444444437],[0.21375000000000005,0.1766666666666666],[0.21145833333333333,0.07370370370370362],[0.2085416666666667,0.008333333333333333],[0.1970833333333334,0.07388888888888885],[0.203125,0.021481481481481525],[0.21906249999999997,-0.0035185185185184764],[0.21427083333333338,-0.04518518518518514],[0.21427083333333338,-0.04518518518518514],[0.2111458333333334,-0.1235185185185185],[0.19177083333333325,-0.18870370370370365],[0.1742708333333333,-0.25333333333333335],[0.1742708333333333,-0.25333333333333335],[0.16010416666666671,-0.18703703703703703],[0.17239583333333333,-0.14148148148148143],[0.17239583333333333,-0.14148148148148143],[0.15572916666666667,-0.035740740740740656],[0.13677083333333329,-0.0257407407407407],[0.13135416666666658,0.004814814814814857],[0.08645833333333333,0.057037037037036956],[0.04593750000000003,0.0705555555555556],[0.028854166666666715,0.14759259259259266],[0.02802083333333331,0.21148148148148158],[0.03979166666666671,0.26500000000000007],[0.04072916666666669,0.202962962962963],[-0.002916666666666619,0.23055555555555557],[-0.004166666666666667,0.2161111111111112],[-0.022083333333333382,0.13740740740740748],[-0.03854166666666667,0.1479629629629629],[-0.025416666666666643,0.12537037037037047],[-0.009791666666666643,0.14740740740740746],[-0.013645833333333357,0.16129629629629633],[-0.0010416666666666667,0.11666666666666667],[-0.0010416666666666667,0.11666666666666667],[0.0013541666666666192,0.12962962962962962],[-0.014999999999999977,0.16111111111111112],[0.005208333333333333,0.1479629629629629],[0.011979166666666667,0.11666666666666667],[0.04010416666666667,0.01796296296296305],[0.057187499999999974,-0.07370370370370373],[0.07843749999999995,-0.1514814814814815],[0.09208333333333343,-0.23629629629629634],[0.1125,-0.29888888888888887],[0.08416666666666663,-0.28425925925925927],[0.05625,-0.28407407407407403],[0.05625,-0.28407407407407403],[0.041770833333333354,-0.29240740740740734],[0.025416666666666643,-0.2596296296296296],[0.025416666666666643,-0.2596296296296296],[0.009062500000000048,-0.22685185185185186],[0.009062500000000048,-0.22685185185185186],[0.0037500000000000237,-0.13851851851851854],[0.0037500000000000237,-0.13851851851851854],[-0.030520833333333285,0.003333333333333249],[-0.030520833333333285,0.003333333333333249],[-0.04802083333333336,0.06999999999999991],[-0.04802083333333336,0.06999999999999991],[-0.043229166666666666,0.11814814814814806],[-0.06447916666666664,0.14833333333333337],[-0.06447916666666664,0.14833333333333337],[-0.05333333333333338,0.1596296296296297],[-0.11989583333333335,0.1911111111111112],[-0.11989583333333335,0.1911111111111112],[-0.19979166666666662,0.19574074074074083],[-0.21166666666666673,0.1479629629629629],[-0.2241666666666667,0.11611111111111119],[-0.2241666666666667,0.11611111111111119],[-0.2267708333333334,0.08055555555555556],[-0.1866666666666667,0.027037037037037078],[-0.1648958333333333,0.025],[-0.16937500000000003,0.018333333333333292],[-0.17197916666666668,0.032037037037036954],[-0.19593750000000001,0.041111111111111195],[-0.13635416666666664,0.03259259259259263],[-0.13635416666666664,0.03259259259259263],[-0.03937499999999995,-0.000925925925925926],[-0.01729166666666669,0.009814814814814731],[0.019895833333333356,-0.012962962962962963],[0.029270833333333357,0],[0.028645833333333332,-0.02555555555555547],[0.030416666666666713,-0.04888888888888885],[0.030416666666666713,-0.04888888888888885],[0.03864583333333336,-0.04425925925925922],[0.06499999999999997,-0.04537037037037037],[0.12510416666666657,-0.03888888888888889],[0.16281249999999994,-0.059999999999999956],[0.16375000000000003,-0.0933333333333333],[0.16375000000000003,-0.0933333333333333],[0.16291666666666677,-0.12037037037037036],[0.16291666666666677,-0.12037037037037036],[0.14812500000000003,-0.05648148148148148],[0.14812500000000003,-0.05648148148148148],[0.13135416666666658,-0.06925925925925921],[0.10374999999999991,-0.06740740740740736],[0.08114583333333343,-0.12888888888888894],[0.0671875,-0.11703703703703702],[0.043437500000000046,-0.09425925925925922],[-0.001145833333333357,-0.14685185185185187],[-0.03197916666666671,-0.20722222222222217],[-0.03312499999999995,-0.1588888888888889],[-0.029375000000000047,-0.13796296296296295],[-0.026145833333333358,-0.19037037037037038],[-0.014583333333333334,-0.14962962962962964],[-0.007500000000000047,-0.11925925925925922],[-0.02010416666666662,0.0007407407407406986],[-0.03458333333333338,-0.025925925925925925],[-0.02822916666666669,-0.047037037037036995],[-0.013645833333333357,-0.0301851851851851],[-0.01114583333333338,0.02388888888888885],[-0.02302083333333336,-0.005000000000000084],[-0.03760416666666669,0.02833333333333325],[-0.03760416666666669,0.02833333333333325],[-0.059583333333333384,0.03092592592592601],[-0.05583333333333336,0.0514814814814814],[-0.0672916666666667,0.06518518518518526],[-0.07135416666666666,0.026851851851851852],[-0.07135416666666666,0.026851851851851852],[-0.05593750000000005,0.035740740740740656],[-0.06020833333333329,0.04259259259259259],[-0.06572916666666669,0.05481481481481486],[-0.05916666666666662,0.029814814814814856],[-0.06687500000000005,0.020370370370370372],[-0.059687499999999956,-0.02111111111111107],[-0.05562499999999997,-0.042407407407407366],[-0.05520833333333333,-0.06111111111111111],[-0.02802083333333331,-0.0742592592592593],[-0.018333333333333358,-0.0962962962962963],[-0.03875000000000005,-0.06703703703703702],[-0.03875000000000005,-0.06703703703703702],[-0.03687499999999998,-0.08962962962962959],[-0.033645833333333285,-0.0801851851851852],[-0.03843749999999998,-0.06574074074074074],[-0.03083333333333336,-0.044444444444444446],[-0.033749999999999974,-0.03370370370370379],[0.008958333333333356,-0.05],[-0.00791666666666669,-0.06185185185185181],[-0.02374999999999995,-0.08777777777777773],[-0.019791666666666666,-0.08740740740740739],[0.008229166666666643,-0.0514814814814814],[0.04458333333333329,0.020185185185185143],[0.06906249999999996,0.0485185185185186],[0.10479166666666657,0.08870370370370366],[0.10479166666666657,0.08870370370370366],[0.1099999999999999,0.1088888888888888],[0.11614583333333334,0.12222222222222222],[0.09656250000000005,0.14722222222222223],[0.10666666666666676,0.11555555555555551],[0.11572916666666658,0.09796296296296292],[0.12291666666666666,0.14611111111111108],[0.10989583333333333,0.13351851851851856],[0.06395833333333331,0.03537037037037041],[0.029895833333333382,-0.022222222222222223],[-0.017916666666666713,-0.08648148148148146],[-0.030624999999999975,-0.12481481481481477],[-0.007291666666666667,-0.15537037037037033],[-0.021041666666666715,-0.16425925925925924],[-0.03197916666666671,-0.13240740740740742],[-0.04052083333333331,-0.11703703703703702],[-0.04052083333333331,-0.11703703703703702],[-0.025520833333333333,-0.15092592592592594],[-0.03947916666666664,-0.16148148148148145],[-0.043229166666666666,-0.1037037037037037],[-0.0296875,-0.0727777777777778],[-0.005624999999999976,-0.052037037037037076],[0.018020833333333285,-0.01907407407407399],[0.018020833333333285,-0.01907407407407399],[0.013125000000000024,0.017592592592592594],[0.013125000000000024,0.017592592592592594],[0.028437499999999952,0.05259259259259255],[0.03895833333333331,0.027407407407407325],[0.03895833333333331,0.027407407407407325],[0.04708333333333338,0.018703703703703747],[0.04708333333333338,0.018703703703703747],[0.044062499999999956,0.04888888888888885],[0.044062499999999956,0.04888888888888885],[0.059791666666666646,0.057962962962962876],[0.08666666666666671,0.0507407407407407],[0.0962500000000001,0.07037037037037037],[0.10104166666666667,0.08462962962962971],[0.10625,0.08666666666666659],[0.0834374999999999,0.09314814814814806],[0.07166666666666661,0.10333333333333325],[0.059895833333333336,0.0787037037037037],[0.05364583333333333,0.1574074074074074],[0.019270833333333334,0.1037037037037037],[0.029166666666666667,0.06425925925925935],[0.016354166666666715,0.040740740740740744],[0.003541666666666643,0.01722222222222214],[-0.0021875000000000236,-0.03092592592592601],[0.006979166666666714,-0.005740740740740783],[0.006979166666666714,-0.005740740740740783],[0.021979166666666692,-0.006111111111111027],[0.021979166666666692,-0.006111111111111027],[0.04375,0.010185185185185186],[0.06979166666666667,0.05092592592592592],[0.09947916666666666,-0.030740740740740784],[0.15208333333333332,-0.01703703703703712],[0.146875,-0.013703703703703662],[0.17239583333333333,0.0011111111111111532],[0.19791666666666666,0.01592592592592597],[0.2211458333333333,0.02629629629629638],[0.2211458333333333,0.02629629629629638],[0.22947916666666662,-0.036666666666666584],[0.25114583333333323,-0.07037037037037037],[0.2752083333333334,-0.08851851851851854],[0.2752083333333334,-0.08851851851851854],[0.275,-0.04592592592592584],[0.2630208333333333,0.0011111111111111532],[0.23395833333333324,0.01777777777777782],[0.23395833333333324,0.01777777777777782],[0.23645833333333333,0],[0.21739583333333337,-0.03740740740740749],[0.21166666666666673,-0.04888888888888885],[0.1951041666666666,-0.03425925925925926],[0.1951041666666666,-0.03425925925925926],[0.17854166666666677,-0.01962962962962967],[0.1851041666666667,-0.005185185185185101],[0.16541666666666663,-0.009444444444444486],[0.1681250000000001,-0.03148148148148148],[0.16927083333333334,-0.04759259259259268],[0.15927083333333342,-0.02111111111111107],[0.1382291666666667,0.006296296296296254],[0.1321875000000001,-0.00851851851851856],[0.11281249999999995,-0.0492592592592593],[0.11791666666666671,-0.04407407407407399],[0.1525000000000001,-0.004814814814814857],[0.13916666666666658,0.01314814814814819],[0.14229166666666657,0.03166666666666671],[0.14166666666666666,0.01518518518518527],[0.14520833333333344,-0.005370370370370328],[0.18645833333333334,-0.018518518518518517],[0.2117708333333333,-0.023148148148148147],[0.228125,0.008703703703703788],[0.24447916666666672,0.04055555555555551],[0.2415625000000001,0.054259259259259174],[0.2178124999999999,0.051666666666666625],[0.2146874999999999,0.01185185185185181],[0.20864583333333328,-0.03981481481481482],[0.20499999999999996,-0.0301851851851851],[0.17927083333333324,0.019999999999999917],[0.13875000000000004,0.03222222222222218],[0.13770833333333338,-0.003703703703703704],[0.12427083333333329,-0.018888888888888972],[0.12427083333333329,-0.018888888888888972],[0.1256249999999999,-0.008888888888888804],[0.13875000000000004,0.004074074074074159],[0.13875000000000004,0.004074074074074159],[0.10052083333333334,-0.03611111111111111],[0.08489583333333334,-0.024629629629629547],[0.06927083333333334,-0.01314814814814819],[0.07083333333333333,-0.00722222222222218],[0.06906249999999996,-0.08037037037037033],[0.10260416666666666,-0.0801851851851852],[0.09645833333333324,-0.04296296296296305],[0.10750000000000005,-0.005000000000000084],[0.09947916666666666,0.02444444444444453],[0.09947916666666666,0.02444444444444453],[0.09541666666666657,-0.02166666666666675],[0.09541666666666657,-0.02166666666666675],[0.1271874999999999,-0.019259259259259216],[0.08510416666666672,-0.0294444444444444],[0.07916666666666666,0.008888888888888804],[0.044062499999999956,0.01777777777777782],[0.0609375,0.015000000000000043],[0.0609375,0.015000000000000043],[0.04739583333333333,-0.008333333333333333],[0.06489583333333329,0.02370370370370362],[0.07395833333333333,0.0485185185185186],[0.07395833333333333,0.0485185185185186],[0.08552083333333324,0.049629629629629544],[0.06072916666666662,0.11074074074074065],[0.046875,0.15481481481481485],[0.046875,0.15481481481481485],[0.12010416666666662,0.19277777777777783],[0.12010416666666662,0.19277777777777783],[0.1462500000000001,0.1587037037037038],[0.18385416666666668,0.12166666666666676],[0.19375,0.17074074074074083],[0.18895833333333342,0.13407407407407404],[0.18895833333333342,0.13407407407407404],[0.1724999999999999,0.072037037037037],[0.15291666666666662,0.001851851851851852],[0.13666666666666671,-0.027037037037037078],[0.1466666666666666,-0.06277777777777774],[0.1568749999999999,-0.12111111111111107],[0.1568749999999999,-0.12111111111111107],[0.15125000000000005,-0.16166666666666668],[0.15125000000000005,-0.16166666666666668],[0.11947916666666672,-0.12185185185185188],[0.11875,-0.07666666666666662],[0.11875,-0.07666666666666662],[0.11520833333333323,-0.09833333333333337],[0.1336458333333333,-0.10759259259259263],[0.1336458333333333,-0.10759259259259263],[0.13958333333333334,-0.09648148148148153],[0.13958333333333334,-0.09648148148148153],[0.1443749999999999,0.004814814814814857],[0.1556250000000001,-0.022777777777777692],[0.1556250000000001,-0.022777777777777692],[0.14406249999999995,-0.020740740740740823],[0.1556250000000001,0.018518518518518517],[0.13562500000000005,0.04092592592592597],[0.15968749999999995,-0.06814814814814817],[0.15458333333333343,-0.17092592592592595],[0.1650000000000001,-0.1766666666666666],[0.1632291666666667,-0.1618518518518518],[0.18333333333333332,-0.17962962962962964],[0.20770833333333344,-0.2794444444444444],[0.18395833333333325,-0.3229629629629629],[0.18302083333333338,-0.3961111111111111],[0.14114583333333333,-0.427962962962963],[0.16302083333333334,-0.4087037037037037],[0.1642708333333334,-0.36500000000000005],[0.1625,-0.31203703703703706],[0.1502083333333334,-0.3066666666666667],[0.1368750000000001,-0.30703703703703705],[0.10708333333333328,-0.2918518518518519],[0.11729166666666657,-0.2801851851851852],[0.12000000000000005,-0.2627777777777777],[0.11229166666666662,-0.21777777777777782],[0.15927083333333342,-0.3066666666666667],[0.15927083333333342,-0.3066666666666667],[0.14104166666666676,-0.3581481481481481],[0.12166666666666662,-0.41462962962962957],[0.13875000000000004,-0.4177777777777778],[0.1428124999999999,-0.4925925925925926],[0.16739583333333338,-0.5025925925925926],[0.1990624999999999,-0.515925925925926],[0.17447916666666666,-0.47537037037037033],[0.1974999999999999,-0.4022222222222222],[0.20416666666666666,-0.37833333333333335],[0.15885416666666666,-0.2681481481481482],[0.1287499999999999,-0.29018518518518516],[0.1134375000000001,-0.25703703703703706],[0.09489583333333323,-0.23777777777777773],[0.07645833333333343,-0.17074074074074072],[0.03854166666666667,-0.16277777777777774],[0.005312500000000024,-0.15166666666666662],[-0.010000000000000024,-0.18907407407407412],[-0.025312499999999953,-0.2264814814814815],[-0.004166666666666667,-0.2507407407407407],[0.02781250000000005,-0.2794444444444444],[0.06541666666666662,-0.22185185185185188],[0.10302083333333342,-0.16425925925925924]]","[[0.1326041666666666,0.28888888888888886,0.00020000000297670795],[0.15125000000000005,0.24833333333333338,0.03439999999851295],[0.15125000000000005,0.24833333333333338,0.041100000001492276],[0.15166666666666656,0.20925925925925926,0.06779999999702113],[0.15166666666666656,0.20925925925925926,0.07470000000297716],[0.17937500000000003,0.23962962962962958,0.10360000000149228],[0.17937500000000003,0.23962962962962958,0.11050000000000182],[0.17937500000000003,0.23962962962962958,0.11549999999999727],[0.17937500000000003,0.23962962962962958,0.13379999999702363],[0.14229166666666657,0.24648148148148152,0.17010000000148295],[0.14229166666666657,0.24648148148148152,0.1767999999970158],[0.1642708333333334,0.2388888888888889,0.2036000000014866],[0.1642708333333334,0.2388888888888889,0.21089999999850306],[0.1765625,0.1983333333333334,0.2387999999970134],[0.1765625,0.1983333333333334,0.24620000000297182],[0.18416666666666662,0.19537037037037036,0.26989999999850056],[0.18416666666666662,0.19537037037037036,0.27649999999999864],[0.2021874999999999,0.14462962962962966,0.30400000000000205],[0.2021874999999999,0.14462962962962966,0.3114999999999952],[0.1990624999999999,0.10777777777777786,0.3367000000029776],[0.1990624999999999,0.10777777777777786,0.3434999999999917],[0.14979166666666663,0.09981481481481477,0.37000000000000455],[0.14979166666666663,0.09981481481481477,0.3771000000014908],[0.1345833333333334,0.08518518518518518,0.4013999999985032],[0.1345833333333334,0.08518518518518518,0.4092999999970175],[0.13479166666666675,0.03685185185185181,0.43460000000148113],[0.13479166666666675,0.03685185185185181,0.44229999999701874],[0.11416666666666657,-0.1022222222222222,0.4680000000000035],[0.11416666666666657,-0.1022222222222222,0.4852999999970109],[0.13270833333333343,-0.11685185185185189,0.5036000000014837],[0.13270833333333343,-0.11685185185185189,0.5106000000014888],[0.1296875,-0.1418518518518519,0.5390000000000015],[0.1296875,-0.1418518518518519,0.546299999997018],[0.1337500000000001,-0.09907407407407408,0.5713999999985049],[0.1337500000000001,-0.09907407407407408,0.5794999999999959],[0.12614583333333323,-0.06092592592592588,0.6033999999985014],[0.12614583333333323,-0.06092592592592588,0.6105000000000018],[0.10645833333333338,0.01796296296296305,0.634600000001484],[0.10645833333333338,0.01796296296296305,0.6421000000014914],[0.0865624999999999,0.036666666666666584,0.6697999999970108],[0.0865624999999999,0.036666666666666584,0.6765000000000043],[0.10125000000000005,0.055000000000000084,0.7012999999970191],[0.10125000000000005,0.055000000000000084,0.7087999999970123],[0.09249999999999996,0.11222222222222226,0.7346000000014925],[0.09249999999999996,0.11222222222222226,0.7420000000000044],[0.09208333333333343,0.1633333333333334,0.7678999999985052],[0.09208333333333343,0.1633333333333334,0.7754999999999939],[0.10229166666666671,0.3164814814814814,0.7997000000029715],[0.10229166666666671,0.3164814814814814,0.8067000000029765],[0.13333333333333333,0.2729629629629629,0.8357999999970218],[0.13333333333333333,0.2729629629629629,0.8422000000029755],[0.12843749999999995,0.31555555555555553,0.8677999999970183],[0.12843749999999995,0.31555555555555553,0.8746000000014931],[0.1087500000000001,0.26796296296296307,0.903499999999994],[0.1087500000000001,0.26796296296296307,0.9112999999970128],[0.12135416666666667,0.22814814814814824,0.9344999999999999],[0.12135416666666667,0.22814814814814824,0.9417000000029816],[0.14479166666666668,0.18888888888888888,0.9701000000014943],[0.14479166666666668,0.18888888888888888,0.9771000000014851],[0.19406249999999994,0.22666666666666663,1.0012999999970162],[0.19406249999999994,0.22666666666666663,1.0082999999970212],[0.2169791666666666,0.1925925925925926,1.0367999999970152],[0.2169791666666666,0.1925925925925926,1.0441000000014924],[0.2453125,0.1448148148148149,1.0679999999999978],[0.2453125,0.1448148148148149,1.074799999997012],[0.2561458333333334,0.09870370370370361,1.1037000000029735],[0.2561458333333334,0.09870370370370361,1.1113999999985111],[0.278125,0.05018518518518523,1.1345000000000027],[0.278125,0.05018518518518523,1.1632999999970224],[0.25010416666666657,0.07222222222222222,1.170500000000004],[0.25010416666666657,0.07222222222222222,1.1821000000014834],[0.2443749999999999,0.0742592592592593,1.1988999999985026],[0.2598958333333333,0.09944444444444453,1.2154999999999916],[0.23427083333333343,0.10259259259259255,1.2349999999999994],[0.20125000000000004,0.1198148148148149,1.2487999999970185],[0.16062500000000005,0.12370370370370362,1.2672999999970216],[0.15208333333333332,0.12907407407407415,1.2822999999970222],[0.15208333333333332,0.12907407407407415,1.2991000000014878],[0.15052083333333333,0.16592592592592598,1.3157000000029768],[0.1412499999999999,0.20666666666666672,1.3340000000000032],[0.10385416666666672,0.18648148148148155,1.3488999999985083],[0.09291666666666672,0.18425925925925926,1.3656000000014927],[0.08093750000000005,0.19037037037037027,1.384999999999991],[0.08250000000000005,0.18407407407407403,1.4009999999999962],[0.09489583333333323,0.18333333333333332,1.4158999999985014],[0.09854166666666657,0.11351851851851844,1.4339999999999975],[0.1125,0.06388888888888888,1.448999999999998],[0.1125,0.06388888888888888,1.465600000001487],[0.09791666666666667,0.13277777777777786,1.4821000000014948],[0.09791666666666667,0.13277777777777786,1.4989999999999952],[0.08177083333333333,0.10685185185185193,1.5173999999985028],[0.06697916666666662,0.06296296296296296,1.5322999999970222],[0.08270833333333343,0.12740740740740733,1.5491000000014878],[0.0984375,0.19185185185185188,1.5656000000014814],[0.10239583333333328,0.1985185185185186,1.5854999999999961],[0.10062499999999991,0.1853703703703704,1.5992999999970152],[0.1109375,0.16148148148148156,1.615700000002974],[0.12489583333333343,0.1766666666666666,1.6321000000014863],[0.12395833333333334,0.2294444444444444,1.6487999999970242],[0.15208333333333332,0.16777777777777783,1.6654999999999944],[0.1586458333333333,0.21574074074074073,1.6822000000029789],[0.1586458333333333,0.21574074074074073,1.698999999999998],[0.175,0.23499999999999996,1.7154999999999916],[0.19166666666666668,0.18777777777777774,1.733399999998511],[0.1868750000000001,0.14166666666666666,1.7493999999985022],[0.19197916666666662,0.12888888888888894,1.7680000000000007],[0.20656249999999995,0.16314814814814818,1.7836000000014849],[0.20343749999999997,0.18944444444444436,1.8007000000029763],[0.2068749999999999,0.20611111111111102,1.8183999999985048],[0.21302083333333333,0.16444444444444437,1.8323999999985006],[0.21302083333333333,0.16444444444444437,1.8488999999985083],[0.21375000000000005,0.1766666666666666,1.8682000000029717],[0.21145833333333333,0.07370370370370362,1.8822999999970165],[0.2085416666666667,0.008333333333333333,1.9026000000014847],[0.1970833333333334,0.07388888888888885,1.91860000000149],[0.203125,0.021481481481481525,1.9336000000014906],[0.21906249999999997,-0.0035185185185184764,1.9488999999985026],[0.21427083333333338,-0.04518518518518514,1.9658999999985127],[0.21427083333333338,-0.04518518518518514,1.984499999999997],[0.2111458333333334,-0.1235185185185185,1.9991000000014907],[0.19177083333333325,-0.18870370370370365,2.017700000002975],[0.1742708333333333,-0.25333333333333335,2.0346000000014897],[0.1742708333333333,-0.25333333333333335,2.0489999999999924],[0.16010416666666671,-0.18703703703703703,2.065700000002977],[0.17239583333333333,-0.14148148148148143,2.0863999999985055],[0.17239583333333333,-0.14148148148148143,2.0993999999985107],[0.15572916666666667,-0.035740740740740656,2.115799999997023],[0.13677083333333329,-0.0257407407407407,2.132399999998512],[0.13135416666666658,0.004814814814814857,2.154299999997022],[0.08645833333333333,0.057037037037036956,2.1687000000029713],[0.04593750000000003,0.0705555555555556,2.183700000002972],[0.028854166666666715,0.14759259259259266,2.202399999998505],[0.02802083333333331,0.21148148148148158,2.2158999999985127],[0.03979166666666671,0.26500000000000007,2.2346000000014925],[0.04072916666666669,0.202962962962963,2.2502000000029767],[-0.002916666666666619,0.23055555555555557,2.265500000000003],[-0.004166666666666667,0.2161111111111112,2.282200000002973],[-0.022083333333333382,0.13740740740740748,2.3001000000014926],[-0.03854166666666667,0.1479629629629629,2.3157999999970116],[-0.025416666666666643,0.12537037037037047,2.3322000000029846],[-0.009791666666666643,0.14740740740740746,2.3488999999985083],[-0.013645833333333357,0.16129629629629633,2.3667000000029788],[-0.0010416666666666667,0.11666666666666667,2.3822000000029817],[-0.0010416666666666667,0.11666666666666667,2.3988999999985055],[0.0013541666666666192,0.12962962962962962,2.41560000000149],[-0.014999999999999977,0.16111111111111112,2.432200000002979],[0.005208333333333333,0.1479629629629629,2.448999999999998],[0.011979166666666667,0.11666666666666667,2.4654999999999916],[0.04010416666666667,0.01796296296296305,2.482200000002976],[0.057187499999999974,-0.07370370370370373,2.501100000001486],[0.07843749999999995,-0.1514814814814815,2.515500000000003],[0.09208333333333343,-0.23629629629629634,2.532100000001492],[0.1125,-0.29888888888888887,2.5487999999970157],[0.08416666666666663,-0.28425925925925927,2.5667000000029816],[0.05625,-0.28407407407407403,2.5878999999985126],[0.05625,-0.28407407407407403,2.5990000000000038],[0.041770833333333354,-0.29240740740740734,2.6156000000014927],[0.025416666666666643,-0.2596296296296296,2.6363999999985026],[0.025416666666666643,-0.2596296296296296,2.648799999997024],[0.009062500000000048,-0.22685185185185186,2.66860000000149],[0.009062500000000048,-0.22685185185185186,2.682200000002979],[0.0037500000000000237,-0.13851851851851854,2.6992000000029748],[0.0037500000000000237,-0.13851851851851854,2.715600000001487],[-0.030520833333333285,0.003333333333333249,2.735299999997011],[-0.030520833333333285,0.003333333333333249,2.748899999998514],[-0.04802083333333336,0.06999999999999991,2.765500000000003],[-0.04802083333333336,0.06999999999999991,2.782200000002973],[-0.043229166666666666,0.11814814814814806,2.798899999998511],[-0.06447916666666664,0.14833333333333337,2.8156000000014814],[-0.06447916666666664,0.14833333333333337,2.832100000001489],[-0.05333333333333338,0.1596296296296297,2.850999999999999],[-0.11989583333333335,0.1911111111111112,2.870299999997016],[-0.11989583333333335,0.1911111111111112,2.8848999999985097],[-0.19979166666666662,0.19574074074074083,2.9014999999999986],[-0.21166666666666673,0.1479629629629629,2.9158999999985014],[-0.2241666666666667,0.11611111111111119,2.9322999999970136],[-0.2241666666666667,0.11611111111111119,2.9488999999985026],[-0.2267708333333334,0.08055555555555556,2.9680000000000035],[-0.1866666666666667,0.027037037037037078,2.9823999999985062],[-0.1648958333333333,0.025,3.0012999999970162],[-0.16937500000000003,0.018333333333333292,3.018100000001482],[-0.17197916666666668,0.032037037037036954,3.032299999997022],[-0.19593750000000001,0.041111111111111195,3.0489999999999924],[-0.13635416666666664,0.03259259259259263,3.0657999999970116],[-0.13635416666666664,0.03259259259259263,3.08439999999851],[-0.03937499999999995,-0.000925925925925926,3.0990000000000038],[-0.01729166666666669,0.009814814814814731,3.115700000002974],[0.019895833333333356,-0.012962962962962963,3.1322999999970165],[0.029270833333333357,0,3.148799999997024],[0.028645833333333332,-0.02555555555555547,3.1654999999999944],[0.030416666666666713,-0.04888888888888885,3.1821000000014834],[0.030416666666666713,-0.04888888888888885,3.1988999999985026],[0.03864583333333336,-0.04425925925925922,3.2153999999985103],[0.06499999999999997,-0.04537037037037037,3.2321000000014948],[0.12510416666666657,-0.03888888888888889,3.2487999999970185],[0.16281249999999994,-0.059999999999999956,3.267399999998503],[0.16375000000000003,-0.0933333333333333,3.2830000000000013],[0.16375000000000003,-0.0933333333333333,3.2989999999999924],[0.16291666666666677,-0.12037037037037036,3.317799999997021],[0.16291666666666677,-0.12037037037037036,3.3322999999970193],[0.14812500000000003,-0.05648148148148148,3.3488999999985083],[0.14812500000000003,-0.05648148148148148,3.3673999999985114],[0.13135416666666658,-0.06925925925925921,3.3822999999970165],[0.10374999999999991,-0.06740740740740736,3.402000000000001],[0.08114583333333343,-0.12888888888888894,3.41560000000149],[0.0671875,-0.11703703703703702,3.432799999997016],[0.043437500000000046,-0.09425925925925922,3.4487999999970214],[-0.001145833333333357,-0.14685185185185187,3.4653999999985103],[-0.03197916666666671,-0.20722222222222217,3.48410000000149],[-0.03312499999999995,-0.1588888888888889,3.4994999999999976],[-0.029375000000000047,-0.13796296296296295,3.515600000001484],[-0.026145833333333358,-0.19037037037037038,3.532299999997022],[-0.014583333333333334,-0.14962962962962964,3.550600000001481],[-0.007500000000000047,-0.11925925925925922,3.5656000000014814],[-0.02010416666666662,0.0007407407407406986,3.5822000000029846],[-0.03458333333333338,-0.025925925925925925,3.603499999999997],[-0.02822916666666669,-0.047037037037036995,3.617299999997016],[-0.013645833333333357,-0.0301851851851851,3.6322999999970165],[-0.01114583333333338,0.02388888888888885,3.6503999999985126],[-0.02302083333333336,-0.005000000000000084,3.6702000000029784],[-0.03760416666666669,0.02833333333333325,3.683899999998502],[-0.03760416666666669,0.02833333333333325,3.6988999999985026],[-0.059583333333333384,0.03092592592592601,3.7154999999999916],[-0.05583333333333336,0.0514814814814814,3.7321000000014948],[-0.0672916666666667,0.06518518518518526,3.7512000000029815],[-0.07135416666666666,0.026851851851851852,3.766999999999996],[-0.07135416666666666,0.026851851851851852,3.782299999997022],[-0.05593750000000005,0.035740740740740656,3.802499999999995],[-0.06020833333333329,0.04259259259259259,3.817399999998514],[-0.06572916666666669,0.05481481481481486,3.8323999999985006],[-0.05916666666666662,0.029814814814814856,3.8512999999970106],[-0.06687500000000005,0.020370370370370372,3.868799999997023],[-0.059687499999999956,-0.02111111111111107,3.8836000000014934],[-0.05562499999999997,-0.042407407407407366,3.9044999999999987],[-0.05520833333333333,-0.06111111111111111,3.918999999999997],[-0.02802083333333331,-0.0742592592592593,3.9343999999985044],[-0.018333333333333358,-0.0962962962962963,3.948999999999998],[-0.03875000000000005,-0.06703703703703702,3.968999999999994],[-0.03875000000000005,-0.06703703703703702,3.982200000002976],[-0.03687499999999998,-0.08962962962962959,3.9989999999999952],[-0.033645833333333285,-0.0801851851851852,4.017700000002975],[-0.03843749999999998,-0.06574074074074074,4.032600000001494],[-0.03083333333333336,-0.044444444444444446,4.048700000002981],[-0.033749999999999974,-0.03370370370370379,4.067299999997019],[0.008958333333333356,-0.05,4.084299999997015],[-0.00791666666666669,-0.06185185185185181,4.101899999998508],[-0.02374999999999995,-0.08777777777777773,4.118200000002972],[-0.019791666666666666,-0.08740740740740739,4.135999999999996],[0.008229166666666643,-0.0514814814814814,4.150499999999994],[0.04458333333333329,0.020185185185185143,4.165700000002971],[0.06906249999999996,0.0485185185185186,4.182399999998509],[0.10479166666666657,0.08870370370370366,4.201999999999998],[0.10479166666666657,0.08870370370370366,4.2157000000029825],[0.1099999999999999,0.1088888888888888,4.232299999997011],[0.11614583333333334,0.12222222222222222,4.251100000001486],[0.09656250000000005,0.14722222222222223,4.265799999997014],[0.10666666666666676,0.11555555555555551,4.285499999999999],[0.11572916666666658,0.09796296296296292,4.300700000002976],[0.12291666666666666,0.14611111111111108,4.3155],[0.10989583333333333,0.13351851851851856,4.332100000001489],[0.06395833333333331,0.03537037037037041,4.348700000002978],[0.029895833333333382,-0.022222222222222223,4.365700000002974],[-0.017916666666666713,-0.08648148148148146,4.382200000002982],[-0.030624999999999975,-0.12481481481481477,4.401299999997022],[-0.007291666666666667,-0.15537037037037033,4.415700000002971],[-0.021041666666666715,-0.16425925925925924,4.432100000001483],[-0.03197916666666671,-0.13240740740740742,4.450799999997017],[-0.04052083333333331,-0.11703703703703702,4.474499999999992],[-0.04052083333333331,-0.11703703703703702,4.482200000002976],[-0.025520833333333333,-0.15092592592592594,4.4987999999970185],[-0.03947916666666664,-0.16148148148148145,4.515500000000003],[-0.043229166666666666,-0.1037037037037037,4.532100000001492],[-0.0296875,-0.0727777777777778,4.549200000002983],[-0.005624999999999976,-0.052037037037037076,4.5655],[0.018020833333333285,-0.01907407407407399,4.589399999998506],[0.018020833333333285,-0.01907407407407399,4.598899999998508],[0.013125000000000024,0.017592592592592594,4.615499999999997],[0.013125000000000024,0.017592592592592594,4.632100000001486],[0.028437499999999952,0.05259259259259255,4.648799999997024],[0.03895833333333331,0.027407407407407325,4.665499999999994],[0.03895833333333331,0.027407407407407325,4.682100000001483],[0.04708333333333338,0.018703703703703747,4.698999999999998],[0.04708333333333338,0.018703703703703747,4.715499999999992],[0.044062499999999956,0.04888888888888885,4.732100000001495],[0.044062499999999956,0.04888888888888885,4.7487999999970185],[0.059791666666666646,0.057962962962962876,4.765500000000003],[0.08666666666666671,0.0507407407407407,4.782100000001492],[0.0962500000000001,0.07037037037037037,4.804100000001483],[0.10104166666666667,0.08462962962962971,4.819000000000003],[0.10625,0.08666666666666659,4.834000000000003],[0.0834374999999999,0.09314814814814806,4.848899999998508],[0.07166666666666661,0.10333333333333325,4.867299999997016],[0.059895833333333336,0.0787037037037037,4.882200000002982],[0.05364583333333333,0.1574074074074074,4.901700000002975],[0.019270833333333334,0.1037037037037037,4.919200000002974],[0.029166666666666667,0.06425925925925935,4.933299999997018],[0.016354166666666715,0.040740740740740744,4.948899999998503],[0.003541666666666643,0.01722222222222214,4.965600000001487],[-0.0021875000000000236,-0.03092592592592601,4.984499999999997],[0.006979166666666714,-0.005740740740740783,5.001100000001486],[0.006979166666666714,-0.005740740740740783,5.015799999997014],[0.021979166666666692,-0.006111111111111027,5.034499999999994],[0.021979166666666692,-0.006111111111111027,5.048999999999992],[0.04375,0.010185185185185186,5.065799999997012],[0.06979166666666667,0.05092592592592592,5.0822000000029846],[0.09947916666666666,-0.030740740740740784,5.098899999998508],[0.15208333333333332,-0.01703703703703712,5.115399999998502],[0.146875,-0.013703703703703662,5.132100000001486],[0.17239583333333333,0.0011111111111111532,5.148700000002975],[0.19791666666666666,0.01592592592592597,5.1673999999985085],[0.2211458333333333,0.02629629629629638,5.182299999997014],[0.2211458333333333,0.02629629629629638,5.198999999999998],[0.22947916666666662,-0.036666666666666584,5.218700000002983],[0.25114583333333323,-0.07037037037037037,5.23410000000149],[0.2752083333333334,-0.08851851851851854,5.248899999998514],[0.2752083333333334,-0.08851851851851854,5.26889999999851],[0.275,-0.04592592592592584,5.282299999997022],[0.2630208333333333,0.0011111111111111532,5.302200000002983],[0.23395833333333324,0.01777777777777782,5.317200000002984],[0.23395833333333324,0.01777777777777782,5.332299999997019],[0.23645833333333333,0,5.348799999997013],[0.21739583333333337,-0.03740740740740749,5.365499999999997],[0.21166666666666673,-0.04888888888888885,5.382100000001486],[0.1951041666666666,-0.03425925925925926,5.401700000002975],[0.1951041666666666,-0.03425925925925926,5.415499999999994],[0.17854166666666677,-0.01962962962962967,5.432100000001483],[0.1851041666666667,-0.005185185185185101,5.448799999997021],[0.16541666666666663,-0.009444444444444486,5.465499999999992],[0.1681250000000001,-0.03148148148148148,5.485500000000002],[0.16927083333333334,-0.04759259259259268,5.501700000002984],[0.15927083333333342,-0.02111111111111107,5.5153999999985075],[0.1382291666666667,0.006296296296296254,5.532100000001492],[0.1321875000000001,-0.00851851851851856,5.548799999997016],[0.11281249999999995,-0.0492592592592593,5.567600000001491],[0.11791666666666671,-0.04407407407407399,5.5822000000029846],[0.1525000000000001,-0.004814814814814857,5.6026000000014875],[0.13916666666666658,0.01314814814814819,5.620299999997016],[0.14229166666666657,0.03166666666666671,5.63489999999851],[0.14166666666666666,0.01518518518518527,5.6488999999985055],[0.14520833333333344,-0.005370370370370328,5.665700000002971],[0.18645833333333334,-0.018518518518518517,5.685600000001486],[0.2117708333333333,-0.023148148148148147,5.7013999999985145],[0.228125,0.008703703703703788,5.715600000001487],[0.24447916666666672,0.04055555555555551,5.737799999997023],[0.2415625000000001,0.054259259259259174,5.752299999997021],[0.2178124999999999,0.051666666666666625,5.768399999998508],[0.2146874999999999,0.01185185185185181,5.782100000001492],[0.20864583333333328,-0.03981481481481482,5.804600000001486],[0.20499999999999996,-0.0301851851851851,5.819000000000003],[0.17927083333333324,0.019999999999999917,5.834299999997015],[0.13875000000000004,0.03222222222222218,5.848799999997013],[0.13770833333333338,-0.003703703703703704,5.865399999998502],[0.12427083333333329,-0.018888888888888972,5.882100000001486],[0.12427083333333329,-0.018888888888888972,5.898799999997024],[0.1256249999999999,-0.008888888888888804,5.915399999998513],[0.13875000000000004,0.004074074074074159,5.932100000001483],[0.13875000000000004,0.004074074074074159,5.948799999997021],[0.10052083333333334,-0.03611111111111111,5.96539999999851],[0.08489583333333334,-0.024629629629629547,5.982100000001495],[0.06927083333333334,-0.01314814814814819,6.002799999997023],[0.07083333333333333,-0.00722222222222218,6.01870000000298],[0.06906249999999996,-0.08037037037037033,6.035499999999999],[0.10260416666666666,-0.0801851851851852,6.053100000001493],[0.09645833333333324,-0.04296296296296305,6.069100000001484],[0.10750000000000005,-0.005000000000000084,6.082399999998501],[0.09947916666666666,0.02444444444444453,6.105000000000004],[0.09947916666666666,0.02444444444444453,6.115799999997023],[0.09541666666666657,-0.02166666666666675,6.132999999999996],[0.09541666666666657,-0.02166666666666675,6.1488999999985055],[0.1271874999999999,-0.019259259259259216,6.168399999998513],[0.08510416666666672,-0.0294444444444444,6.183899999998502],[0.07916666666666666,0.008888888888888804,6.203100000001484],[0.044062499999999956,0.01777777777777782,6.218799999997017],[0.0609375,0.015000000000000043,6.234399999998502],[0.0609375,0.015000000000000043,6.250799999997014],[0.04739583333333333,-0.008333333333333333,6.265600000001484],[0.06489583333333329,0.02370370370370362,6.282299999997022],[0.07395833333333333,0.0485185185185186,6.301700000002981],[0.07395833333333333,0.0485185185185186,6.315600000001481],[0.08552083333333324,0.049629629629629544,6.332299999997019],[0.06072916666666662,0.11074074074074065,6.348899999998508],[0.046875,0.15481481481481485,6.367899999998514],[0.046875,0.15481481481481485,6.382200000002982],[0.12010416666666662,0.19277777777777783,6.399100000001482],[0.12010416666666662,0.19277777777777783,6.417200000002978],[0.1462500000000001,0.1587037037037038,6.432200000002979],[0.18385416666666668,0.12166666666666676,6.448799999997021],[0.19375,0.17074074074074083,6.467899999998508],[0.18895833333333342,0.13407407407407404,6.482100000001495],[0.18895833333333342,0.13407407407407404,6.498999999999995],[0.1724999999999999,0.072037037037037,6.5153999999985075],[0.15291666666666662,0.001851851851851852,6.532100000001492],[0.13666666666666671,-0.027037037037037078,6.548799999997016],[0.1466666666666666,-0.06277777777777774,6.566600000001486],[0.1568749999999999,-0.12111111111111107,6.586700000002978],[0.1568749999999999,-0.12111111111111107,6.599000000000004],[0.15125000000000005,-0.16166666666666668,6.615499999999997],[0.15125000000000005,-0.16166666666666668,6.632100000001486],[0.11947916666666672,-0.12185185185185188,6.649100000001482],[0.11875,-0.07666666666666662,6.6732000000029785],[0.11875,-0.07666666666666662,6.682200000002979],[0.11520833333333323,-0.09833333333333337,6.698899999998503],[0.1336458333333333,-0.10759259259259263,6.717500000000001],[0.1336458333333333,-0.10759259259259263,6.735200000002976],[0.13958333333333334,-0.09648148148148153,6.7487999999970185],[0.13958333333333334,-0.09648148148148153,6.7653999999985075],[0.1443749999999999,0.004814814814814857,6.782200000002973],[0.1556250000000001,-0.022777777777777692,6.804100000001483],[0.1556250000000001,-0.022777777777777692,6.815399999998505],[0.14406249999999995,-0.020740740740740823,6.8322000000029846],[0.1556250000000001,0.018518518518518517,6.848899999998508],[0.13562500000000005,0.04092592592592597,6.869500000000002],[0.15968749999999995,-0.06814814814814817,6.884200000002977],[0.15458333333333343,-0.17092592592592595,6.900299999997017],[0.1650000000000001,-0.1766666666666666,6.915499999999994],[0.1632291666666667,-0.1618518518518518,6.935600000001486],[0.18333333333333332,-0.17962962962962964,6.950000000000003],[0.20770833333333344,-0.2794444444444444,6.965499999999992],[0.18395833333333325,-0.3229629629629629,6.982100000001495],[0.18302083333333338,-0.3961111111111111,7.001499999999993],[0.14114583333333333,-0.427962962962963,7.0153999999985075],[0.16302083333333334,-0.4087037037037037,7.032399999998503],[0.1642708333333334,-0.36500000000000005,7.048899999998511],[0.1625,-0.31203703703703706,7.065399999998505],[0.1502083333333334,-0.3066666666666667,7.082100000001489],[0.1368750000000001,-0.30703703703703705,7.102299999997015],[0.10708333333333328,-0.2918518518518519,7.117200000002981],[0.11729166666666657,-0.2801851851851852,7.132100000001486],[0.12000000000000005,-0.2627777777777777,7.148799999997024],[0.11229166666666662,-0.21777777777777782,7.167600000001485],[0.15927083333333342,-0.3066666666666667,7.182200000002979],[0.15927083333333342,-0.3066666666666667,7.198999999999998],[0.14104166666666676,-0.3581481481481481,7.218899999998513],[0.12166666666666662,-0.41462962962962957,7.233399999998511],[0.13875000000000004,-0.4177777777777778,7.248700000002984],[0.1428124999999999,-0.4925925925925926,7.26570000000298],[0.16739583333333338,-0.5025925925925926,7.282100000001492],[0.1990624999999999,-0.515925925925926,7.301100000001483],[0.17447916666666666,-0.47537037037037033,7.316799999997016],[0.1974999999999999,-0.4022222222222222,7.332100000001489],[0.20416666666666666,-0.37833333333333335,7.348799999997013],[0.15885416666666666,-0.2681481481481482,7.365499999999997],[0.1287499999999999,-0.29018518518518516,7.382100000001486],[0.1134375000000001,-0.25703703703703706,7.400700000002985],[0.09489583333333323,-0.23777777777777773,7.415399999998513],[0.07645833333333343,-0.17074074074074072,7.434299999997023],[0.03854166666666667,-0.16277777777777774,7.4491000000014935],[0.005312500000000024,-0.15166666666666662,7.465799999997017],[-0.010000000000000024,-0.18907407407407412,7.482100000001495],[-0.025312499999999953,-0.2264814814814815,7.502399999998502],[-0.004166666666666667,-0.2507407407407407,7.518500000000003],[0.02781250000000005,-0.2794444444444444,7.53370000000298],[0.06541666666666662,-0.22185185185185188,7.548799999997016],[0.10302083333333342,-0.16425925925925924,7.567600000001491]]","[0.00020000000297670795,0.03439999999851295,0.041100000001492276,0.06779999999702113,0.07470000000297716,0.10360000000149228,0.11050000000000182,0.11549999999999727,0.13379999999702363,0.17010000000148295,0.1767999999970158,0.2036000000014866,0.21089999999850306,0.2387999999970134,0.24620000000297182,0.26989999999850056,0.27649999999999864,0.30400000000000205,0.3114999999999952,0.3367000000029776,0.3434999999999917,0.37000000000000455,0.3771000000014908,0.4013999999985032,0.4092999999970175,0.43460000000148113,0.44229999999701874,0.4680000000000035,0.4852999999970109,0.5036000000014837,0.5106000000014888,0.5390000000000015,0.546299999997018,0.5713999999985049,0.5794999999999959,0.6033999999985014,0.6105000000000018,0.634600000001484,0.6421000000014914,0.6697999999970108,0.6765000000000043,0.7012999999970191,0.7087999999970123,0.7346000000014925,0.7420000000000044,0.7678999999985052,0.7754999999999939,0.7997000000029715,0.8067000000029765,0.8357999999970218,0.8422000000029755,0.8677999999970183,0.8746000000014931,0.903499999999994,0.9112999999970128,0.9344999999999999,0.9417000000029816,0.9701000000014943,0.9771000000014851,1.0012999999970162,1.0082999999970212,1.0367999999970152,1.0441000000014924,1.0679999999999978,1.074799999997012,1.1037000000029735,1.1113999999985111,1.1345000000000027,1.1632999999970224,1.170500000000004,1.1821000000014834,1.1988999999985026,1.2154999999999916,1.2349999999999994,1.2487999999970185,1.2672999999970216,1.2822999999970222,1.2991000000014878,1.3157000000029768,1.3340000000000032,1.3488999999985083,1.3656000000014927,1.384999999999991,1.4009999999999962,1.4158999999985014,1.4339999999999975,1.448999999999998,1.465600000001487,1.4821000000014948,1.4989999999999952,1.5173999999985028,1.5322999999970222,1.5491000000014878,1.5656000000014814,1.5854999999999961,1.5992999999970152,1.615700000002974,1.6321000000014863,1.6487999999970242,1.6654999999999944,1.6822000000029789,1.698999999999998,1.7154999999999916,1.733399999998511,1.7493999999985022,1.7680000000000007,1.7836000000014849,1.8007000000029763,1.8183999999985048,1.8323999999985006,1.8488999999985083,1.8682000000029717,1.8822999999970165,1.9026000000014847,1.91860000000149,1.9336000000014906,1.9488999999985026,1.9658999999985127,1.984499999999997,1.9991000000014907,2.017700000002975,2.0346000000014897,2.0489999999999924,2.065700000002977,2.0863999999985055,2.0993999999985107,2.115799999997023,2.132399999998512,2.154299999997022,2.1687000000029713,2.183700000002972,2.202399999998505,2.2158999999985127,2.2346000000014925,2.2502000000029767,2.265500000000003,2.282200000002973,2.3001000000014926,2.3157999999970116,2.3322000000029846,2.3488999999985083,2.3667000000029788,2.3822000000029817,2.3988999999985055,2.41560000000149,2.432200000002979,2.448999999999998,2.4654999999999916,2.482200000002976,2.501100000001486,2.515500000000003,2.532100000001492,2.5487999999970157,2.5667000000029816,2.5878999999985126,2.5990000000000038,2.6156000000014927,2.6363999999985026,2.648799999997024,2.66860000000149,2.682200000002979,2.6992000000029748,2.715600000001487,2.735299999997011,2.748899999998514,2.765500000000003,2.782200000002973,2.798899999998511,2.8156000000014814,2.832100000001489,2.850999999999999,2.870299999997016,2.8848999999985097,2.9014999999999986,2.9158999999985014,2.9322999999970136,2.9488999999985026,2.9680000000000035,2.9823999999985062,3.0012999999970162,3.018100000001482,3.032299999997022,3.0489999999999924,3.0657999999970116,3.08439999999851,3.0990000000000038,3.115700000002974,3.1322999999970165,3.148799999997024,3.1654999999999944,3.1821000000014834,3.1988999999985026,3.2153999999985103,3.2321000000014948,3.2487999999970185,3.267399999998503,3.2830000000000013,3.2989999999999924,3.317799999997021,3.3322999999970193,3.3488999999985083,3.3673999999985114,3.3822999999970165,3.402000000000001,3.41560000000149,3.432799999997016,3.4487999999970214,3.4653999999985103,3.48410000000149,3.4994999999999976,3.515600000001484,3.532299999997022,3.550600000001481,3.5656000000014814,3.5822000000029846,3.603499999999997,3.617299999997016,3.6322999999970165,3.6503999999985126,3.6702000000029784,3.683899999998502,3.6988999999985026,3.7154999999999916,3.7321000000014948,3.7512000000029815,3.766999999999996,3.782299999997022,3.802499999999995,3.817399999998514,3.8323999999985006,3.8512999999970106,3.868799999997023,3.8836000000014934,3.9044999999999987,3.918999999999997,3.9343999999985044,3.948999999999998,3.968999999999994,3.982200000002976,3.9989999999999952,4.017700000002975,4.032600000001494,4.048700000002981,4.067299999997019,4.084299999997015,4.101899999998508,4.118200000002972,4.135999999999996,4.150499999999994,4.165700000002971,4.182399999998509,4.201999999999998,4.2157000000029825,4.232299999997011,4.251100000001486,4.265799999997014,4.285499999999999,4.300700000002976,4.3155,4.332100000001489,4.348700000002978,4.365700000002974,4.382200000002982,4.401299999997022,4.415700000002971,4.432100000001483,4.450799999997017,4.474499999999992,4.482200000002976,4.4987999999970185,4.515500000000003,4.532100000001492,4.549200000002983,4.5655,4.589399999998506,4.598899999998508,4.615499999999997,4.632100000001486,4.648799999997024,4.665499999999994,4.682100000001483,4.698999999999998,4.715499999999992,4.732100000001495,4.7487999999970185,4.765500000000003,4.782100000001492,4.804100000001483,4.819000000000003,4.834000000000003,4.848899999998508,4.867299999997016,4.882200000002982,4.901700000002975,4.919200000002974,4.933299999997018,4.948899999998503,4.965600000001487,4.984499999999997,5.001100000001486,5.015799999997014,5.034499999999994,5.048999999999992,5.065799999997012,5.0822000000029846,5.098899999998508,5.115399999998502,5.132100000001486,5.148700000002975,5.1673999999985085,5.182299999997014,5.198999999999998,5.218700000002983,5.23410000000149,5.248899999998514,5.26889999999851,5.282299999997022,5.302200000002983,5.317200000002984,5.332299999997019,5.348799999997013,5.365499999999997,5.382100000001486,5.401700000002975,5.415499999999994,5.432100000001483,5.448799999997021,5.465499999999992,5.485500000000002,5.501700000002984,5.5153999999985075,5.532100000001492,5.548799999997016,5.567600000001491,5.5822000000029846,5.6026000000014875,5.620299999997016,5.63489999999851,5.6488999999985055,5.665700000002971,5.685600000001486,5.7013999999985145,5.715600000001487,5.737799999997023,5.752299999997021,5.768399999998508,5.782100000001492,5.804600000001486,5.819000000000003,5.834299999997015,5.848799999997013,5.865399999998502,5.882100000001486,5.898799999997024,5.915399999998513,5.932100000001483,5.948799999997021,5.96539999999851,5.982100000001495,6.002799999997023,6.01870000000298,6.035499999999999,6.053100000001493,6.069100000001484,6.082399999998501,6.105000000000004,6.115799999997023,6.132999999999996,6.1488999999985055,6.168399999998513,6.183899999998502,6.203100000001484,6.218799999997017,6.234399999998502,6.250799999997014,6.265600000001484,6.282299999997022,6.301700000002981,6.315600000001481,6.332299999997019,6.348899999998508,6.367899999998514,6.382200000002982,6.399100000001482,6.417200000002978,6.432200000002979,6.448799999997021,6.467899999998508,6.482100000001495,6.498999999999995,6.5153999999985075,6.532100000001492,6.548799999997016,6.566600000001486,6.586700000002978,6.599000000000004,6.615499999999997,6.632100000001486,6.649100000001482,6.6732000000029785,6.682200000002979,6.698899999998503,6.717500000000001,6.735200000002976,6.7487999999970185,6.7653999999985075,6.782200000002973,6.804100000001483,6.815399999998505,6.8322000000029846,6.848899999998508,6.869500000000002,6.884200000002977,6.900299999997017,6.915499999999994,6.935600000001486,6.950000000000003,6.965499999999992,6.982100000001495,7.001499999999993,7.0153999999985075,7.032399999998503,7.048899999998511,7.065399999998505,7.082100000001489,7.102299999997015,7.117200000002981,7.132100000001486,7.148799999997024,7.167600000001485,7.182200000002979,7.198999999999998,7.218899999998513,7.233399999998511,7.248700000002984,7.26570000000298,7.282100000001492,7.301100000001483,7.316799999997016,7.332100000001489,7.348799999997013,7.365499999999997,7.382100000001486,7.400700000002985,7.415399999998513,7.434299999997023,7.4491000000014935,7.465799999997017,7.482100000001495,7.502399999998502,7.518500000000003,7.53370000000298,7.548799999997016,7.567600000001491]","[1733293039449,1733293039477,1733293039483,1733293039510,1733293039517,1733293039546,1733293039553,1733293039558,1733293039576,1733293039612,1733293039619,1733293039646,1733293039653,1733293039681,1733293039688,1733293039712,1733293039719,1733293039746,1733293039754,1733293039779,1733293039786,1733293039812,1733293039819,1733293039844,1733293039852,1733293039877,1733293039885,1733293039910,1733293039928,1733293039946,1733293039953,1733293039981,1733293039989,1733293040014,1733293040022,1733293040046,1733293040053,1733293040077,1733293040084,1733293040112,1733293040119,1733293040144,1733293040151,1733293040177,1733293040184,1733293040210,1733293040218,1733293040242,1733293040249,1733293040278,1733293040284,1733293040310,1733293040317,1733293040346,1733293040353,1733293040377,1733293040384,1733293040412,1733293040419,1733293040444,1733293040451,1733293040479,1733293040486,1733293040510,1733293040517,1733293040546,1733293040554,1733293040577,1733293040606,1733293040613,1733293040624,1733293040641,1733293040658,1733293040677,1733293040691,1733293040710,1733293040725,1733293040741,1733293040758,1733293040776,1733293040791,1733293040808,1733293040827,1733293040843,1733293040858,1733293040876,1733293040891,1733293040908,1733293040924,1733293040941,1733293040960,1733293040975,1733293040991,1733293041008,1733293041028,1733293041042,1733293041058,1733293041074,1733293041091,1733293041108,1733293041124,1733293041141,1733293041158,1733293041176,1733293041192,1733293041210,1733293041226,1733293041243,1733293041261,1733293041275,1733293041291,1733293041310,1733293041325,1733293041345,1733293041361,1733293041376,1733293041391,1733293041408,1733293041427,1733293041441,1733293041460,1733293041477,1733293041491,1733293041508,1733293041529,1733293041542,1733293041558,1733293041575,1733293041597,1733293041611,1733293041626,1733293041645,1733293041658,1733293041677,1733293041692,1733293041708,1733293041724,1733293041742,1733293041758,1733293041774,1733293041791,1733293041809,1733293041824,1733293041841,1733293041858,1733293041874,1733293041891,1733293041908,1733293041924,1733293041943,1733293041958,1733293041974,1733293041991,1733293042009,1733293042030,1733293042041,1733293042058,1733293042079,1733293042091,1733293042111,1733293042125,1733293042141,1733293042158,1733293042177,1733293042191,1733293042208,1733293042225,1733293042241,1733293042258,1733293042274,1733293042293,1733293042313,1733293042327,1733293042344,1733293042358,1733293042375,1733293042391,1733293042410,1733293042425,1733293042444,1733293042460,1733293042475,1733293042491,1733293042508,1733293042527,1733293042541,1733293042558,1733293042575,1733293042591,1733293042608,1733293042624,1733293042641,1733293042658,1733293042674,1733293042691,1733293042710,1733293042725,1733293042741,1733293042760,1733293042775,1733293042791,1733293042810,1733293042825,1733293042844,1733293042858,1733293042875,1733293042891,1733293042908,1733293042926,1733293042942,1733293042958,1733293042975,1733293042993,1733293043008,1733293043025,1733293043046,1733293043060,1733293043075,1733293043093,1733293043112,1733293043126,1733293043141,1733293043158,1733293043174,1733293043193,1733293043209,1733293043225,1733293043245,1733293043260,1733293043275,1733293043294,1733293043311,1733293043326,1733293043347,1733293043361,1733293043377,1733293043391,1733293043411,1733293043424,1733293043441,1733293043460,1733293043475,1733293043491,1733293043510,1733293043527,1733293043544,1733293043560,1733293043578,1733293043593,1733293043608,1733293043625,1733293043644,1733293043658,1733293043675,1733293043693,1733293043708,1733293043728,1733293043743,1733293043758,1733293043774,1733293043791,1733293043808,1733293043824,1733293043844,1733293043858,1733293043874,1733293043893,1733293043917,1733293043924,1733293043941,1733293043958,1733293043974,1733293043991,1733293044008,1733293044032,1733293044041,1733293044058,1733293044074,1733293044091,1733293044108,1733293044124,1733293044141,1733293044158,1733293044174,1733293044191,1733293044208,1733293044224,1733293044246,1733293044261,1733293044276,1733293044291,1733293044309,1733293044324,1733293044344,1733293044361,1733293044376,1733293044391,1733293044408,1733293044427,1733293044443,1733293044458,1733293044477,1733293044491,1733293044508,1733293044525,1733293044541,1733293044558,1733293044574,1733293044591,1733293044610,1733293044624,1733293044641,1733293044661,1733293044676,1733293044691,1733293044711,1733293044724,1733293044744,1733293044759,1733293044775,1733293044791,1733293044808,1733293044824,1733293044844,1733293044858,1733293044874,1733293044891,1733293044908,1733293044928,1733293044944,1733293044958,1733293044974,1733293044991,1733293045010,1733293045024,1733293045045,1733293045062,1733293045077,1733293045091,1733293045108,1733293045128,1733293045144,1733293045158,1733293045180,1733293045195,1733293045211,1733293045224,1733293045247,1733293045261,1733293045277,1733293045291,1733293045308,1733293045324,1733293045341,1733293045358,1733293045374,1733293045391,1733293045408,1733293045424,1733293045445,1733293045461,1733293045478,1733293045495,1733293045511,1733293045525,1733293045547,1733293045558,1733293045575,1733293045591,1733293045611,1733293045626,1733293045645,1733293045661,1733293045677,1733293045693,1733293045708,1733293045724,1733293045744,1733293045758,1733293045775,1733293045791,1733293045810,1733293045824,1733293045841,1733293045859,1733293045875,1733293045891,1733293045910,1733293045924,1733293045941,1733293045958,1733293045974,1733293045991,1733293046009,1733293046029,1733293046041,1733293046058,1733293046074,1733293046091,1733293046115,1733293046124,1733293046141,1733293046160,1733293046177,1733293046191,1733293046208,1733293046225,1733293046246,1733293046258,1733293046275,1733293046291,1733293046312,1733293046326,1733293046343,1733293046358,1733293046378,1733293046392,1733293046408,1733293046424,1733293046444,1733293046458,1733293046475,1733293046491,1733293046508,1733293046524,1733293046545,1733293046559,1733293046574,1733293046591,1733293046610,1733293046624,1733293046641,1733293046661,1733293046676,1733293046691,1733293046708,1733293046724,1733293046743,1733293046759,1733293046774,1733293046791,1733293046808,1733293046824,1733293046843,1733293046858,1733293046877,1733293046891,1733293046908,1733293046924,1733293046945,1733293046961,1733293046976,1733293046991,1733293047010]","[[1087.3,696],[1105.2,674.1],[1105.2,674.1],[1105.6,653],[1105.6,653],[1132.2,669.4],[1132.2,669.4],[1132.2,669.4],[1132.2,669.4],[1096.6,673.1],[1096.6,673.1],[1117.7,669],[1117.7,669],[1129.5,647.1],[1129.5,647.1],[1136.8,645.5],[1136.8,645.5],[1154.1,618.1],[1154.1,618.1],[1151.1,598.2],[1151.1,598.2],[1103.8,593.9],[1103.8,593.9],[1089.2,586],[1089.2,586],[1089.4,559.9],[1089.4,559.9],[1069.6,484.8],[1069.6,484.8],[1087.4,476.9],[1087.4,476.9],[1084.5,463.4],[1084.5,463.4],[1088.4,486.5],[1088.4,486.5],[1081.1,507.1],[1081.1,507.1],[1062.2,549.7],[1062.2,549.7],[1043.1,559.8],[1043.1,559.8],[1057.2,569.7],[1057.2,569.7],[1048.8,600.6],[1048.8,600.6],[1048.4,628.2],[1048.4,628.2],[1058.2,710.9],[1058.2,710.9],[1088,687.4],[1088,687.4],[1083.3,710.4],[1083.3,710.4],[1064.4,684.7],[1064.4,684.7],[1076.5,663.2],[1076.5,663.2],[1099,642],[1099,642],[1146.3,662.4],[1146.3,662.4],[1168.3,644],[1168.3,644],[1195.5,618.2],[1195.5,618.2],[1205.9,593.3],[1205.9,593.3],[1227,567.1],[1227,567.1],[1200.1,579],[1200.1,579],[1194.6,580.1],[1209.5,593.7],[1184.9,595.4],[1153.2,604.7],[1114.2,606.8],[1106,609.7],[1106,609.7],[1104.5,629.6],[1095.6,651.6],[1059.7,640.7],[1049.2,639.5],[1037.7,642.8],[1039.2,639.4],[1051.1,639],[1054.6,601.3],[1068,574.5],[1068,574.5],[1054,611.7],[1054,611.7],[1038.5,597.7],[1024.3,574],[1039.4,608.8],[1054.5,643.6],[1058.3,647.2],[1056.6,640.1],[1066.5,627.2],[1079.9,635.4],[1079,663.9],[1106,630.6],[1112.3,656.5],[1112.3,656.5],[1128,666.9],[1144,641.4],[1139.4,616.5],[1144.3,609.6],[1158.3,628.1],[1155.3,642.3],[1158.6,651.3],[1164.5,628.8],[1164.5,628.8],[1165.2,635.4],[1163,579.8],[1160.2,544.5],[1149.2,579.9],[1155,551.6],[1170.3,538.1],[1165.7,515.6],[1165.7,515.6],[1162.7,473.3],[1144.1,438.1],[1127.3,403.2],[1127.3,403.2],[1113.7,439],[1125.5,463.6],[1125.5,463.6],[1109.5,520.7],[1091.3,526.1],[1086.1,542.6],[1043,570.8],[1004.1,578.1],[987.7,619.7],[986.9,654.2],[998.2,683.1],[999.1,649.6],[957.2,664.5],[956,656.7],[938.8,614.2],[923,619.9],[935.6,607.7],[950.6,619.6],[946.9,627.1],[959,603],[959,603],[961.3,610],[945.6,627],[965,619.9],[971.5,603],[998.5,549.7],[1014.9,500.2],[1035.3,458.2],[1048.4,412.4],[1068,378.6],[1040.8,386.5],[1014,386.6],[1014,386.6],[1000.1,382.1],[984.4,399.8],[984.4,399.8],[968.7,417.5],[968.7,417.5],[963.6,465.2],[963.6,465.2],[930.7,541.8],[930.7,541.8],[913.9,577.8],[913.9,577.8],[918.5,603.8],[898.1,620.1],[898.1,620.1],[908.8,626.2],[844.9,643.2],[844.9,643.2],[768.2,645.7],[756.8,619.9],[744.8,602.7],[744.8,602.7],[742.3,583.5],[780.8,554.6],[801.7,553.5],[797.4,549.9],[794.9,557.3],[771.9,562.2],[829.1,557.6],[829.1,557.6],[922.2,539.5],[943.4,545.3],[979.1,533],[988.1,540],[987.5,526.2],[989.2,513.6],[989.2,513.6],[997.1,516.1],[1022.4,515.5],[1080.1,519],[1116.3,507.6],[1117.2,489.6],[1117.2,489.6],[1116.4,475],[1116.4,475],[1102.2,509.5],[1102.2,509.5],[1086.1,502.6],[1059.6,503.6],[1037.9,470.4],[1024.5,476.8],[1001.7,489.1],[958.9,460.7],[929.3,428.1],[928.2,454.2],[931.8,465.5],[934.9,437.2],[946,459.2],[952.8,475.6],[940.7,540.4],[926.8,526],[932.9,514.6],[946.9,523.7],[949.3,552.9],[937.9,537.3],[923.9,555.3],[923.9,555.3],[902.8,556.7],[906.4,567.8],[895.4,575.2],[891.5,554.5],[891.5,554.5],[906.3,559.3],[902.2,563],[896.9,569.6],[903.2,556.1],[895.8,551],[902.7,528.6],[906.6,517.1],[907,507],[933.1,499.9],[942.4,488],[922.8,503.8],[922.8,503.8],[924.6,491.6],[927.7,496.7],[923.1,504.5],[930.4,516],[927.6,521.8],[968.6,513],[952.4,506.6],[937.2,492.6],[941,492.8],[967.9,512.2],[1002.8,550.9],[1026.3,566.2],[1060.6,587.9],[1060.6,587.9],[1065.6,598.8],[1071.5,606],[1052.7,619.5],[1062.4,602.4],[1071.1,592.9],[1078,618.9],[1065.5,612.1],[1021.4,559.1],[988.7,528],[942.8,493.3],[930.6,472.6],[953,456.1],[939.8,451.3],[929.3,468.5],[921.1,476.8],[921.1,476.8],[935.5,458.5],[922.1,452.8],[918.5,484],[931.5,500.7],[954.6,511.9],[977.3,529.7],[977.3,529.7],[972.6,549.5],[972.6,549.5],[987.3,568.4],[997.4,554.8],[997.4,554.8],[1005.2,550.1],[1005.2,550.1],[1002.3,566.4],[1002.3,566.4],[1017.4,571.3],[1043.2,567.4],[1052.4,578],[1057,585.7],[1062,586.8],[1040.1,590.3],[1028.8,595.8],[1017.5,582.5],[1011.5,625],[978.5,596],[988,574.7],[975.7,562],[963.4,549.3],[957.9,523.3],[966.7,536.9],[966.7,536.9],[981.1,536.7],[981.1,536.7],[1002,545.5],[1027,567.5],[1055.5,523.4],[1106,530.8],[1101,532.6],[1125.5,540.6],[1150,548.6],[1172.3,554.2],[1172.3,554.2],[1180.3,520.2],[1201.1,502],[1224.2,492.2],[1224.2,492.2],[1224,515.2],[1212.5,540.6],[1184.6,549.6],[1184.6,549.6],[1187,540],[1168.7,519.8],[1163.2,513.6],[1147.3,521.5],[1147.3,521.5],[1131.4,529.4],[1137.7,537.2],[1118.8,534.9],[1121.4,523],[1122.5,514.3],[1112.9,528.6],[1092.7,543.4],[1086.9,535.4],[1068.3,513.4],[1073.2,516.2],[1106.4,537.4],[1093.6,547.1],[1096.6,557.1],[1096,548.2],[1099.4,537.1],[1139,530],[1163.3,527.5],[1179,544.7],[1194.7,561.9],[1191.9,569.3],[1169.1,567.9],[1166.1,546.4],[1160.3,518.5],[1156.8,523.7],[1132.1,550.8],[1093.2,557.4],[1092.2,538],[1079.3,529.8],[1079.3,529.8],[1080.6,535.2],[1093.2,542.2],[1093.2,542.2],[1056.5,520.5],[1041.5,526.7],[1026.5,532.9],[1028,536.1],[1026.3,496.6],[1058.5,496.7],[1052.6,516.8],[1063.2,537.3],[1055.5,553.2],[1055.5,553.2],[1051.6,528.3],[1051.6,528.3],[1082.1,529.6],[1041.7,524.1],[1036,544.8],[1002.3,549.6],[1018.5,548.1],[1018.5,548.1],[1005.5,535.5],[1022.3,552.8],[1031,566.2],[1031,566.2],[1042.1,566.8],[1018.3,599.8],[1005,623.6],[1005,623.6],[1075.3,644.1],[1075.3,644.1],[1100.4,625.7],[1136.5,605.7],[1146,632.2],[1141.4,612.4],[1141.4,612.4],[1125.6,578.9],[1106.8,541],[1091.2,525.4],[1100.8,506.1],[1110.6,474.6],[1110.6,474.6],[1105.2,452.7],[1105.2,452.7],[1074.7,474.2],[1074,498.6],[1074,498.6],[1070.6,486.9],[1088.3,481.9],[1088.3,481.9],[1094,487.9],[1094,487.9],[1098.6,542.6],[1109.4,527.7],[1109.4,527.7],[1098.3,528.8],[1109.4,550],[1090.2,562.1],[1113.3,503.2],[1108.4,447.7],[1118.4,444.6],[1116.7,452.6],[1136,443],[1159.4,389.1],[1136.6,365.6],[1135.7,326.1],[1095.5,308.9],[1116.5,319.3],[1117.7,342.9],[1116,371.5],[1104.2,374.4],[1091.4,374.2],[1062.8,382.4],[1072.6,388.7],[1075.2,398.1],[1067.8,422.4],[1112.9,374.4],[1112.9,374.4],[1095.4,346.6],[1076.8,316.1],[1093.2,314.4],[1097.1,274],[1120.7,268.6],[1151.1,261.4],[1127.5,283.3],[1149.6,322.8],[1156,335.7],[1112.5,395.2],[1083.6,383.3],[1068.9,401.2],[1051.1,411.6],[1033.4,447.8],[997,452.1],[965.1,458.1],[950.4,437.9],[935.7,417.7],[956,404.6],[986.7,389.1],[1022.8,420.2],[1058.9,451.3]]","[0,0.151169218]","[0.151169218,0.151169218]","[-0.151169218,0]","[-0.151169218,-0.151169218]","[0,0]","[0.151169218,0]","[0,-0.151169218]","[0.151169218,-0.151169218]",0,0,0,0,1,4,Smartphone,11,5,13,9
