inst1_resp.keys,inst1_resp.rt,calibrationMouse.x,calibrationMouse.y,calibrationMouse.leftButton,calibrationMouse.midButton,calibrationMouse.rightButton,calibrationClick.x,calibrationClick.y,calibrationClick.leftButton,calibrationClick.midButton,calibrationClick.rightButton,calibrationClick.clicked_name,trialsc.thisRepN,trialsc.thisTrialN,trialsc.thisN,trialsc.thisIndex,trialsc.ran,calibration_x,calibration_y,participant,session,date,expName,psychopyVersion,OS,frameRate,ScreenRes_pixels,Camera_pixels,mouse_2.x,mouse_2.y,mouse_2.leftButton,mouse_2.midButton,mouse_2.rightButton,mouse_2.time,mouse_2.clicked_name,mouse.x,mouse.y,mouse.leftButton,mouse.midButton,mouse.rightButton,mouse.time,mouse.clicked_name,Choice,Trial,TrialDuration,MOUSE_GAZE,ET_GAZE,ET_GAZE_x_T,time,unixTime,ET_GAZE_NF,Loc_Option1_label,Loc_Option2_label,Loc_Cost_label,Loc_Qual_label,Loc_Option1_cost,Loc_Option2_cost,Loc_Option1_quality,Loc_Option2_quality,trials.thisRepN,trials.thisTrialN,trials.thisN,trials.thisIndex,trials.ran,Block,Device,cost1,qual1,cost2,qual2
space,1.5144,-0.130208333,-0.211111111,1,0,0,-0.672916667,-0.674074074,1,0,0,calibration_square,0,0,0,0,1,-0.67,-0.67,41,001,2024-12-04_12h14.34.371,Attention_exp_legacy,2023.1.0,Win32,59.88023952,,,,,,,,,,,,,,,,,,,,,,,,,,,,,,,,,,,,,,,,,,,,
,,,,,,,0.659375,0.661111111,1,0,0,,0,1,1,19,1,0.67,0.67,41,001,2024-12-04_12h14.34.371,Attention_exp_legacy,2023.1.0,Win32,59.88023952,,,,,,,,,,,,,,,,,,,,,,,,,,,,,,,,,,,,,,,,,,,,
,,,,,,,0.323958333,0.67962963,1,0,0,calibration_square,0,2,2,18,1,0.33,0.67,41,001,2024-12-04_12h14.34.371,Attention_exp_legacy,2023.1.0,Win32,59.88023952,,,,,,,,,,,,,,,,,,,,,,,,,,,,,,,,,,,,,,,,,,,,
,,,,,,,-0.002083333,-0.664814815,1,0,0,calibration_square,0,3,3,9,1,0,-0.67,41,001,2024-12-04_12h14.34.371,Attention_exp_legacy,2023.1.0,Win32,59.88023952,,,,,,,,,,,,,,,,,,,,,,,,,,,,,,,,,,,,,,,,,,,,
,,,,,,,0.33125,-0.338888889,1,0,0,calibration_square,0,4,4,15,1,0.33,-0.33,41,001,2024-12-04_12h14.34.371,Attention_exp_legacy,2023.1.0,Win32,59.88023952,,,,,,,,,,,,,,,,,,,,,,,,,,,,,,,,,,,,,,,,,,,,
,,,,,,,-0.010416667,0.672222222,1,0,0,,0,5,5,13,1,0,0.67,41,001,2024-12-04_12h14.34.371,Attention_exp_legacy,2023.1.0,Win32,59.88023952,,,,,,,,,,,,,,,,,,,,,,,,,,,,,,,,,,,,,,,,,,,,
,,,,,,,-0.669791667,0.309259259,1,0,0,,0,6,6,3,1,-0.67,0.33,41,001,2024-12-04_12h14.34.371,Attention_exp_legacy,2023.1.0,Win32,59.88023952,,,,,,,,,,,,,,,,,,,,,,,,,,,,,,,,,,,,,,,,,,,,
,,,,,,,0.3375,0.32962963,1,0,0,calibration_square,0,7,7,17,1,0.33,0.33,41,001,2024-12-04_12h14.34.371,Attention_exp_legacy,2023.1.0,Win32,59.88023952,,,,,,,,,,,,,,,,,,,,,,,,,,,,,,,,,,,,,,,,,,,,
,,,,,,,-0.002083333,-0.324074074,1,0,0,calibration_square,0,8,8,10,1,0,-0.33,41,001,2024-12-04_12h14.34.371,Attention_exp_legacy,2023.1.0,Win32,59.88023952,,,,,,,,,,,,,,,,,,,,,,,,,,,,,,,,,,,,,,,,,,,,
,,,,,,,-0.329166667,0.024074074,1,0,0,,0,9,9,6,1,-0.33,0,41,001,2024-12-04_12h14.34.371,Attention_exp_legacy,2023.1.0,Win32,59.88023952,,,,,,,,,,,,,,,,,,,,,,,,,,,,,,,,,,,,,,,,,,,,
,,,,,,,0.001041667,0.007407407,1,0,0,calibration_square,0,10,10,11,1,0,0,41,001,2024-12-04_12h14.34.371,Attention_exp_legacy,2023.1.0,Win32,59.88023952,,,,,,,,,,,,,,,,,,,,,,,,,,,,,,,,,,,,,,,,,,,,
,,,,,,,0.336458333,-0.67037037,1,0,0,calibration_square,0,11,11,14,1,0.33,-0.67,41,001,2024-12-04_12h14.34.371,Attention_exp_legacy,2023.1.0,Win32,59.88023952,,,,,,,,,,,,,,,,,,,,,,,,,,,,,,,,,,,,,,,,,,,,
,,,,,,,-0.009375,0.32962963,1,0,0,calibration_square,0,12,12,12,1,0,0.33,41,001,2024-12-04_12h14.34.371,Attention_exp_legacy,2023.1.0,Win32,59.88023952,,,,,,,,,,,,,,,,,,,,,,,,,,,,,,,,,,,,,,,,,,,,
,,,,,,,-0.671875,0.003703704,1,0,0,calibration_square,0,13,13,2,1,-0.67,0,41,001,2024-12-04_12h14.34.371,Attention_exp_legacy,2023.1.0,Win32,59.88023952,,,,,,,,,,,,,,,,,,,,,,,,,,,,,,,,,,,,,,,,,,,,
,,,,,,,-0.330208333,-0.690740741,1,0,0,,0,14,14,4,1,-0.33,-0.67,41,001,2024-12-04_12h14.34.371,Attention_exp_legacy,2023.1.0,Win32,59.88023952,,,,,,,,,,,,,,,,,,,,,,,,,,,,,,,,,,,,,,,,,,,,
,,,,,,,-0.326041667,-0.338888889,1,0,0,calibration_square,0,15,15,5,1,-0.33,-0.33,41,001,2024-12-04_12h14.34.371,Attention_exp_legacy,2023.1.0,Win32,59.88023952,,,,,,,,,,,,,,,,,,,,,,,,,,,,,,,,,,,,,,,,,,,,
,,,,,,,0.327083333,0.001851852,1,0,0,calibration_square,0,16,16,16,1,0.33,0,41,001,2024-12-04_12h14.34.371,Attention_exp_legacy,2023.1.0,Win32,59.88023952,,,,,,,,,,,,,,,,,,,,,,,,,,,,,,,,,,,,,,,,,,,,
,,,,,,,-0.33125,0.696296296,1,0,0,,0,17,17,8,1,-0.33,0.67,41,001,2024-12-04_12h14.34.371,Attention_exp_legacy,2023.1.0,Win32,59.88023952,,,,,,,,,,,,,,,,,,,,,,,,,,,,,,,,,,,,,,,,,,,,
,,,,,,,-0.675,-0.316666667,1,0,0,,0,18,18,1,1,-0.67,-0.33,41,001,2024-12-04_12h14.34.371,Attention_exp_legacy,2023.1.0,Win32,59.88023952,,,,,,,,,,,,,,,,,,,,,,,,,,,,,,,,,,,,,,,,,,,,
,,,,,,,0.66875,-0.662962963,1,0,0,calibration_square,0,19,19,20,1,0.67,-0.67,41,001,2024-12-04_12h14.34.371,Attention_exp_legacy,2023.1.0,Win32,59.88023952,,,,,,,,,,,,,,,,,,,,,,,,,,,,,,,,,,,,,,,,,,,,
,,,,,,,-0.334375,0.348148148,1,0,0,,0,20,20,7,1,-0.33,0.33,41,001,2024-12-04_12h14.34.371,Attention_exp_legacy,2023.1.0,Win32,59.88023952,,,,,,,,,,,,,,,,,,,,,,,,,,,,,,,,,,,,,,,,,,,,
,,,,,,,,,,,,,,,,,,,,41,001,2024-12-04_12h14.34.371,Attention_exp_legacy,2023.1.0,Win32,59.88023952,"[1920,1080]","[640,480]",[0.0020833333333333333],[-0.5148148148148148],[1],[0],[0],[1.0807999999970193],"[""StartButton""]",[-0.003125],[0.5092592592592593],[1],[0],[0],[3.304000000000002],"[""Option1_label""]",Option1_label,1,4.3319,"[[-0.08020833333333334,0.05925925925925926],[-0.08020833333333334,0.05925925925925926],[-0.08020833333333334,0.05925925925925926],[-0.08020833333333334,0.05740740740740741],[-0.08020833333333334,0.05740740740740741],[-0.08020833333333334,0.05555555555555555],[-0.08020833333333334,0.05555555555555555],[-0.08020833333333334,0.05555555555555555],[-0.08020833333333334,0.05555555555555555],[-0.08020833333333334,0.05555555555555555],[-0.08020833333333334,0.05555555555555555],[-0.08020833333333334,0.05555555555555555],[-0.08020833333333334,0.05555555555555555],[-0.08020833333333334,0.05555555555555555],[-0.08020833333333334,0.05555555555555555],[-0.08020833333333334,0.05555555555555555],[-0.08020833333333334,0.05555555555555555],[-0.08020833333333334,0.05555555555555555],[-0.08020833333333334,0.05555555555555555],[-0.08020833333333334,0.05555555555555555],[-0.08020833333333334,0.05555555555555555],[-0.08020833333333334,0.05555555555555555],[-0.08020833333333334,0.053703703703703705],[-0.08020833333333334,0.053703703703703705],[-0.08020833333333334,0.053703703703703705],[-0.08020833333333334,0.053703703703703705],[-0.08020833333333334,0.053703703703703705],[-0.07916666666666666,0.05185185185185185],[-0.07604166666666666,0.05185185185185185],[-0.07291666666666667,0.05185185185185185],[-0.06875,0.05185185185185185],[-0.06354166666666666,0.05185185185185185],[-0.05520833333333333,0.05185185185185185],[-0.041666666666666664,0.05185185185185185],[-0.008333333333333333,0.05185185185185185],[0.020833333333333332,0.05185185185185185],[0.059375,0.05185185185185185],[0.11354166666666667,0.05185185185185185],[0.15625,0.05185185185185185],[0.19166666666666668,0.05185185185185185],[0.21770833333333334,0.05185185185185185],[0.23229166666666667,0.04814814814814815],[0.24270833333333333,0.044444444444444446],[0.25,0.037037037037037035],[0.2520833333333333,0.03148148148148148],[0.2520833333333333,0.02962962962962963],[0.2520833333333333,0.016666666666666666],[0.2520833333333333,0.016666666666666666],[0.2520833333333333,0.016666666666666666],[0.2520833333333333,0.016666666666666666],[0.2520833333333333,0.016666666666666666],[0.2520833333333333,0.016666666666666666],[0.2520833333333333,0.016666666666666666],[0.2520833333333333,0.016666666666666666],[0.2520833333333333,0.016666666666666666],[0.2520833333333333,0.016666666666666666],[0.2520833333333333,0.016666666666666666],[0.2520833333333333,0.016666666666666666],[0.2520833333333333,0.016666666666666666],[0.2520833333333333,0.016666666666666666],[0.2520833333333333,0.016666666666666666],[0.2520833333333333,0.016666666666666666],[0.2520833333333333,0.016666666666666666],[0.2520833333333333,0.016666666666666666],[0.2520833333333333,0.016666666666666666],[0.2520833333333333,0.016666666666666666],[0.25416666666666665,0.018518518518518517],[0.25,0.025925925925925925],[0.25,0.020370370370370372],[0.25,0.018518518518518517],[0.25,0.018518518518518517],[0.25,0.018518518518518517],[0.24895833333333334,0.014814814814814815],[0.24791666666666667,0.012962962962962963],[0.246875,0.009259259259259259],[0.240625,0.001851851851851852],[0.234375,-0.007407407407407408],[0.22708333333333333,-0.022222222222222223],[0.21875,-0.03518518518518519],[0.20833333333333334,-0.05],[0.190625,-0.07407407407407407],[0.18229166666666666,-0.08888888888888889],[0.17604166666666668,-0.1],[0.17291666666666666,-0.10555555555555556],[0.16875,-0.11666666666666667],[0.165625,-0.1259259259259259],[0.1625,-0.13703703703703704],[0.16145833333333334,-0.15],[0.15833333333333333,-0.1648148148148148],[0.15729166666666666,-0.17962962962962964],[0.15625,-0.18888888888888888],[0.15520833333333334,-0.2074074074074074],[0.15520833333333334,-0.21851851851851853],[0.15520833333333334,-0.22407407407407406],[0.15520833333333334,-0.2388888888888889],[0.15520833333333334,-0.2518518518518518],[0.15520833333333334,-0.2611111111111111],[0.15520833333333334,-0.2722222222222222],[0.15520833333333334,-0.2851851851851852],[0.15520833333333334,-0.2962962962962963],[0.15729166666666666,-0.31851851851851853],[0.159375,-0.34074074074074073],[0.159375,-0.362962962962963],[0.159375,-0.39814814814814814],[0.1625,-0.4166666666666667],[0.1625,-0.42777777777777776],[0.16666666666666666,-0.45185185185185184],[0.171875,-0.4740740740740741],[0.17291666666666666,-0.48148148148148145],[0.175,-0.48333333333333334],[0.175,-0.48703703703703705],[0.17604166666666668,-0.4925925925925926],[0.18020833333333333,-0.5],[0.18333333333333332,-0.5],[0.18333333333333332,-0.5],[0.18333333333333332,-0.5],[0.18333333333333332,-0.5],[0.18333333333333332,-0.5],[0.18333333333333332,-0.5],[0.18333333333333332,-0.5],[0.18333333333333332,-0.5],[0.18333333333333332,-0.5],[0.18333333333333332,-0.5],[0.18333333333333332,-0.5],[0.18333333333333332,-0.5],[0.18333333333333332,-0.5],[0.18333333333333332,-0.5],[0.18333333333333332,-0.5],[0.18333333333333332,-0.5],[0.18333333333333332,-0.5],[0.18333333333333332,-0.5],[0.18333333333333332,-0.5],[0.18333333333333332,-0.5],[0.18541666666666667,-0.5018518518518519],[0.18541666666666667,-0.5018518518518519],[0.17916666666666667,-0.48703703703703705],[0.16770833333333332,-0.45185185185185184],[0.13541666666666666,-0.362962962962963],[0.1,-0.2574074074074074],[0.06354166666666666,-0.12222222222222222],[0.025,0.12777777777777777],[0.00625,0.2722222222222222],[-0.014583333333333334,0.4166666666666667],[-0.03854166666666667,0.5611111111111111],[-0.059375,0.6925925925925925],[-0.075,0.8074074074074075],[-0.08229166666666667,0.8833333333333333],[-0.08541666666666667,0.9481481481481482],[-0.08854166666666667,0.9740740740740741],[-0.08854166666666667,0.9740740740740741],[-0.08854166666666667,0.9740740740740741],[-0.08854166666666667,0.9740740740740741],[-0.08854166666666667,0.9740740740740741],[-0.08854166666666667,0.9740740740740741],[-0.08854166666666667,0.9740740740740741],[-0.08854166666666667,0.9740740740740741],[-0.08854166666666667,0.9740740740740741],[-0.08854166666666667,0.9740740740740741],[-0.08854166666666667,0.9740740740740741],[-0.08854166666666667,0.9740740740740741],[-0.08541666666666667,0.9722222222222222],[-0.08020833333333334,0.9518518518518518],[-0.06354166666666666,0.8777777777777778],[-0.053125,0.8388888888888889],[-0.026041666666666668,0.7425925925925926],[-0.016666666666666666,0.7185185185185186],[-0.007291666666666667,0.6814814814814815],[-0.005208333333333333,0.674074074074074],[-0.003125,0.662962962962963],[-0.003125,0.662962962962963],[-0.003125,0.662962962962963],[-0.003125,0.662962962962963],[-0.003125,0.662962962962963],[-0.003125,0.662962962962963],[-0.003125,0.6537037037037037],[-0.003125,0.6481481481481481],[-0.003125,0.6314814814814815],[-0.003125,0.6240740740740741],[-0.003125,0.6092592592592593],[-0.003125,0.6074074074074074],[-0.003125,0.6055555555555555],[-0.003125,0.6055555555555555],[-0.003125,0.6055555555555555],[-0.003125,0.6037037037037037],[-0.003125,0.5981481481481481],[-0.003125,0.5981481481481481],[-0.003125,0.5703703703703704],[-0.003125,0.5592592592592592],[-0.003125,0.5296296296296297],[-0.003125,0.5203703703703704],[-0.003125,0.5092592592592593],[-0.003125,0.5092592592592593],[-0.003125,0.5092592592592593],[-0.003125,0.5092592592592593],[-0.003125,0.5092592592592593],[-0.003125,0.5092592592592593],[-0.003125,0.5092592592592593],[-0.003125,0.5092592592592593],[-0.003125,0.5092592592592593],[-0.003125,0.5092592592592593],[-0.003125,0.5092592592592593],[-0.003125,0.5092592592592593],[-0.003125,0.5092592592592593],[-0.003125,0.5092592592592593],[-0.003125,0.5092592592592593],[-0.003125,0.5092592592592593],[-0.003125,0.5092592592592593],[-0.003125,0.5092592592592593],[-0.003125,0.5092592592592593],[-0.003125,0.5092592592592593],[-0.003125,0.5092592592592593],[-0.003125,0.5092592592592593],[-0.003125,0.5092592592592593],[-0.003125,0.5092592592592593],[-0.003125,0.5092592592592593],[-0.003125,0.5092592592592593],[-0.003125,0.5092592592592593],[-0.003125,0.5092592592592593],[-0.003125,0.5092592592592593],[-0.003125,0.5092592592592593],[-0.003125,0.5092592592592593],[-0.003125,0.5092592592592593],[-0.003125,0.5092592592592593],[-0.003125,0.5092592592592593],[-0.003125,0.5092592592592593],[-0.003125,0.5092592592592593],[-0.003125,0.5092592592592593],[-0.003125,0.5092592592592593],[-0.003125,0.5092592592592593],[-0.003125,0.5092592592592593],[-0.003125,0.5092592592592593],[-0.003125,0.5092592592592593],[-0.003125,0.5092592592592593],[-0.003125,0.5092592592592593],[-0.003125,0.5092592592592593],[-0.003125,0.5092592592592593],[-0.003125,0.5092592592592593],[-0.003125,0.5092592592592593],[-0.003125,0.5092592592592593],[-0.003125,0.5092592592592593],[-0.003125,0.5092592592592593],[-0.003125,0.5092592592592593],[-0.003125,0.5092592592592593],[-0.003125,0.5092592592592593],[-0.003125,0.5092592592592593],[-0.003125,0.5092592592592593],[-0.003125,0.5092592592592593],[-0.003125,0.5092592592592593],[-0.003125,0.5092592592592593],[-0.003125,0.5092592592592593],[-0.003125,0.5092592592592593],[-0.003125,0.5092592592592593],[-0.003125,0.5092592592592593],[-0.003125,0.5092592592592593],[-0.003125,0.5092592592592593]]","[[0.16145833333333334,-0.08537037037037042],[0.16145833333333334,-0.08537037037037042],[0.16145833333333334,-0.08537037037037042],[0.12979166666666658,-0.09648148148148153],[0.075,-0.13333333333333333],[0.00458333333333331,-0.17518518518518522],[-0.017916666666666713,-0.192037037037037],[-0.07270833333333329,-0.21796296296296294],[-0.1092708333333333,-0.27148148148148155],[-0.14583333333333334,-0.325],[-0.16604166666666664,-0.32037037037037036],[-0.11843750000000004,-0.3416666666666667],[-0.057500000000000044,-0.3653703703703704],[-0.0006250000000000236,-0.39000000000000007],[-0.0006250000000000236,-0.39000000000000007],[0.07489583333333343,-0.3857407407407408],[0.07489583333333343,-0.3857407407407408],[0.1396874999999999,-0.35111111111111115],[0.14697916666666658,-0.3798148148148149],[0.19583333333333333,-0.3416666666666667],[0.2428124999999999,-0.3205555555555556],[0.2428124999999999,-0.3205555555555556],[0.2693749999999999,-0.32333333333333336],[0.2693749999999999,-0.32333333333333336],[0.34406249999999994,-0.30833333333333335],[0.34406249999999994,-0.30833333333333335],[0.3476041666666667,-0.25388888888888894],[0.34270833333333334,-0.22555555555555556],[0.3095833333333334,-0.19648148148148153],[0.2698958333333332,-0.18277777777777776],[0.22302083333333325,-0.19240740740740736],[0.19645833333333323,-0.16740740740740737],[0.17177083333333343,-0.182962962962963],[0.13895833333333343,-0.17999999999999997],[0.14166666666666666,-0.15611111111111114],[0.05479166666666669,-0.17092592592592595],[0.024583333333333356,-0.17333333333333337],[-0.02666666666666669,-0.1581481481481481],[-0.06270833333333338,-0.1633333333333333],[-0.06499999999999997,-0.1714814814814815],[-0.05687500000000002,-0.16111111111111112],[-0.016666666666666666,-0.14203703703703702],[0.017604166666666643,-0.13203703703703706],[0.052187500000000026,-0.12074074074074072],[0.0453125,-0.09518518518518514],[0.08927083333333338,-0.08703703703703704],[0.10760416666666663,-0.0772222222222222],[0.10760416666666663,-0.0772222222222222],[0.15895833333333323,-0.04000000000000004],[0.18114583333333342,-0.022222222222222223],[0.22947916666666662,0.021296296296296296],[0.2853125000000001,0.03925925925925934],[0.23552083333333323,0.06351851851851843],[0.23552083333333323,0.06351851851851843],[0.22312500000000005,0.08259259259259263],[0.20104166666666667,0.08296296296296288],[0.18197916666666672,0.07222222222222222],[0.15666666666666676,0.07314814814814814],[0.13135416666666658,0.07407407407407407],[0.05416666666666667,0.07703703703703708],[0.00614583333333331,0.09944444444444453],[-0.0907291666666667,0.06277777777777774],[-0.18708333333333335,0.05259259259259255],[-0.23822916666666671,0.06629629629629621],[-0.3226041666666667,0.08092592592592601],[-0.3226041666666667,0.08092592592592601],[-0.42156250000000006,0.1037037037037037],[-0.4276041666666667,0.04055555555555551],[-0.4336458333333333,-0.022592592592592678],[-0.45333333333333337,-0.02166666666666675],[-0.42562500000000003,-0.03518518518518519],[-0.40520833333333334,-0.09500000000000001],[-0.3876041666666667,-0.08481481481481483],[-0.3189583333333334,-0.11407407407407412],[-0.2391666666666667,-0.13037037037037033],[-0.16354166666666667,-0.14240740740740737],[-0.09427083333333333,-0.17370370370370372],[-0.05604166666666662,-0.10759259259259263],[-0.03760416666666669,-0.05462962962962963],[-0.016979166666666618,-0.06833333333333329],[-0.00614583333333331,-0.06259259259259262],[0.04635416666666667,-0.022037037037036994],[0.09562499999999995,0.006851851851851936],[0.10041666666666677,0.04537037037037037],[0.10041666666666677,0.04537037037037037],[0.09104166666666676,0.04685185185185177],[0.0359375,0.056666666666666705],[0.04750000000000002,0.061666666666666585],[0.058124999999999954,0.062407407407407495],[0.1146874999999999,0.06277777777777774],[0.18270833333333342,0.06574074074074074],[0.22947916666666662,0.08055555555555556],[0.24187500000000003,0.10685185185185193],[0.28020833333333334,0.1235185185185186],[0.29541666666666655,0.15407407407407417],[0.32302083333333326,0.16814814814814807],[0.43739583333333343,0.15925925925925927],[0.471875,0.18944444444444436],[0.47843749999999996,0.1962962962962963],[0.42999999999999994,0.22888888888888892],[0.3818749999999999,0.3025925925925925],[0.3788541666666667,0.3205555555555556],[0.38260416666666663,0.3755555555555555],[0.3412499999999999,0.3877777777777777],[0.4939583333333334,0.34037037037037027],[0.5176041666666668,0.2933333333333333],[0.5176041666666668,0.2933333333333333],[0.5148958333333333,0.35907407407407405],[0.47072916666666675,0.3653703703703703],[0.4136458333333332,0.3427777777777778],[0.43125,0.4074074074074074],[0.37479166666666663,0.42388888888888887],[0.3380208333333333,0.48203703703703693],[0.3380208333333333,0.48203703703703693],[0.3167708333333332,0.4537037037037037],[0.29791666666666666,0.45629629629629626],[0.10104166666666667,0.5079629629629628],[0.0453125,0.5864814814814816],[-0.02510416666666669,0.5668518518518519],[-0.02510416666666669,0.5668518518518519],[0.008645833333333287,0.6077777777777779],[-0.00458333333333331,0.6496296296296296],[-0.05010416666666669,0.602037037037037],[0.03447916666666669,0.5498148148148148],[0.006458333333333381,0.4787037037037037],[-0.027291666666666714,0.4777777777777778],[0.016145833333333335,0.46574074074074073],[0.04635416666666667,0.44314814814814807],[0.05260416666666667,0.38685185185185184],[0.060104166666666715,0.3357407407407407],[0.044270833333333336,0.2661111111111112],[0.044270833333333336,0.2661111111111112],[0.1359375,0.22166666666666676],[0.19822916666666662,0.20111111111111116],[0.19822916666666662,0.20111111111111116],[0.1728125000000001,0.21740740740740735],[0.1728125000000001,0.21740740740740735],[0.23802083333333332,0.2264814814814814],[0.23802083333333332,0.2264814814814814],[0.2646874999999999,0.1824074074074074],[0.2263541666666666,0.2170370370370371],[0.20604166666666662,0.24981481481481477],[0.22666666666666657,0.3],[0.22666666666666657,0.3],[0.21677083333333325,0.24870370370370362],[0.2209374999999999,0.2322222222222222],[0.16177083333333328,0.2322222222222222],[0.10062499999999991,0.2449999999999999],[0.10812499999999996,0.16314814814814818],[0.10812499999999996,0.16314814814814818],[0.10385416666666672,0.09018518518518527],[0.10385416666666672,0.09018518518518527],[0.10385416666666672,0.09018518518518527],[0.10583333333333324,0.03555555555555564],[0.10583333333333324,0.03555555555555564],[0.10583333333333324,0.03555555555555564],[0.1375,-0.029259259259259176],[0.1375,-0.029259259259259176],[0.13479166666666675,-0.1588888888888889],[0.13479166666666675,-0.1588888888888889],[0.07718749999999991,-0.20759259259259263],[0.07718749999999991,-0.20759259259259263],[-0.00635416666666669,-0.18129629629629626],[-0.00635416666666669,-0.18129629629629626],[-0.07364583333333338,-0.2088888888888889],[-0.07364583333333338,-0.2088888888888889],[-0.1203125,-0.30037037037037034],[-0.1203125,-0.30037037037037034],[-0.16416666666666668,-0.4212962962962963],[-0.16416666666666668,-0.4212962962962963],[-0.23687499999999997,-0.46518518518518515],[-0.23687499999999997,-0.46518518518518515],[-0.26687500000000003,-0.45870370370370367],[-0.26687500000000003,-0.45870370370370367],[-0.25416666666666665,-0.5444444444444444],[-0.25416666666666665,-0.5444444444444444],[-0.275,-0.6392592592592592],[-0.275,-0.6392592592592592],[-0.24770833333333328,-0.595925925925926],[-0.24770833333333328,-0.595925925925926],[-0.17458333333333337,-0.6288888888888889],[-0.17458333333333337,-0.6288888888888889],[-0.08572916666666662,-0.6735185185185185],[-0.08572916666666662,-0.6735185185185185],[-0.028958333333333287,-0.7412962962962963],[-0.028958333333333287,-0.7412962962962963],[0.05291666666666662,-0.700925925925926],[0.05291666666666662,-0.700925925925926],[0.12052083333333338,-0.6955555555555556],[0.12052083333333338,-0.6955555555555556],[0.17291666666666666,-0.6853703703703704],[0.17291666666666666,-0.6853703703703704],[0.17291666666666666,-0.6853703703703704],[0.17291666666666666,-0.6853703703703704],[0.16864583333333344,-0.6964814814814815],[0.16864583333333344,-0.6964814814814815],[0.12781250000000005,-0.647962962962963],[0.12781250000000005,-0.647962962962963],[0.12781250000000005,-0.647962962962963],[0.06499999999999997,-0.5183333333333333],[0.06499999999999997,-0.5183333333333333],[0.011666666666666714,-0.46296296296296297],[0.011666666666666714,-0.46296296296296297],[-0.01229166666666662,-0.4485185185185185],[-0.01229166666666662,-0.4485185185185185],[-0.0046875,-0.42166666666666663],[-0.0046875,-0.42166666666666663],[-0.0007291666666667141,-0.3394444444444445],[-0.0007291666666667141,-0.3394444444444445],[-0.05458333333333331,-0.31870370370370377],[-0.05458333333333331,-0.31870370370370377],[-0.0829166666666667,-0.21388888888888888],[-0.0829166666666667,-0.21388888888888888],[-0.09916666666666671,-0.16925925925925922],[-0.09916666666666671,-0.16925925925925922],[-0.12468750000000005,-0.1],[-0.12468750000000005,-0.1],[-0.07947916666666661,-0.0485185185185186],[-0.07947916666666661,-0.0485185185185186],[-0.07947916666666661,-0.0485185185185186],[-0.050312499999999954,-0.06574074074074074],[-0.050312499999999954,-0.06574074074074074],[-0.015416666666666618,-0.06518518518518517],[-0.015416666666666618,-0.06518518518518517],[0.005312500000000024,-0.11166666666666669],[0.005312500000000024,-0.11166666666666669],[-0.016145833333333335,-0.1022222222222222],[-0.016145833333333335,-0.1022222222222222],[-0.006562499999999953,-0.041111111111111195],[-0.006562499999999953,-0.041111111111111195],[0.03989583333333328,0.011666666666666582],[0.03989583333333328,0.011666666666666582],[0.07937500000000004,-0.0007407407407406986],[0.07937500000000004,-0.0007407407407406986],[0.08177083333333333,-0.05],[0.08177083333333333,-0.05],[0.08833333333333329,-0.1374074074074074],[0.08833333333333329,-0.1374074074074074],[0.07739583333333329,-0.15499999999999997],[0.07739583333333329,-0.15499999999999997],[0.08697916666666666,-0.23277777777777775],[0.08697916666666666,-0.23277777777777775],[0.06458333333333334,-0.325],[0.06458333333333334,-0.325],[0.05614583333333331,-0.3183333333333333],[0.05614583333333331,-0.3183333333333333],[0.06802083333333328,-0.2785185185185185],[0.06802083333333328,-0.2785185185185185],[0.09052083333333343,-0.3368518518518518],[0.09052083333333343,-0.3368518518518518],[0.07156250000000004,-0.3359259259259259],[0.07156250000000004,-0.3359259259259259],[0.035520833333333356,-0.3787037037037037],[0.035520833333333356,-0.3787037037037037],[0.024270833333333287,-0.3225925925925926]]","[[0.16145833333333334,-0.08537037037037042,0.00020000000297670795],[0.16145833333333334,-0.08537037037037042,0.03830000000446887],[0.16145833333333334,-0.08537037037037042,0.04439999999850386],[0.12979166666666658,-0.09648148148148153,0.06339999999850932],[0.075,-0.13333333333333333,0.07780000000446563],[0.00458333333333331,-0.17518518518518522,0.09449999999999648],[-0.017916666666666713,-0.192037037037037,0.1109999999999971],[-0.07270833333333329,-0.21796296296296294,0.12770000000297443],[-0.1092708333333333,-0.27148148148148155,0.14430000000447052],[-0.14583333333333334,-0.325,0.16099999999999426],[-0.16604166666666664,-0.32037037037037036,0.1777000000029787],[-0.11843750000000004,-0.3416666666666667,0.19780000000447018],[-0.057500000000000044,-0.3653703703703704,0.21139999999850545],[-0.0006250000000000236,-0.39000000000000007,0.22770000000297586],[-0.0006250000000000236,-0.39000000000000007,0.2443999999985067],[0.07489583333333343,-0.3857407407407408,0.2609999999999957],[0.07489583333333343,-0.3857407407407408,0.2777000000029801],[0.1396874999999999,-0.35111111111111115,0.2944999999999993],[0.14697916666666658,-0.3798148148148149,0.31560000000148847],[0.19583333333333333,-0.3416666666666667,0.3323000000044658],[0.2428124999999999,-0.3205555555555556,0.3488999999985083],[0.2428124999999999,-0.3205555555555556,0.36110000000148545],[0.2693749999999999,-0.32333333333333336,0.38230000000447006],[0.2693749999999999,-0.32333333333333336,0.3943999999985053],[0.34406249999999994,-0.30833333333333335,0.4111000000014897],[0.34406249999999994,-0.30833333333333335,0.4277000000029787],[0.3476041666666667,-0.25388888888888894,0.4443000000044677],[0.34270833333333334,-0.22555555555555556,0.46349999999999625],[0.3095833333333334,-0.19648148148148153,0.47799999999999443],[0.2698958333333332,-0.18277777777777776,0.4962000000029789],[0.22302083333333325,-0.19240740740740736,0.5112000000029795],[0.19645833333333323,-0.16740740740740737,0.5296000000014871],[0.17177083333333343,-0.182962962962963,0.5444999999999993],[0.13895833333333343,-0.17999999999999997,0.5612000000029767],[0.14166666666666666,-0.15611111111111114,0.5778000000044656],[0.05479166666666669,-0.17092592592592595,0.5981000000014873],[0.024583333333333356,-0.17333333333333337,0.611399999998504],[-0.02666666666666669,-0.1581481481481481,0.6278999999985047],[-0.06270833333333338,-0.1633333333333333,0.6444999999999936],[-0.06499999999999997,-0.1714814814814815,0.6633000000044689],[-0.05687500000000002,-0.16111111111111112,0.6778999999985089],[-0.016666666666666666,-0.14203703703703702,0.6963999999985049],[0.017604166666666643,-0.13203703703703706,0.7111000000014869],[0.052187500000000026,-0.12074074074074072,0.7327000000029784],[0.0453125,-0.09518518518518514,0.7469999999999999],[0.08927083333333338,-0.08703703703703704,0.7612000000029795],[0.10760416666666663,-0.0772222222222222,0.7778000000044685],[0.10760416666666663,-0.0772222222222222,0.7943999999985039],[0.15895833333333323,-0.04000000000000004,0.8111000000014883],[0.18114583333333342,-0.022222222222222223,0.8278999999985075],[0.22947916666666662,0.021296296296296296,0.8446000000014848],[0.2853125000000001,0.03925925925925934,0.8609999999999971],[0.23552083333333323,0.06351851851851843,0.8777000000029744],[0.23552083333333323,0.06351851851851843,0.8943999999985053],[0.22312500000000005,0.08259259259259263,0.9109999999999943],[0.20104166666666667,0.08296296296296288,0.9277000000029787],[0.18197916666666672,0.07222222222222222,0.9443999999985095],[0.15666666666666676,0.07314814814814814,0.9609999999999985],[0.13135416666666658,0.07407407407407407,0.9776000000014875],[0.05416666666666667,0.07703703703703708,0.9943000000044648],[0.00614583333333331,0.09944444444444453,1.0109999999999957],[-0.0907291666666667,0.06277777777777774,1.0277000000029801],[-0.18708333333333335,0.05259259259259255,1.044300000004469],[-0.23822916666666671,0.06629629629629621,1.061],[-0.3226041666666667,0.08092592592592601,1.077600000001489],[-0.3226041666666667,0.08092592592592601,1.0943999999985081],[-0.42156250000000006,0.1037037037037037,1.1129999999999995],[-0.4276041666666667,0.04055555555555551,1.1280000000000001],[-0.4336458333333333,-0.022592592592592678,1.1444999999999936],[-0.45333333333333337,-0.02166666666666675,1.1611000000014897],[-0.42562500000000003,-0.03518518518518519,1.177899999998509],[-0.40520833333333334,-0.09500000000000001,1.1943000000044677],[-0.3876041666666667,-0.08481481481481483,1.2143999999985056],[-0.3189583333333334,-0.11407407407407412,1.227899999998506],[-0.2391666666666667,-0.13037037037037033,1.246200000002979],[-0.16354166666666667,-0.14240740740740737,1.2612000000029795],[-0.09427083333333333,-0.17370370370370372,1.2816000000014895],[-0.05604166666666662,-0.10759259259259263,1.297399999998504],[-0.03760416666666669,-0.05462962962962963,1.3127000000029767],[-0.016979166666666618,-0.06833333333333329,1.3278999999985075],[-0.00614583333333331,-0.06259259259259262,1.348700000002978],[0.04635416666666667,-0.022037037037036994,1.3636000000014903],[0.09562499999999995,0.006851851851851936,1.3789999999999978],[0.10041666666666677,0.04537037037037037,1.394600000001489],[0.10041666666666677,0.04537037037037037,1.4136000000014874],[0.09104166666666676,0.04685185185185177,1.427800000004467],[0.0359375,0.056666666666666705,1.4458999999985096],[0.04750000000000002,0.061666666666666585,1.464499999999994],[0.058124999999999954,0.062407407407407495,1.4791000000014876],[0.1146874999999999,0.06277777777777774,1.4946000000014834],[0.18270833333333342,0.06574074074074074,1.5153999999985075],[0.22947916666666662,0.08055555555555556,1.5302000000029778],[0.24187500000000003,0.10685185185185193,1.5467000000029785],[0.28020833333333334,0.1235185185185186,1.5613999999985069],[0.29541666666666655,0.15407407407407417,1.58139999999851],[0.32302083333333326,0.16814814814814807,1.5959999999999965],[0.43739583333333343,0.15925925925925927,1.6118000000044646],[0.471875,0.18944444444444436,1.6280000000000001],[0.47843749999999996,0.1962962962962963,1.6469999999999985],[0.42999999999999994,0.22888888888888892,1.6621000000014874],[0.3818749999999999,0.3025925925925925,1.677899999998509],[0.3788541666666667,0.3205555555555556,1.694499999999998],[0.38260416666666663,0.3755555555555555,1.7142000000029753],[0.3412499999999999,0.3877777777777777,1.7302000000029736],[0.4939583333333334,0.34037037037037027,1.7461000000014835],[0.5176041666666668,0.2933333333333333,1.761100000001484],[0.5176041666666668,0.2933333333333333,1.780399999998508],[0.5148958333333333,0.35907407407407405,1.7946000000014877],[0.47072916666666675,0.3653703703703703,1.8125],[0.4136458333333332,0.3427777777777778,1.8312000000029798],[0.43125,0.4074074074074074,1.8462000000029803],[0.37479166666666663,0.42388888888888887,1.8611000000014855],[0.3380208333333333,0.48203703703703693,1.88080000000447],[0.3380208333333333,0.48203703703703693,1.894600000001489],[0.3167708333333332,0.4537037037037037,1.9109999999999943],[0.29791666666666666,0.45629629629629626,1.9276000000014903],[0.10104166666666667,0.5079629629629628,1.9443000000044677],[0.0453125,0.5864814814814816,1.9608999999985102],[-0.02510416666666669,0.5668518518518519,1.9776000000014875],[-0.02510416666666669,0.5668518518518519,1.9943999999985067],[0.008645833333333287,0.6077777777777779,2.0109999999999957],[-0.00458333333333331,0.6496296296296296,2.02770000000298],[-0.05010416666666669,0.602037037037037,2.0446000000014877],[0.03447916666666669,0.5498148148148148,2.061],[0.006458333333333381,0.4787037037037037,2.0777000000029773],[-0.027291666666666714,0.4777777777777778,2.0943000000044663],[0.016145833333333335,0.46574074074074073,2.1108999999985087],[0.04635416666666667,0.44314814814814807,2.1277000000029744],[0.05260416666666667,0.38685185185185184,2.1443000000044705],[0.060104166666666715,0.3357407407407407,2.1609999999999943],[0.044270833333333336,0.2661111111111112,2.1777000000029787],[0.044270833333333336,0.2661111111111112,2.1943999999985095],[0.1359375,0.22166666666666676,2.2109999999999985],[0.19822916666666662,0.20111111111111116,2.2298999999985085],[0.19822916666666662,0.20111111111111116,2.2442000000029765],[0.1728125000000001,0.21740740740740735,2.261100000001484],[0.1728125000000001,0.21740740740740735,2.2823999999985034],[0.23802083333333332,0.2264814814814814,2.294700000002976],[0.23802083333333332,0.2264814814814814,2.3111000000014883],[0.2646874999999999,0.1824074074074074,2.3304999999999936],[0.2263541666666666,0.2170370370370371,2.349499999999999],[0.20604166666666662,0.24981481481481477,2.3651000000014903],[0.22666666666666657,0.3,2.383899999998505],[0.22666666666666657,0.3,2.3947000000029774],[0.21677083333333325,0.24870370370370362,2.411200000002978],[0.2209374999999999,0.2322222222222222,2.4318999999985067],[0.16177083333333328,0.2322222222222222,2.448999999999998],[0.10062499999999991,0.2449999999999999,2.4634999999999962],[0.10812499999999996,0.16314814814814818,2.4802000000029736],[0.10812499999999996,0.16314814814814818,2.494499999999995],[0.10385416666666672,0.09018518518518527,2.5108999999985073],[0.10385416666666672,0.09018518518518527,2.52770000000298],[0.10385416666666672,0.09018518518518527,2.546200000002976],[0.10583333333333324,0.03555555555555564,2.561],[0.10583333333333324,0.03555555555555564,2.5778000000044656],[0.10583333333333324,0.03555555555555564,2.612700000002974],[0.1375,-0.029259259259259176,2.680700000002979],[0.1375,-0.029259259259259176,2.6898000000044675],[0.13479166666666675,-0.1588888888888889,2.71370000000298],[0.13479166666666675,-0.1588888888888889,2.730899999998506],[0.07718749999999991,-0.20759259259259263,2.7506000000014836],[0.07718749999999991,-0.20759259259259263,2.7568999999985095],[-0.00635416666666669,-0.18129629629629626,2.7793999999985033],[-0.00635416666666669,-0.18129629629629626,2.785899999998506],[-0.07364583333333338,-0.2088888888888889,2.8152000000029744],[-0.07364583333333338,-0.2088888888888889,2.821399999998505],[-0.1203125,-0.30037037037037034,2.846499999999999],[-0.1203125,-0.30037037037037034,2.8552000000029736],[-0.16416666666666668,-0.4212962962962963,2.8810000000000002],[-0.16416666666666668,-0.4212962962962963,2.8873000000044655],[-0.23687499999999997,-0.46518518518518515,2.913300000004469],[-0.23687499999999997,-0.46518518518518515,2.9203999999985086],[-0.26687500000000003,-0.45870370370370367,2.9468000000044654],[-0.26687500000000003,-0.45870370370370367,2.9532000000029797],[-0.25416666666666665,-0.5444444444444444,2.9812000000029784],[-0.25416666666666665,-0.5444444444444444,2.987700000002974],[-0.275,-0.6392592592592592,3.0131000000014865],[-0.275,-0.6392592592592592,3.0204999999999984],[-0.24770833333333328,-0.595925925925926,3.048300000004467],[-0.24770833333333328,-0.595925925925926,3.055100000001488],[-0.17458333333333337,-0.6288888888888889,3.0799999999999983],[-0.17458333333333337,-0.6288888888888889,3.086499999999994],[-0.08572916666666662,-0.6735185185185185,3.1129999999999995],[-0.08572916666666662,-0.6735185185185185,3.1292000000029745],[-0.028958333333333287,-0.7412962962962963,3.1466000000014844],[-0.028958333333333287,-0.7412962962962963,3.1533000000044638],[0.05291666666666662,-0.700925925925926,3.1817000000029765],[0.05291666666666662,-0.700925925925926,3.1891000000014884],[0.12052083333333338,-0.6955555555555556,3.2132000000029777],[0.12052083333333338,-0.6955555555555556,3.219999999999999],[0.17291666666666666,-0.6853703703703704,3.248100000001486],[0.17291666666666666,-0.6853703703703704,3.2542000000029745],[0.17291666666666666,-0.6853703703703704,3.2608999999985073],[0.17291666666666666,-0.6853703703703704,3.2812000000029755],[0.16864583333333344,-0.6964814814814815,3.3118999999985093],[0.16864583333333344,-0.6964814814814815,3.318700000002977],[0.12781250000000005,-0.647962962962963,3.344999999999999],[0.12781250000000005,-0.647962962962963,3.3518999999985084],[0.12781250000000005,-0.647962962962963,3.361600000001488],[0.06499999999999997,-0.5183333333333333,3.3951000000014844],[0.06499999999999997,-0.5183333333333333,3.4028000000044685],[0.011666666666666714,-0.46296296296296297,3.4283000000044694],[0.011666666666666714,-0.46296296296296297,3.4369999999999976],[-0.01229166666666662,-0.4485185185185185,3.4628999999985055],[-0.01229166666666662,-0.4485185185185185,3.469399999998508],[-0.0046875,-0.42166666666666663,3.4949999999999974],[-0.0046875,-0.42166666666666663,3.5024999999999977],[-0.0007291666666667141,-0.3394444444444445,3.530399999998508],[-0.0007291666666667141,-0.3394444444444445,3.5374999999999943],[-0.05458333333333331,-0.31870370370370377,3.5629999999999953],[-0.05458333333333331,-0.31870370370370377,3.5704999999999956],[-0.0829166666666667,-0.21388888888888888,3.596899999998506],[-0.0829166666666667,-0.21388888888888888,3.6041000000014876],[-0.09916666666666671,-0.16925925925925922,3.6299999999999955],[-0.09916666666666671,-0.16925925925925922,3.6369999999999933],[-0.12468750000000005,-0.1,3.6628999999985083],[-0.12468750000000005,-0.1,3.6696000000014877],[-0.07947916666666661,-0.0485185185185186,3.696399999998505],[-0.07947916666666661,-0.0485185185185186,3.703700000002975],[-0.07947916666666661,-0.0485185185185186,3.71089999999851],[-0.050312499999999954,-0.06574074074074074,3.7468999999985044],[-0.050312499999999954,-0.06574074074074074,3.753700000002979],[-0.015416666666666618,-0.06518518518518517,3.779600000001487],[-0.015416666666666618,-0.06518518518518517,3.787399999998506],[0.005312500000000024,-0.11166666666666669,3.812899999998507],[0.005312500000000024,-0.11166666666666669,3.8197000000029746],[-0.016145833333333335,-0.1022222222222222,3.844999999999999],[-0.016145833333333335,-0.1022222222222222,3.852499999999999],[-0.006562499999999953,-0.041111111111111195,3.879899999998507],[-0.006562499999999953,-0.041111111111111195,3.8873000000044655],[0.03989583333333328,0.011666666666666582,3.9117000000029805],[0.03989583333333328,0.011666666666666582,3.91860000000149],[0.07937500000000004,-0.0007407407407406986,3.94630000000447],[0.07937500000000004,-0.0007407407407406986,3.953100000001484],[0.08177083333333333,-0.05,3.97960000000149],[0.08177083333333333,-0.05,3.9864999999999995],[0.08833333333333329,-0.1374074074074074,4.011600000001486],[0.08833333333333329,-0.1374074074074074,4.018600000001484],[0.07739583333333329,-0.15499999999999997,4.044999999999995],[0.07739583333333329,-0.15499999999999997,4.052300000004465],[0.08697916666666666,-0.23277777777777775,4.079600000001484],[0.08697916666666666,-0.23277777777777775,4.086600000001489],[0.06458333333333334,-0.325,4.111700000002976],[0.06458333333333334,-0.325,4.119300000004465],[0.05614583333333331,-0.3183333333333333,4.146300000004466],[0.05614583333333331,-0.3183333333333333,4.152999999999999],[0.06802083333333328,-0.2785185185185185,4.178300000004469],[0.06802083333333328,-0.2785185185185185,4.185200000002979],[0.09052083333333343,-0.3368518518518518,4.211600000001489],[0.09052083333333343,-0.3368518518518518,4.219999999999999],[0.07156250000000004,-0.3359259259259259,4.263999999999996],[0.07156250000000004,-0.3359259259259259,4.276499999999999],[0.035520833333333356,-0.3787037037037037,4.2986000000014855],[0.035520833333333356,-0.3787037037037037,4.307300000004467],[0.024270833333333287,-0.3225925925925926,4.331899999998505]]","[0.00020000000297670795,0.03830000000446887,0.04439999999850386,0.06339999999850932,0.07780000000446563,0.09449999999999648,0.1109999999999971,0.12770000000297443,0.14430000000447052,0.16099999999999426,0.1777000000029787,0.19780000000447018,0.21139999999850545,0.22770000000297586,0.2443999999985067,0.2609999999999957,0.2777000000029801,0.2944999999999993,0.31560000000148847,0.3323000000044658,0.3488999999985083,0.36110000000148545,0.38230000000447006,0.3943999999985053,0.4111000000014897,0.4277000000029787,0.4443000000044677,0.46349999999999625,0.47799999999999443,0.4962000000029789,0.5112000000029795,0.5296000000014871,0.5444999999999993,0.5612000000029767,0.5778000000044656,0.5981000000014873,0.611399999998504,0.6278999999985047,0.6444999999999936,0.6633000000044689,0.6778999999985089,0.6963999999985049,0.7111000000014869,0.7327000000029784,0.7469999999999999,0.7612000000029795,0.7778000000044685,0.7943999999985039,0.8111000000014883,0.8278999999985075,0.8446000000014848,0.8609999999999971,0.8777000000029744,0.8943999999985053,0.9109999999999943,0.9277000000029787,0.9443999999985095,0.9609999999999985,0.9776000000014875,0.9943000000044648,1.0109999999999957,1.0277000000029801,1.044300000004469,1.061,1.077600000001489,1.0943999999985081,1.1129999999999995,1.1280000000000001,1.1444999999999936,1.1611000000014897,1.177899999998509,1.1943000000044677,1.2143999999985056,1.227899999998506,1.246200000002979,1.2612000000029795,1.2816000000014895,1.297399999998504,1.3127000000029767,1.3278999999985075,1.348700000002978,1.3636000000014903,1.3789999999999978,1.394600000001489,1.4136000000014874,1.427800000004467,1.4458999999985096,1.464499999999994,1.4791000000014876,1.4946000000014834,1.5153999999985075,1.5302000000029778,1.5467000000029785,1.5613999999985069,1.58139999999851,1.5959999999999965,1.6118000000044646,1.6280000000000001,1.6469999999999985,1.6621000000014874,1.677899999998509,1.694499999999998,1.7142000000029753,1.7302000000029736,1.7461000000014835,1.761100000001484,1.780399999998508,1.7946000000014877,1.8125,1.8312000000029798,1.8462000000029803,1.8611000000014855,1.88080000000447,1.894600000001489,1.9109999999999943,1.9276000000014903,1.9443000000044677,1.9608999999985102,1.9776000000014875,1.9943999999985067,2.0109999999999957,2.02770000000298,2.0446000000014877,2.061,2.0777000000029773,2.0943000000044663,2.1108999999985087,2.1277000000029744,2.1443000000044705,2.1609999999999943,2.1777000000029787,2.1943999999985095,2.2109999999999985,2.2298999999985085,2.2442000000029765,2.261100000001484,2.2823999999985034,2.294700000002976,2.3111000000014883,2.3304999999999936,2.349499999999999,2.3651000000014903,2.383899999998505,2.3947000000029774,2.411200000002978,2.4318999999985067,2.448999999999998,2.4634999999999962,2.4802000000029736,2.494499999999995,2.5108999999985073,2.52770000000298,2.546200000002976,2.561,2.5778000000044656,2.612700000002974,2.680700000002979,2.6898000000044675,2.71370000000298,2.730899999998506,2.7506000000014836,2.7568999999985095,2.7793999999985033,2.785899999998506,2.8152000000029744,2.821399999998505,2.846499999999999,2.8552000000029736,2.8810000000000002,2.8873000000044655,2.913300000004469,2.9203999999985086,2.9468000000044654,2.9532000000029797,2.9812000000029784,2.987700000002974,3.0131000000014865,3.0204999999999984,3.048300000004467,3.055100000001488,3.0799999999999983,3.086499999999994,3.1129999999999995,3.1292000000029745,3.1466000000014844,3.1533000000044638,3.1817000000029765,3.1891000000014884,3.2132000000029777,3.219999999999999,3.248100000001486,3.2542000000029745,3.2608999999985073,3.2812000000029755,3.3118999999985093,3.318700000002977,3.344999999999999,3.3518999999985084,3.361600000001488,3.3951000000014844,3.4028000000044685,3.4283000000044694,3.4369999999999976,3.4628999999985055,3.469399999998508,3.4949999999999974,3.5024999999999977,3.530399999998508,3.5374999999999943,3.5629999999999953,3.5704999999999956,3.596899999998506,3.6041000000014876,3.6299999999999955,3.6369999999999933,3.6628999999985083,3.6696000000014877,3.696399999998505,3.703700000002975,3.71089999999851,3.7468999999985044,3.753700000002979,3.779600000001487,3.787399999998506,3.812899999998507,3.8197000000029746,3.844999999999999,3.852499999999999,3.879899999998507,3.8873000000044655,3.9117000000029805,3.91860000000149,3.94630000000447,3.953100000001484,3.97960000000149,3.9864999999999995,4.011600000001486,4.018600000001484,4.044999999999995,4.052300000004465,4.079600000001484,4.086600000001489,4.111700000002976,4.119300000004465,4.146300000004466,4.152999999999999,4.178300000004469,4.185200000002979,4.211600000001489,4.219999999999999,4.263999999999996,4.276499999999999,4.2986000000014855,4.307300000004467,4.331899999998505]","[1733285716499,1733285716529,1733285716535,1733285716555,1733285716569,1733285716586,1733285716602,1733285716619,1733285716635,1733285716652,1733285716669,1733285716689,1733285716703,1733285716719,1733285716735,1733285716752,1733285716769,1733285716786,1733285716807,1733285716823,1733285716840,1733285716852,1733285716873,1733285716886,1733285716902,1733285716919,1733285716935,1733285716955,1733285716969,1733285716987,1733285717002,1733285717021,1733285717036,1733285717052,1733285717069,1733285717089,1733285717103,1733285717119,1733285717136,1733285717154,1733285717169,1733285717188,1733285717202,1733285717224,1733285717238,1733285717252,1733285717269,1733285717286,1733285717302,1733285717319,1733285717336,1733285717352,1733285717369,1733285717386,1733285717402,1733285717419,1733285717436,1733285717452,1733285717469,1733285717485,1733285717502,1733285717519,1733285717535,1733285717552,1733285717569,1733285717586,1733285717604,1733285717619,1733285717636,1733285717652,1733285717669,1733285717686,1733285717706,1733285717719,1733285717737,1733285717752,1733285717773,1733285717789,1733285717804,1733285717819,1733285717840,1733285717855,1733285717870,1733285717886,1733285717905,1733285717919,1733285717937,1733285717956,1733285717970,1733285717986,1733285718007,1733285718021,1733285718038,1733285718052,1733285718073,1733285718087,1733285718103,1733285718119,1733285718138,1733285718153,1733285718169,1733285718186,1733285718205,1733285718221,1733285718237,1733285718252,1733285718271,1733285718286,1733285718304,1733285718322,1733285718337,1733285718352,1733285718372,1733285718386,1733285718402,1733285718419,1733285718435,1733285718452,1733285718469,1733285718486,1733285718502,1733285718519,1733285718536,1733285718552,1733285718569,1733285718585,1733285718602,1733285718619,1733285718635,1733285718652,1733285718669,1733285718686,1733285718702,1733285718721,1733285718735,1733285718752,1733285718774,1733285718786,1733285718802,1733285718822,1733285718841,1733285718856,1733285718875,1733285718886,1733285718902,1733285718923,1733285718940,1733285718955,1733285718971,1733285718986,1733285719002,1733285719019,1733285719037,1733285719052,1733285719069,1733285719104,1733285719172,1733285719181,1733285719205,1733285719222,1733285719242,1733285719248,1733285719271,1733285719277,1733285719306,1733285719313,1733285719338,1733285719346,1733285719372,1733285719378,1733285719404,1733285719412,1733285719438,1733285719444,1733285719472,1733285719479,1733285719504,1733285719512,1733285719539,1733285719546,1733285719571,1733285719578,1733285719604,1733285719620,1733285719638,1733285719644,1733285719673,1733285719680,1733285719704,1733285719711,1733285719739,1733285719745,1733285719752,1733285719772,1733285719803,1733285719810,1733285719836,1733285719843,1733285719853,1733285719886,1733285719894,1733285719919,1733285719928,1733285719954,1733285719961,1733285719986,1733285719994,1733285720022,1733285720029,1733285720054,1733285720062,1733285720088,1733285720095,1733285720121,1733285720128,1733285720154,1733285720161,1733285720187,1733285720195,1733285720202,1733285720238,1733285720245,1733285720271,1733285720279,1733285720304,1733285720311,1733285720336,1733285720344,1733285720371,1733285720378,1733285720403,1733285720410,1733285720437,1733285720444,1733285720471,1733285720478,1733285720503,1733285720510,1733285720536,1733285720544,1733285720571,1733285720578,1733285720603,1733285720610,1733285720637,1733285720644,1733285720669,1733285720676,1733285720703,1733285720711,1733285720755,1733285720768,1733285720790,1733285720798,1733285720823]","[[1115,493.9],[1115,493.9],[1115,493.9],[1084.6,487.9],[1032,468],[964.4,445.4],[942.8,436.3],[890.2,422.3],[855.1,393.4],[820,364.5],[800.6,367],[846.3,355.5],[904.8,342.7],[959.4,329.4],[959.4,329.4],[1031.9,331.7],[1031.9,331.7],[1094.1,350.4],[1101.1,334.9],[1148,355.5],[1193.1,366.9],[1193.1,366.9],[1218.6,365.4],[1218.6,365.4],[1290.3,373.5],[1290.3,373.5],[1293.7,402.9],[1289,418.2],[1257.2,433.9],[1219.1,441.3],[1174.1,436.1],[1148.6,449.6],[1124.9,441.2],[1093.4,442.8],[1096,455.7],[1012.6,447.7],[983.6,446.4],[934.4,454.6],[899.8,451.8],[897.6,447.4],[905.4,453],[944,463.3],[976.9,468.7],[1010.1,474.8],[1003.5,488.6],[1045.7,493],[1063.3,498.3],[1063.3,498.3],[1112.6,518.4],[1133.9,528],[1180.3,551.5],[1233.9,561.2],[1186.1,574.3],[1186.1,574.3],[1174.2,584.6],[1153,584.8],[1134.7,579],[1110.4,579.5],[1086.1,580],[1012,581.6],[965.9,593.7],[872.9,573.9],[780.4,568.4],[731.3,575.8],[650.3,583.7],[650.3,583.7],[555.3,596],[549.5,561.9],[543.7,527.8],[524.8,528.3],[551.4,521],[571,488.7],[587.9,494.2],[653.8,478.4],[730.4,469.6],[803,463.1],[869.5,446.2],[906.2,481.9],[923.9,510.5],[943.7,503.1],[954.1,506.2],[1004.5,528.1],[1051.8,543.7],[1056.4,564.5],[1056.4,564.5],[1047.4,565.3],[994.5,570.6],[1005.6,573.3],[1015.8,573.7],[1070.1,573.9],[1135.4,575.5],[1180.3,583.5],[1192.2,597.7],[1229,606.7],[1243.6,623.2],[1270.1,630.8],[1379.9,626],[1413,642.3],[1419.3,646],[1372.8,663.6],[1326.6,703.4],[1323.7,713.1],[1327.3,742.8],[1287.6,749.4],[1434.2,723.8],[1456.9,698.4],[1456.9,698.4],[1454.3,733.9],[1411.9,737.3],[1357.1,725.1],[1374,760],[1319.8,768.9],[1284.5,800.3],[1284.5,800.3],[1264.1,785],[1246,786.4],[1057,814.3],[1003.5,856.7],[935.9,846.1],[935.9,846.1],[968.3,868.2],[955.6,890.8],[911.9,865.1],[993.1,836.9],[966.2,798.5],[933.8,798],[975.5,791.5],[1004.5,779.3],[1010.5,748.9],[1017.7,721.3],[1002.5,683.7],[1002.5,683.7],[1090.5,659.7],[1150.3,648.6],[1150.3,648.6],[1125.9,657.4],[1125.9,657.4],[1188.5,662.3],[1188.5,662.3],[1214.1,638.5],[1177.3,657.2],[1157.8,674.9],[1177.6,702],[1177.6,702],[1168.1,674.3],[1172.1,665.4],[1115.3,665.4],[1056.6,672.3],[1063.8,628.1],[1063.8,628.1],[1059.7,588.7],[1059.7,588.7],[1059.7,588.7],[1061.6,559.2],[1061.6,559.2],[1061.6,559.2],[1092,524.2],[1092,524.2],[1089.4,454.2],[1089.4,454.2],[1034.1,427.9],[1034.1,427.9],[953.9,442.1],[953.9,442.1],[889.3,427.2],[889.3,427.2],[844.5,377.8],[844.5,377.8],[802.4,312.5],[802.4,312.5],[732.6,288.8],[732.6,288.8],[703.8,292.3],[703.8,292.3],[716,246],[716,246],[696,194.8],[696,194.8],[722.2,218.2],[722.2,218.2],[792.4,200.4],[792.4,200.4],[877.7,176.3],[877.7,176.3],[932.2,139.7],[932.2,139.7],[1010.8,161.5],[1010.8,161.5],[1075.7,164.4],[1075.7,164.4],[1126,169.9],[1126,169.9],[1126,169.9],[1126,169.9],[1121.9,163.9],[1121.9,163.9],[1082.7,190.1],[1082.7,190.1],[1082.7,190.1],[1022.4,260.1],[1022.4,260.1],[971.2,290],[971.2,290],[948.2,297.8],[948.2,297.8],[955.5,312.3],[955.5,312.3],[959.3,356.7],[959.3,356.7],[907.6,367.9],[907.6,367.9],[880.4,424.5],[880.4,424.5],[864.8,448.6],[864.8,448.6],[840.3,486],[840.3,486],[883.7,513.8],[883.7,513.8],[883.7,513.8],[911.7,504.5],[911.7,504.5],[945.2,504.8],[945.2,504.8],[965.1,479.7],[965.1,479.7],[944.5,484.8],[944.5,484.8],[953.7,517.8],[953.7,517.8],[998.3,546.3],[998.3,546.3],[1036.2,539.6],[1036.2,539.6],[1038.5,513],[1038.5,513],[1044.8,465.8],[1044.8,465.8],[1034.3,456.3],[1034.3,456.3],[1043.5,414.3],[1043.5,414.3],[1022,364.5],[1022,364.5],[1013.9,368.1],[1013.9,368.1],[1025.3,389.6],[1025.3,389.6],[1046.9,358.1],[1046.9,358.1],[1028.7,358.6],[1028.7,358.6],[994.1,335.5],[994.1,335.5],[983.3,365.8]]","[0,0.5333]","[0.5333,0.5333]","[-0.5333,0]","[-0.5333,-0.5333]","[0,0]","[0.5333,0]","[0,-0.5333]","[0.5333,-0.5333]",0,0,0,0,1,3,Monitor,11,9,9,1
,,,,,,,,,,,,,,,,,,,,41,001,2024-12-04_12h14.34.371,Attention_exp_legacy,2023.1.0,Win32,59.88023952,,,,,,,,,,[-0.003125],[0.5074074074074074],[1],[0],[0],[2.5476999999955297],"[""Option1_label""]",Option1_label,2,3.5498,"[[-0.003125,0.5092592592592593],[-0.003125,0.5092592592592593],[-0.003125,0.5092592592592593],[-0.003125,0.5092592592592593],[-0.003125,0.5092592592592593],[-0.003125,0.5092592592592593],[-0.003125,0.5092592592592593],[-0.003125,0.5092592592592593],[-0.003125,0.5092592592592593],[-0.003125,0.5092592592592593],[-0.003125,0.5092592592592593],[-0.003125,0.5092592592592593],[-0.003125,0.5092592592592593],[-0.003125,0.5092592592592593],[-0.003125,0.5092592592592593],[-0.003125,0.5092592592592593],[-0.003125,0.5092592592592593],[-0.003125,0.5092592592592593],[-0.003125,0.5092592592592593],[-0.003125,0.5092592592592593],[-0.003125,0.5092592592592593],[-0.003125,0.5092592592592593],[-0.003125,0.5092592592592593],[-0.003125,0.5092592592592593],[-0.003125,0.5092592592592593],[-0.003125,0.5092592592592593],[-0.003125,0.5092592592592593],[-0.003125,0.5092592592592593],[-0.003125,0.5092592592592593],[-0.003125,0.5092592592592593],[-0.003125,0.5092592592592593],[-0.003125,0.5092592592592593],[-0.003125,0.5092592592592593],[-0.003125,0.5092592592592593],[-0.003125,0.5092592592592593],[-0.003125,0.5092592592592593],[-0.003125,0.5092592592592593],[-0.003125,0.5092592592592593],[-0.003125,0.5092592592592593],[-0.003125,0.5092592592592593],[-0.003125,0.5092592592592593],[-0.003125,0.5092592592592593],[-0.003125,0.5092592592592593],[-0.003125,0.5092592592592593],[-0.003125,0.5092592592592593],[-0.003125,0.5092592592592593],[-0.003125,0.5092592592592593],[-0.003125,0.5092592592592593],[-0.003125,0.5092592592592593],[-0.003125,0.5092592592592593],[-0.003125,0.5092592592592593],[-0.003125,0.5092592592592593],[-0.003125,0.5092592592592593],[-0.003125,0.5092592592592593],[-0.003125,0.5092592592592593],[-0.003125,0.5092592592592593],[-0.003125,0.5092592592592593],[-0.003125,0.5092592592592593],[-0.003125,0.5092592592592593],[-0.003125,0.5092592592592593],[-0.003125,0.5092592592592593],[-0.003125,0.5092592592592593],[-0.003125,0.5092592592592593],[-0.003125,0.5092592592592593],[-0.003125,0.5092592592592593],[-0.003125,0.5092592592592593],[-0.003125,0.5092592592592593],[-0.003125,0.5092592592592593],[-0.003125,0.5092592592592593],[-0.003125,0.5092592592592593],[-0.003125,0.5092592592592593],[-0.003125,0.5092592592592593],[-0.003125,0.5092592592592593],[-0.003125,0.5092592592592593],[-0.003125,0.5092592592592593],[-0.003125,0.5092592592592593],[-0.003125,0.5092592592592593],[-0.003125,0.5092592592592593],[-0.003125,0.5092592592592593],[-0.003125,0.5092592592592593],[-0.003125,0.5092592592592593],[-0.003125,0.5092592592592593],[-0.003125,0.5092592592592593],[-0.003125,0.5092592592592593],[-0.003125,0.5092592592592593],[-0.003125,0.5092592592592593],[-0.003125,0.5092592592592593],[-0.003125,0.5092592592592593],[-0.003125,0.5092592592592593],[-0.003125,0.5092592592592593],[-0.003125,0.5092592592592593],[-0.003125,0.5092592592592593],[-0.003125,0.5092592592592593],[-0.003125,0.5092592592592593],[-0.003125,0.5092592592592593],[-0.003125,0.5092592592592593],[-0.003125,0.5092592592592593],[-0.003125,0.5092592592592593],[-0.003125,0.5092592592592593],[-0.003125,0.5092592592592593],[-0.003125,0.5092592592592593],[-0.003125,0.5092592592592593],[-0.003125,0.5092592592592593],[-0.003125,0.5092592592592593],[-0.003125,0.5092592592592593],[-0.003125,0.5092592592592593],[-0.003125,0.5092592592592593],[-0.003125,0.5092592592592593],[-0.003125,0.5092592592592593],[-0.003125,0.5092592592592593],[-0.003125,0.5092592592592593],[-0.003125,0.5092592592592593],[-0.003125,0.5092592592592593],[-0.003125,0.5092592592592593],[-0.003125,0.5092592592592593],[-0.003125,0.5092592592592593],[-0.003125,0.5092592592592593],[-0.003125,0.5092592592592593],[-0.003125,0.5092592592592593],[-0.003125,0.5092592592592593],[-0.003125,0.5092592592592593],[-0.003125,0.5092592592592593],[-0.003125,0.5092592592592593],[-0.003125,0.5092592592592593],[-0.003125,0.5092592592592593],[-0.003125,0.5092592592592593],[-0.003125,0.5092592592592593],[-0.003125,0.5092592592592593],[-0.003125,0.5092592592592593],[-0.003125,0.5092592592592593],[-0.003125,0.5092592592592593],[-0.003125,0.5092592592592593],[-0.003125,0.5092592592592593],[-0.003125,0.5092592592592593],[-0.003125,0.5092592592592593],[-0.003125,0.5092592592592593],[-0.003125,0.5074074074074074],[-0.003125,0.5074074074074074],[-0.003125,0.5074074074074074],[-0.003125,0.5074074074074074],[-0.003125,0.5074074074074074],[-0.003125,0.5074074074074074],[-0.003125,0.5074074074074074],[-0.003125,0.5074074074074074],[-0.003125,0.5074074074074074],[-0.003125,0.5074074074074074],[-0.003125,0.5074074074074074],[-0.003125,0.5074074074074074],[-0.003125,0.5074074074074074],[-0.003125,0.5074074074074074],[-0.003125,0.5074074074074074],[-0.003125,0.5074074074074074],[-0.003125,0.5074074074074074],[-0.003125,0.5074074074074074],[-0.003125,0.5074074074074074],[-0.003125,0.5074074074074074],[-0.003125,0.5074074074074074],[-0.003125,0.5074074074074074],[-0.003125,0.5074074074074074],[-0.003125,0.5074074074074074],[-0.003125,0.5074074074074074],[-0.003125,0.5074074074074074],[-0.003125,0.5074074074074074],[-0.003125,0.5074074074074074],[-0.003125,0.5074074074074074],[-0.003125,0.5074074074074074],[-0.003125,0.5074074074074074],[-0.003125,0.5074074074074074],[-0.003125,0.5074074074074074],[-0.003125,0.5074074074074074],[-0.003125,0.5074074074074074],[-0.003125,0.5074074074074074],[-0.003125,0.5074074074074074],[-0.003125,0.5074074074074074],[-0.003125,0.5074074074074074],[-0.003125,0.5074074074074074],[-0.003125,0.5074074074074074],[-0.003125,0.5074074074074074],[-0.003125,0.5074074074074074],[-0.003125,0.5074074074074074],[-0.003125,0.5074074074074074],[-0.003125,0.5074074074074074],[-0.003125,0.5074074074074074],[-0.003125,0.5074074074074074],[-0.003125,0.5074074074074074],[-0.003125,0.5074074074074074],[-0.003125,0.5074074074074074],[-0.003125,0.5074074074074074],[-0.003125,0.5074074074074074],[-0.003125,0.5074074074074074],[-0.003125,0.5074074074074074],[-0.003125,0.5074074074074074],[-0.003125,0.5074074074074074],[-0.003125,0.5074074074074074],[-0.003125,0.5074074074074074],[-0.003125,0.5074074074074074],[-0.003125,0.5074074074074074],[-0.003125,0.5074074074074074],[-0.003125,0.5074074074074074],[-0.003125,0.5074074074074074],[-0.003125,0.5074074074074074],[-0.003125,0.5074074074074074],[-0.003125,0.5074074074074074],[-0.003125,0.5074074074074074],[-0.003125,0.5074074074074074],[-0.003125,0.5074074074074074],[-0.003125,0.5074074074074074],[-0.003125,0.5074074074074074],[-0.003125,0.5074074074074074],[-0.003125,0.5074074074074074],[-0.003125,0.5074074074074074],[-0.003125,0.5074074074074074],[-0.003125,0.5074074074074074],[-0.003125,0.5074074074074074]]","[[0.09416666666666676,0.34666666666666673],[0.10104166666666667,0.387037037037037],[0.09145833333333328,0.39166666666666666],[0.08468749999999996,0.4118518518518518],[0.08468749999999996,0.4118518518518518],[0.08427083333333343,0.4898148148148148],[0.05020833333333338,0.5025925925925926],[0.04781249999999997,0.422037037037037],[0.05479166666666669,0.3638888888888889],[0.05479166666666669,0.3638888888888889],[0.059895833333333336,0.2861111111111111],[0.08229166666666667,0.19740740740740745],[0.11958333333333329,0.11666666666666667],[0.17000000000000004,0.03518518518518519],[0.21020833333333327,-0.026851851851851852],[0.2117708333333333,-0.17037037037037037],[0.23322916666666677,-0.26962962962962966],[0.23270833333333343,-0.33777777777777773],[0.24385416666666657,-0.3403703703703704],[0.24562499999999995,-0.3653703703703704],[0.25760416666666663,-0.35555555555555557],[0.2522916666666667,-0.33481481481481484],[0.22020833333333342,-0.3375925925925926],[0.1798958333333334,-0.3427777777777778],[0.16270833333333337,-0.3574074074074074],[0.18135416666666657,-0.3061111111111111],[0.18010416666666676,-0.29907407407407405],[0.18916666666666657,-0.2794444444444444],[0.20927083333333343,-0.2524074074074074],[0.19500000000000003,-0.26722222222222225],[0.17822916666666658,-0.29740740740740745],[0.18552083333333325,-0.3025925925925925],[0.2033333333333334,-0.3],[0.2029166666666666,-0.27462962962962967],[0.18958333333333333,-0.25925925925925924],[0.17135416666666667,-0.262037037037037],[0.153125,-0.26481481481481484],[0.12354166666666658,-0.32],[0.09395833333333338,-0.36148148148148146],[0.09666666666666662,-0.3151851851851852],[0.13114583333333343,-0.31148148148148147],[0.10708333333333328,-0.2687037037037037],[0.10125000000000005,-0.29000000000000004],[0.1087500000000001,-0.3309259259259259],[0.09989583333333343,-0.2770370370370371],[0.11270833333333338,-0.17407407407407408],[0.10499999999999995,-0.15203703703703708],[0.09833333333333343,-0.09018518518518516],[0.06479166666666672,-0.04722222222222222],[0.05770833333333331,-0.06111111111111111],[0.02302083333333336,-0.04666666666666675],[0.02302083333333336,-0.04666666666666675],[-0.02666666666666669,-0.09685185185185187],[-0.10052083333333334,-0.08407407407407404],[-0.1671875,-0.07814814814814813],[-0.23125,-0.15611111111111114],[-0.2907291666666667,-0.2492592592592593],[-0.34437500000000004,-0.2607407407407408],[-0.3688541666666667,-0.29555555555555557],[-0.3529166666666666,-0.3218518518518519],[-0.36135416666666664,-0.33722222222222226],[-0.3980208333333334,-0.3314814814814815],[-0.35906250000000006,-0.35555555555555557],[-0.31052083333333336,-0.36129629629629634],[-0.27291666666666664,-0.3888888888888889],[-0.22156250000000005,-0.4274074074074074],[-0.19885416666666664,-0.4812962962962963],[-0.16145833333333334,-0.5359259259259259],[-0.15239583333333329,-0.5398148148148149],[-0.15687500000000001,-0.547037037037037],[-0.15989583333333332,-0.549074074074074],[-0.16416666666666668,-0.5201851851851852],[-0.12572916666666673,-0.48],[-0.13479166666666664,-0.47000000000000003],[-0.09624999999999997,-0.4183333333333333],[-0.059791666666666646,-0.37166666666666665],[-0.059791666666666646,-0.37166666666666665],[-0.01604166666666664,-0.32537037037037037],[-0.01604166666666664,-0.32537037037037037],[0.03770833333333338,-0.2957407407407407],[0.03770833333333338,-0.2957407407407407],[0.06333333333333328,-0.24166666666666667],[0.07760416666666667,-0.18518518518518517],[0.07760416666666667,-0.18518518518518517],[0.06312500000000003,-0.17833333333333334],[0.08291666666666657,-0.1925925925925926],[0.08291666666666657,-0.1925925925925926],[0.034375,-0.21203703703703702],[0.000833333333333286,-0.17888888888888893],[0.000833333333333286,-0.17888888888888893],[-0.0765625,-0.15870370370370368],[-0.14635416666666667,-0.18648148148148147],[-0.2125,-0.2212962962962963],[-0.27104166666666674,-0.20722222222222217],[-0.3071875,-0.24981481481481477],[-0.34343750000000006,-0.32037037037037036],[-0.32760416666666664,-0.3227777777777778],[-0.3207291666666666,-0.3418518518518519],[-0.31437499999999996,-0.33666666666666667],[-0.28395833333333337,-0.38425925925925924],[-0.25354166666666667,-0.4318518518518518],[-0.16937500000000003,-0.4020370370370371],[-0.08885416666666662,-0.36518518518518517],[-0.03104166666666662,-0.38129629629629624],[0.024374999999999977,-0.3905555555555555],[0.11302083333333333,-0.32592592592592595],[0.14645833333333325,-0.33351851851851855],[0.16177083333333328,-0.3096296296296296],[0.1875,-0.28111111111111114],[0.2539583333333333,-0.3042592592592593],[0.3297916666666666,-0.3085185185185186],[0.33572916666666663,-0.35962962962962963],[0.3396874999999999,-0.3640740740740741],[0.30979166666666674,-0.3516666666666666],[0.2934375000000001,-0.3068518518518518],[0.2634375000000001,-0.30407407407407405],[0.25718750000000007,-0.21351851851851855],[0.28270833333333345,-0.1411111111111111],[0.25052083333333336,-0.11240740740740739],[0.18239583333333323,-0.018888888888888972],[0.12958333333333344,0.10759259259259263],[0.08739583333333342,0.2564814814814815],[0.04718749999999995,0.3587037037037038],[0.035625000000000046,0.39296296296296307],[0.017812500000000023,0.39277777777777784],[0.019479166666666714,0.3207407407407408],[0.03093750000000005,0.205925925925926],[0.03218749999999997,0.06148148148148157],[0.08072916666666667,-0.04388888888888897],[0.1258333333333333,-0.1270370370370371],[0.1258333333333333,-0.1270370370370371],[0.13031249999999991,-0.2611111111111111],[0.15302083333333344,-0.4059259259259259],[0.19114583333333332,-0.5442592592592592],[0.23958333333333334,-0.6107407407407408],[0.31229166666666663,-0.675],[0.31229166666666663,-0.675],[0.28364583333333326,-0.6783333333333333],[0.28364583333333326,-0.6783333333333333],[0.2708333333333333,-0.6657407407407407],[0.19281249999999991,-0.6174074074074074],[0.1319791666666667,-0.6181481481481482],[0.07843749999999995,-0.6337037037037037],[0.058749999999999976,-0.6609259259259259],[-0.00625,-0.667962962962963],[-0.05270833333333336,-0.6838888888888889],[-0.15958333333333338,-0.649074074074074],[-0.2641666666666667,-0.6648148148148149],[-0.2748958333333333,-0.6785185185185185],[-0.27697916666666667,-0.7011111111111111],[-0.2172916666666667,-0.7431481481481482],[-0.22260416666666671,-0.6462962962962963],[-0.23177083333333334,-0.5568518518518518],[-0.2445833333333333,-0.5194444444444445],[-0.19802083333333337,-0.5072222222222221],[-0.21031249999999999,-0.4905555555555555],[-0.165625,-0.5242592592592593],[-0.11218750000000005,-0.4935185185185185],[-0.07885416666666671,-0.4601851851851852],[-0.07124999999999998,-0.43851851851851853],[-0.10489583333333338,-0.35185185185185186],[-0.0907291666666667,-0.355],[-0.059583333333333384,-0.4183333333333333],[-0.03447916666666669,-0.4257407407407407],[-0.022395833333333334,-0.4244444444444444],[0.014583333333333334,-0.4251851851851852],[0.03427083333333331,-0.4214814814814815],[0.0012500000000000473,-0.4096296296296296],[-0.00458333333333331,-0.4183333333333333],[-0.01229166666666662,-0.41888888888888887],[0.015625,-0.4957407407407407],[0.015625,-0.4957407407407407],[0.03843749999999998,-0.5272222222222221],[0.06166666666666672,-0.5375925925925926],[0.07666666666666658,-0.5411111111111111],[0.06281249999999995,-0.5566666666666668],[0.07333333333333343,-0.5827777777777777],[0.07333333333333343,-0.5827777777777777],[0.06666666666666667,-0.5707407407407408],[0.07770833333333324,-0.6138888888888889],[0.03812500000000003,-0.6220370370370369],[0.021354166666666667,-0.6392592592592592],[0.03177083333333333,-0.657962962962963],[0.03177083333333333,-0.657962962962963],[0.01864583333333331,-0.705925925925926],[0.0046875,-0.7142592592592593],[-0.05479166666666669,-0.7025925925925925],[-0.08145833333333338,-0.6735185185185185],[-0.14020833333333335,-0.6153703703703703],[-0.13479166666666664,-0.6185185185185185],[-0.18083333333333335,-0.5631481481481482],[-0.18500000000000003,-0.542037037037037],[-0.24354166666666663,-0.5014814814814815],[-0.28635416666666663,-0.4487037037037037],[-0.33781249999999996,-0.41148148148148145],[-0.381875,-0.4096296296296296],[-0.38041666666666674,-0.42777777777777776],[-0.3921875,-0.4692592592592592],[-0.3921875,-0.4692592592592592],[-0.3798958333333334,-0.5262962962962963],[-0.38156249999999997,-0.5512962962962963],[-0.38156249999999997,-0.5512962962962963],[-0.3811458333333333,-0.5255555555555556],[-0.40895833333333337,-0.5224074074074074],[-0.40895833333333337,-0.5224074074074074],[-0.40520833333333334,-0.5296296296296297],[-0.4305208333333333,-0.4759259259259259],[-0.4305208333333333,-0.4759259259259259],[-0.4236458333333334,-0.44518518518518513],[-0.4236458333333334,-0.44518518518518513],[-0.4140625,-0.43648148148148147],[-0.44864583333333335,-0.37537037037037035],[-0.4796875,-0.27148148148148155],[-0.5270833333333333,-0.1705555555555556]]","[[0.09416666666666676,0.34666666666666673,0.00020000000298381337],[0.10104166666666667,0.387037037037037,0.018200000002984495],[0.09145833333333328,0.39166666666666666,0.03300000000000125],[0.08468749999999996,0.4118518518518518,0.05039999999851119],[0.08468749999999996,0.4118518518518518,0.06629999999702108],[0.08427083333333343,0.4898148148148148,0.08300000000000551],[0.05020833333333338,0.5025925925925926,0.0996000000014945],[0.04781249999999997,0.422037037037037,0.11629999999702534],[0.05479166666666669,0.3638888888888889,0.1363999999985097],[0.05479166666666669,0.3638888888888889,0.14970000000298],[0.059895833333333336,0.2861111111111111,0.1662999999970225],[0.08229166666666667,0.19740740740740745,0.1832999999970184],[0.11958333333333329,0.11666666666666667,0.19979999999701903],[0.17000000000000004,0.03518518518518519,0.21629999999701965],[0.21020833333333327,-0.026851851851851852,0.23420000000298558],[0.2117708333333333,-0.17037037037037037,0.24970000000298143],[0.23322916666666677,-0.26962962962962966,0.26670000000298444],[0.23270833333333343,-0.33777777777777773,0.28300000000000125],[0.24385416666666657,-0.3403703703703704,0.3015000000000043],[0.24562499999999995,-0.3653703703703704,0.3162999999970211],[0.25760416666666663,-0.35555555555555557,0.3342000000029799],[0.2522916666666667,-0.33481481481481484,0.3509999999999991],[0.22020833333333342,-0.3375925925925926,0.36810000000149046],[0.1798958333333334,-0.3427777777777778,0.38300000000000267],[0.16270833333333337,-0.3574074074074074,0.39979999999702187],[0.18135416666666657,-0.3061111111111111,0.4162999999970225],[0.18010416666666676,-0.29907407407407405,0.4328999999985115],[0.18916666666666657,-0.2794444444444444,0.4496000000014888],[0.20927083333333343,-0.2524074074074074,0.4662000000029849],[0.19500000000000003,-0.26722222222222225,0.48289999999850863],[0.17822916666666658,-0.29740740740740745,0.49960000000149307],[0.18552083333333325,-0.3025925925925925,0.5162999999970239],[0.2033333333333334,-0.3,0.5330000000000013],[0.2029166666666666,-0.27462962962962967,0.5534999999999997],[0.18958333333333333,-0.25925925925925924,0.5681000000014933],[0.17135416666666667,-0.262037037037037,0.5832999999970241],[0.153125,-0.26481481481481484,0.6021000000014922],[0.12354166666666658,-0.32,0.6162999999970253],[0.09395833333333338,-0.36148148148148146,0.6330000000000027],[0.09666666666666662,-0.3151851851851852,0.6499999999999986],[0.13114583333333343,-0.31148148148148147,0.6663999999985109],[0.10708333333333328,-0.2687037037037037,0.6829999999999998],[0.10125000000000005,-0.29000000000000004,0.7020000000000053],[0.1087500000000001,-0.3309259259259259,0.7162999999970197],[0.09989583333333343,-0.2770370370370371,0.7328999999985086],[0.11270833333333338,-0.17407407407407408,0.75],[0.10499999999999995,-0.15203703703703708,0.7691000000014938],[0.09833333333333343,-0.09018518518518516,0.7830000000000013],[0.06479166666666672,-0.04722222222222222,0.7997000000029857],[0.05770833333333331,-0.06111111111111111,0.8162999999970211],[0.02302083333333336,-0.04666666666666675,0.8342999999970218],[0.02302083333333336,-0.04666666666666675,0.8497999999970247],[-0.02666666666666669,-0.09685185185185187,0.8663999999985137],[-0.10052083333333334,-0.08407407407407404,0.8832000000029794],[-0.1671875,-0.07814814814814813,0.8996000000014917],[-0.23125,-0.15611111111111114,0.9162999999970225],[-0.2907291666666667,-0.2492592592592593,0.9329999999999998],[-0.34437500000000004,-0.2607407407407408,0.9535000000000053],[-0.3688541666666667,-0.29555555555555557,0.9687000000029826],[-0.3529166666666666,-0.3218518518518519,0.9830000000000041],[-0.36135416666666664,-0.33722222222222226,0.9996000000014931],[-0.3980208333333334,-0.3314814814814815,1.016299999997024],[-0.35906250000000006,-0.35555555555555557,1.032899999998513],[-0.31052083333333336,-0.36129629629629634,1.0516000000014927],[-0.27291666666666664,-0.3888888888888889,1.069100000001491],[-0.22156250000000005,-0.4274074074074074,1.0830000000000055],[-0.19885416666666664,-0.4812962962962963,1.0997000000029828],[-0.16145833333333334,-0.5359259259259259,1.1162999999970253],[-0.15239583333333329,-0.5398148148148149,1.133100000001491],[-0.15687500000000001,-0.547037037037037,1.1511000000014917],[-0.15989583333333332,-0.549074074074074,1.1664999999999992],[-0.16416666666666668,-0.5201851851851852,1.1842000000029813],[-0.12572916666666673,-0.48,1.1997000000029843],[-0.13479166666666664,-0.47000000000000003,1.2162999999970197],[-0.09624999999999997,-0.4183333333333333,1.2332000000029808],[-0.059791666666666646,-0.37166666666666665,1.250799999997021],[-0.059791666666666646,-0.37166666666666665,1.266299999997024],[-0.01604166666666664,-0.32537037037037037,1.282899999998513],[-0.01604166666666664,-0.32537037037037037,1.2996000000014902],[0.03770833333333338,-0.2957407407407407,1.3163999999985094],[0.03770833333333338,-0.2957407407407407,1.3330000000000055],[0.06333333333333328,-0.24166666666666667,1.3497999999970247],[0.07760416666666667,-0.18518518518518517,1.3682999999970207],[0.07760416666666667,-0.18518518518518517,1.383100000001491],[0.06312500000000003,-0.17833333333333334,1.3997999999970219],[0.08291666666666657,-0.1925925925925926,1.4218999999985087],[0.08291666666666657,-0.1925925925925926,1.4331000000014953],[0.034375,-0.21203703703703702,1.4497000000029843],[0.000833333333333286,-0.17888888888888893,1.4710000000000036],[0.000833333333333286,-0.17888888888888893,1.4831000000014924],[-0.0765625,-0.15870370370370368,1.4997000000029814],[-0.14635416666666667,-0.18648148148148147,1.5163999999985123],[-0.2125,-0.2212962962962963,1.532899999998513],[-0.27104166666666674,-0.20722222222222217,1.5512000000029857],[-0.3071875,-0.24981481481481477,1.566299999997021],[-0.34343750000000006,-0.32037037037037036,1.5831000000014939],[-0.32760416666666664,-0.3227777777777778,1.5996000000014945],[-0.3207291666666666,-0.3418518518518519,1.6163999999985137],[-0.31437499999999996,-0.33666666666666667,1.6330000000000027],[-0.28395833333333337,-0.38425925925925924,1.6525000000000034],[-0.25354166666666667,-0.4318518518518518,1.667500000000004],[-0.16937500000000003,-0.4020370370370371,1.6828999999985115],[-0.08885416666666662,-0.36518518518518517,1.6997000000029843],[-0.03104166666666662,-0.38129629629629624,1.7162999999970197],[0.024374999999999977,-0.3905555555555555,1.733000000000004],[0.11302083333333333,-0.32592592592592595,1.7535000000000025],[0.14645833333333325,-0.33351851851851855,1.767700000002982],[0.16177083333333328,-0.3096296296296296,1.782899999998513],[0.1875,-0.28111111111111114,1.8001000000014926],[0.2539583333333333,-0.3042592592592593,1.816299999997021],[0.3297916666666666,-0.3085185185185186,1.8330000000000055],[0.33572916666666663,-0.35962962962962963,1.8497000000029828],[0.3396874999999999,-0.3640740740740741,1.8693999999985138],[0.30979166666666674,-0.3516666666666666,1.8832000000029794],[0.2934375000000001,-0.3068518518518518,1.89970000000298],[0.2634375000000001,-0.30407407407407405,1.9162999999970225],[0.25718750000000007,-0.21351851851851855,1.9331000000014953],[0.28270833333333345,-0.1411111111111111,1.9498999999985145],[0.25052083333333336,-0.11240740740740739,1.9663999999985151],[0.18239583333333323,-0.018888888888888972,1.9828999999985086],[0.12958333333333344,0.10759259259259263,1.999600000001493],[0.08739583333333342,0.2564814814814815,2.016299999997024],[0.04718749999999995,0.3587037037037038,2.0330000000000013],[0.035625000000000046,0.39296296296296307,2.051000000000002],[0.017812500000000023,0.39277777777777784,2.0690000000000026],[0.019479166666666714,0.3207407407407408,2.083500000000001],[0.03093750000000005,0.205925925925926,2.1007999999970224],[0.03218749999999997,0.06148148148148157,2.1162999999970253],[0.08072916666666667,-0.04388888888888897,2.1330000000000027],[0.1258333333333333,-0.1270370370370371,2.1517000000029824],[0.1258333333333333,-0.1270370370370371,2.166399999998511],[0.13031249999999991,-0.2611111111111111,2.183],[0.15302083333333344,-0.4059259259259259,2.199600000001489],[0.19114583333333332,-0.5442592592592592,2.2162999999970197],[0.23958333333333334,-0.6107407407407408,2.2328999999985086],[0.31229166666666663,-0.675,2.2535000000000025],[0.31229166666666663,-0.675,2.286200000002985],[0.28364583333333326,-0.6783333333333333,2.293299999997025],[0.28364583333333326,-0.6783333333333333,2.2996000000014902],[0.2708333333333333,-0.6657407407407407,2.316299999997021],[0.19281249999999991,-0.6174074074074074,2.3330000000000055],[0.1319791666666667,-0.6181481481481482,2.349700000002983],[0.07843749999999995,-0.6337037037037037,2.3662999999970253],[0.058749999999999976,-0.6609259259259259,2.3830000000000027],[-0.00625,-0.667962962962963,2.3996000000014917],[-0.05270833333333336,-0.6838888888888889,2.416399999998511],[-0.15958333333333338,-0.649074074074074,2.4328999999985115],[-0.2641666666666667,-0.6648148148148149,2.4497000000029843],[-0.2748958333333333,-0.6785185185185185,2.4662999999970197],[-0.27697916666666667,-0.7011111111111111,2.483000000000004],[-0.2172916666666667,-0.7431481481481482,2.4997000000029814],[-0.22260416666666671,-0.6462962962962963,2.516299999997024],[-0.23177083333333334,-0.5568518518518518,2.5330000000000013],[-0.2445833333333333,-0.5194444444444445,2.5497000000029857],[-0.19802083333333337,-0.5072222222222221,2.566500000000005],[-0.21031249999999999,-0.4905555555555555,2.5830000000000055],[-0.165625,-0.5242592592592593,2.5996000000014945],[-0.11218750000000005,-0.4935185185185185,2.6162999999970253],[-0.07885416666666671,-0.4601851851851852,2.633100000001491],[-0.07124999999999998,-0.43851851851851853,2.64970000000298],[-0.10489583333333338,-0.35185185185185186,2.6662999999970225],[-0.0907291666666667,-0.355,2.683],[-0.059583333333333384,-0.4183333333333333,2.699600000001489],[-0.03447916666666669,-0.4257407407407407,2.7162999999970197],[-0.022395833333333334,-0.4244444444444444,2.733000000000004],[0.014583333333333334,-0.4251851851851852,2.7497000000029814],[0.03427083333333331,-0.4214814814814815,2.766200000002982],[0.0012500000000000473,-0.4096296296296296,2.7830000000000013],[-0.00458333333333331,-0.4183333333333333,2.7997000000029857],[-0.01229166666666662,-0.41888888888888887,2.816299999997021],[0.015625,-0.4957407407407407,2.8330000000000055],[0.015625,-0.4957407407407407,2.8497999999970247],[0.03843749999999998,-0.5272222222222221,2.8662999999970253],[0.06166666666666672,-0.5375925925925926,2.8828999999985143],[0.07666666666666658,-0.5411111111111111,2.8996000000014917],[0.06281249999999995,-0.5566666666666668,2.9162999999970225],[0.07333333333333343,-0.5827777777777777,2.9328999999985115],[0.07333333333333343,-0.5827777777777777,2.9497000000029843],[0.06666666666666667,-0.5707407407407408,2.966399999998515],[0.07770833333333324,-0.6138888888888889,2.983000000000004],[0.03812500000000003,-0.6220370370370369,2.999600000001493],[0.021354166666666667,-0.6392592592592592,3.016200000002982],[0.03177083333333333,-0.657962962962963,3.0330000000000013],[0.03177083333333333,-0.657962962962963,3.0497999999970204],[0.01864583333333331,-0.705925925925926,3.0663999999985094],[0.0046875,-0.7142592592592593,3.08289999999851],[-0.05479166666666669,-0.7025925925925925,3.0996000000014945],[-0.08145833333333338,-0.6735185185185185,3.1162000000029835],[-0.14020833333333335,-0.6153703703703703,3.1330000000000027],[-0.13479166666666664,-0.6185185185185185,3.1532999999970244],[-0.18083333333333335,-0.5631481481481482,3.167500000000004],[-0.18500000000000003,-0.542037037037037,3.1828999999985115],[-0.24354166666666663,-0.5014814814814815,3.199600000001489],[-0.28635416666666663,-0.4487037037037037,3.2162999999970197],[-0.33781249999999996,-0.41148148148148145,3.233000000000004],[-0.381875,-0.4096296296296296,3.249600000001493],[-0.38041666666666674,-0.42777777777777776,3.266299999997024],[-0.3921875,-0.4692592592592592,3.2830000000000013],[-0.3921875,-0.4692592592592592,3.2996000000014902],[-0.3798958333333334,-0.5262962962962963,3.316299999997021],[-0.38156249999999997,-0.5512962962962963,3.3367999999970195],[-0.38156249999999997,-0.5512962962962963,3.3497999999970247],[-0.3811458333333333,-0.5255555555555556,3.3662999999970253],[-0.40895833333333337,-0.5224074074074074,3.3856000000014888],[-0.40895833333333337,-0.5224074074074074,3.3996000000014917],[-0.40520833333333334,-0.5296296296296297,3.4162999999970225],[-0.4305208333333333,-0.4759259259259259,3.4375],[-0.4305208333333333,-0.4759259259259259,3.4497000000029843],[-0.4236458333333334,-0.44518518518518513,3.4662999999970197],[-0.4236458333333334,-0.44518518518518513,3.483000000000004],[-0.4140625,-0.43648148148148147,3.499600000001493],[-0.44864583333333335,-0.37537037037037035,3.5163999999985123],[-0.4796875,-0.27148148148148155,3.5330000000000013],[-0.5270833333333333,-0.1705555555555556,3.5497999999970204]]","[0.00020000000298381337,0.018200000002984495,0.03300000000000125,0.05039999999851119,0.06629999999702108,0.08300000000000551,0.0996000000014945,0.11629999999702534,0.1363999999985097,0.14970000000298,0.1662999999970225,0.1832999999970184,0.19979999999701903,0.21629999999701965,0.23420000000298558,0.24970000000298143,0.26670000000298444,0.28300000000000125,0.3015000000000043,0.3162999999970211,0.3342000000029799,0.3509999999999991,0.36810000000149046,0.38300000000000267,0.39979999999702187,0.4162999999970225,0.4328999999985115,0.4496000000014888,0.4662000000029849,0.48289999999850863,0.49960000000149307,0.5162999999970239,0.5330000000000013,0.5534999999999997,0.5681000000014933,0.5832999999970241,0.6021000000014922,0.6162999999970253,0.6330000000000027,0.6499999999999986,0.6663999999985109,0.6829999999999998,0.7020000000000053,0.7162999999970197,0.7328999999985086,0.75,0.7691000000014938,0.7830000000000013,0.7997000000029857,0.8162999999970211,0.8342999999970218,0.8497999999970247,0.8663999999985137,0.8832000000029794,0.8996000000014917,0.9162999999970225,0.9329999999999998,0.9535000000000053,0.9687000000029826,0.9830000000000041,0.9996000000014931,1.016299999997024,1.032899999998513,1.0516000000014927,1.069100000001491,1.0830000000000055,1.0997000000029828,1.1162999999970253,1.133100000001491,1.1511000000014917,1.1664999999999992,1.1842000000029813,1.1997000000029843,1.2162999999970197,1.2332000000029808,1.250799999997021,1.266299999997024,1.282899999998513,1.2996000000014902,1.3163999999985094,1.3330000000000055,1.3497999999970247,1.3682999999970207,1.383100000001491,1.3997999999970219,1.4218999999985087,1.4331000000014953,1.4497000000029843,1.4710000000000036,1.4831000000014924,1.4997000000029814,1.5163999999985123,1.532899999998513,1.5512000000029857,1.566299999997021,1.5831000000014939,1.5996000000014945,1.6163999999985137,1.6330000000000027,1.6525000000000034,1.667500000000004,1.6828999999985115,1.6997000000029843,1.7162999999970197,1.733000000000004,1.7535000000000025,1.767700000002982,1.782899999998513,1.8001000000014926,1.816299999997021,1.8330000000000055,1.8497000000029828,1.8693999999985138,1.8832000000029794,1.89970000000298,1.9162999999970225,1.9331000000014953,1.9498999999985145,1.9663999999985151,1.9828999999985086,1.999600000001493,2.016299999997024,2.0330000000000013,2.051000000000002,2.0690000000000026,2.083500000000001,2.1007999999970224,2.1162999999970253,2.1330000000000027,2.1517000000029824,2.166399999998511,2.183,2.199600000001489,2.2162999999970197,2.2328999999985086,2.2535000000000025,2.286200000002985,2.293299999997025,2.2996000000014902,2.316299999997021,2.3330000000000055,2.349700000002983,2.3662999999970253,2.3830000000000027,2.3996000000014917,2.416399999998511,2.4328999999985115,2.4497000000029843,2.4662999999970197,2.483000000000004,2.4997000000029814,2.516299999997024,2.5330000000000013,2.5497000000029857,2.566500000000005,2.5830000000000055,2.5996000000014945,2.6162999999970253,2.633100000001491,2.64970000000298,2.6662999999970225,2.683,2.699600000001489,2.7162999999970197,2.733000000000004,2.7497000000029814,2.766200000002982,2.7830000000000013,2.7997000000029857,2.816299999997021,2.8330000000000055,2.8497999999970247,2.8662999999970253,2.8828999999985143,2.8996000000014917,2.9162999999970225,2.9328999999985115,2.9497000000029843,2.966399999998515,2.983000000000004,2.999600000001493,3.016200000002982,3.0330000000000013,3.0497999999970204,3.0663999999985094,3.08289999999851,3.0996000000014945,3.1162000000029835,3.1330000000000027,3.1532999999970244,3.167500000000004,3.1828999999985115,3.199600000001489,3.2162999999970197,3.233000000000004,3.249600000001493,3.266299999997024,3.2830000000000013,3.2996000000014902,3.316299999997021,3.3367999999970195,3.3497999999970247,3.3662999999970253,3.3856000000014888,3.3996000000014917,3.4162999999970225,3.4375,3.4497000000029843,3.4662999999970197,3.483000000000004,3.499600000001493,3.5163999999985123,3.5330000000000013,3.5497999999970204]","[1733285721838,1733285721854,1733285721869,1733285721886,1733285721902,1733285721919,1733285721935,1733285721952,1733285721972,1733285721985,1733285722002,1733285722019,1733285722036,1733285722052,1733285722070,1733285722085,1733285722102,1733285722119,1733285722137,1733285722152,1733285722170,1733285722187,1733285722204,1733285722219,1733285722236,1733285722252,1733285722269,1733285722285,1733285722302,1733285722319,1733285722335,1733285722352,1733285722369,1733285722389,1733285722404,1733285722419,1733285722438,1733285722452,1733285722469,1733285722486,1733285722502,1733285722519,1733285722538,1733285722552,1733285722569,1733285722586,1733285722605,1733285722619,1733285722635,1733285722652,1733285722670,1733285722685,1733285722702,1733285722719,1733285722735,1733285722752,1733285722769,1733285722789,1733285722804,1733285722819,1733285722835,1733285722852,1733285722869,1733285722887,1733285722905,1733285722919,1733285722935,1733285722952,1733285722969,1733285722987,1733285723002,1733285723020,1733285723035,1733285723052,1733285723069,1733285723087,1733285723102,1733285723119,1733285723135,1733285723152,1733285723169,1733285723186,1733285723204,1733285723219,1733285723236,1733285723258,1733285723269,1733285723285,1733285723307,1733285723319,1733285723335,1733285723352,1733285723369,1733285723387,1733285723402,1733285723419,1733285723435,1733285723452,1733285723469,1733285723488,1733285723503,1733285723519,1733285723535,1733285723552,1733285723569,1733285723589,1733285723603,1733285723619,1733285723636,1733285723652,1733285723669,1733285723685,1733285723705,1733285723719,1733285723735,1733285723752,1733285723769,1733285723786,1733285723802,1733285723819,1733285723835,1733285723852,1733285723869,1733285723887,1733285723905,1733285723919,1733285723937,1733285723952,1733285723969,1733285723987,1733285724002,1733285724019,1733285724035,1733285724052,1733285724069,1733285724089,1733285724122,1733285724129,1733285724135,1733285724152,1733285724169,1733285724185,1733285724202,1733285724219,1733285724235,1733285724252,1733285724269,1733285724285,1733285724302,1733285724319,1733285724335,1733285724352,1733285724369,1733285724385,1733285724402,1733285724419,1733285724435,1733285724452,1733285724469,1733285724485,1733285724502,1733285724519,1733285724535,1733285724552,1733285724569,1733285724585,1733285724602,1733285724619,1733285724635,1733285724652,1733285724669,1733285724686,1733285724702,1733285724719,1733285724735,1733285724752,1733285724769,1733285724785,1733285724802,1733285724819,1733285724835,1733285724852,1733285724869,1733285724886,1733285724902,1733285724919,1733285724935,1733285724952,1733285724969,1733285724989,1733285725003,1733285725019,1733285725035,1733285725052,1733285725069,1733285725085,1733285725102,1733285725119,1733285725135,1733285725152,1733285725173,1733285725186,1733285725202,1733285725221,1733285725235,1733285725252,1733285725273,1733285725285,1733285725302,1733285725319,1733285725335,1733285725352,1733285725369,1733285725386]","[[1050.4,727.2],[1057,749],[1047.8,751.5],[1041.3,762.4],[1041.3,762.4],[1040.9,804.5],[1008.2,811.4],[1005.9,767.9],[1012.6,736.5],[1012.6,736.5],[1017.5,694.5],[1039,646.6],[1074.8,603],[1123.2,559],[1161.8,525.5],[1163.3,448],[1183.9,394.4],[1183.4,357.6],[1194.1,356.2],[1195.8,342.7],[1207.3,348],[1202.2,359.2],[1171.4,357.7],[1132.7,354.9],[1116.2,347],[1134.1,374.7],[1132.9,378.5],[1141.6,389.1],[1160.9,403.7],[1147.2,395.7],[1131.1,379.4],[1138.1,376.6],[1155.2,378],[1154.8,391.7],[1142,400],[1124.5,398.5],[1107,397],[1078.6,367.2],[1050.2,344.8],[1052.8,369.8],[1085.9,371.8],[1062.8,394.9],[1057.2,383.4],[1064.4,361.3],[1055.9,390.4],[1068.2,446],[1060.8,457.9],[1054.4,491.3],[1022.2,514.5],[1015.4,507],[982.1,514.8],[982.1,514.8],[934.4,487.7],[863.5,494.6],[799.5,497.8],[738,455.7],[680.9,405.4],[629.4,399.2],[605.9,380.4],[621.2,366.2],[613.1,357.9],[577.9,361],[615.3,348],[661.9,344.9],[698,330],[747.3,309.2],[769.1,280.1],[805,250.6],[813.7,248.5],[809.4,244.6],[806.5,243.5],[802.4,259.1],[839.3,280.8],[830.6,286.2],[867.6,314.1],[902.6,339.3],[902.6,339.3],[944.6,364.3],[944.6,364.3],[996.2,380.3],[996.2,380.3],[1020.8,409.5],[1034.5,440],[1034.5,440],[1020.6,443.7],[1039.6,436],[1039.6,436],[993,425.5],[960.8,443.4],[960.8,443.4],[886.5,454.3],[819.5,439.3],[756,420.5],[699.8,428.1],[665.1,405.1],[630.3,367],[645.5,365.7],[652.1,355.4],[658.2,358.2],[687.4,332.5],[716.6,306.8],[797.4,322.9],[874.7,342.8],[930.2,334.1],[983.4,329.1],[1068.5,364],[1100.6,359.9],[1115.3,372.8],[1140,388.2],[1203.8,375.7],[1276.6,373.4],[1282.3,345.8],[1286.1,343.4],[1257.4,350.1],[1241.7,374.3],[1212.9,375.8],[1206.9,424.7],[1231.4,463.8],[1200.5,479.3],[1135.1,529.8],[1084.4,598.1],[1043.9,678.5],[1005.3,733.7],[994.2,752.2],[977.1,752.1],[978.7,713.2],[989.7,651.2],[990.9,573.2],[1037.5,516.3],[1080.8,471.4],[1080.8,471.4],[1085.1,399],[1106.9,320.8],[1143.5,246.1],[1190,210.2],[1259.8,175.5],[1259.8,175.5],[1232.3,173.7],[1232.3,173.7],[1220,180.5],[1145.1,206.6],[1086.7,206.2],[1035.3,197.8],[1016.4,183.1],[954,179.3],[909.4,170.7],[806.8,189.5],[706.4,181],[696.1,173.6],[694.1,161.4],[751.4,138.7],[746.3,191],[737.5,239.3],[725.2,259.5],[769.9,266.1],[758.1,275.1],[801,256.9],[852.3,273.5],[884.3,291.5],[891.6,303.2],[859.3,350],[872.9,348.3],[902.8,314.1],[926.9,310.1],[938.5,310.8],[974,310.4],[992.9,312.4],[961.2,318.8],[955.6,314.1],[948.2,313.8],[975,272.3],[975,272.3],[996.9,255.3],[1019.2,249.7],[1033.6,247.8],[1020.3,239.4],[1030.4,225.3],[1030.4,225.3],[1024,231.8],[1034.6,208.5],[996.6,204.1],[980.5,194.8],[990.5,184.7],[990.5,184.7],[977.9,158.8],[964.5,154.3],[907.4,160.6],[881.8,176.3],[825.4,207.7],[830.6,206],[786.4,235.9],[782.4,247.3],[726.2,269.2],[685.1,297.7],[635.7,317.8],[593.4,318.8],[594.8,309],[583.5,286.6],[583.5,286.6],[595.3,255.8],[593.7,242.3],[593.7,242.3],[594.1,256.2],[567.4,257.9],[567.4,257.9],[571,254],[546.7,283],[546.7,283],[553.3,299.6],[553.3,299.6],[562.5,304.3],[529.3,337.3],[499.5,393.4],[454,447.9]]","[0,0.5333]","[0.5333,0.5333]","[-0.5333,-0.5333]","[-0.5333,0]","[0,-0.5333]","[0.5333,-0.5333]","[0,0]","[0.5333,0]",0,1,1,1,1,3,Monitor,5,5,13,7
