inst1_resp.keys,inst1_resp.rt,calibrationMouse.x,calibrationMouse.y,calibrationMouse.leftButton,calibrationMouse.midButton,calibrationMouse.rightButton,calibrationClick.x,calibrationClick.y,calibrationClick.leftButton,calibrationClick.midButton,calibrationClick.rightButton,calibrationClick.clicked_name,trialsc.thisRepN,trialsc.thisTrialN,trialsc.thisN,trialsc.thisIndex,trialsc.ran,calibration_x,calibration_y,participant,session,date,expName,psychopyVersion,OS,frameRate,ScreenRes_pixels,Camera_pixels,mouse_2.x,mouse_2.y,mouse_2.leftButton,mouse_2.midButton,mouse_2.rightButton,mouse_2.time,mouse_2.clicked_name,mouse.x,mouse.y,mouse.leftButton,mouse.midButton,mouse.rightButton,mouse.time,mouse.clicked_name,Choice,Trial,TrialDuration,MOUSE_GAZE,ET_GAZE,ET_GAZE_x_T,time,unixTime,ET_GAZE_NF,Loc_Option1_label,Loc_Option2_label,Loc_Cost_label,Loc_Qual_label,Loc_Option1_cost,Loc_Option2_cost,Loc_Option1_quality,Loc_Option2_quality,trials.thisRepN,trials.thisTrialN,trials.thisN,trials.thisIndex,trials.ran,Block,Device,cost1,qual1,cost2,qual2
space,4.5757,0.146875,-0.181481481,1,0,0,0.329166667,0.675925926,1,0,0,calibration_square,0,0,0,18,1,0.33,0.67,14,001,2024-12-04_10h34.45.459,Attention_exp_legacy,2023.1.0,Win32,59.88023952,,,,,,,,,,,,,,,,,,,,,,,,,,,,,,,,,,,,,,,,,,,,
,,,,,,,0.330208333,-0.662962963,1,0,0,calibration_square,0,1,1,14,1,0.33,-0.67,14,001,2024-12-04_10h34.45.459,Attention_exp_legacy,2023.1.0,Win32,59.88023952,,,,,,,,,,,,,,,,,,,,,,,,,,,,,,,,,,,,,,,,,,,,
,,,,,,,-0.320833333,0.322222222,1,0,0,calibration_square,0,2,2,7,1,-0.33,0.33,14,001,2024-12-04_10h34.45.459,Attention_exp_legacy,2023.1.0,Win32,59.88023952,,,,,,,,,,,,,,,,,,,,,,,,,,,,,,,,,,,,,,,,,,,,
,,,,,,,-0.328125,0.668518519,1,0,0,calibration_square,0,3,3,8,1,-0.33,0.67,14,001,2024-12-04_10h34.45.459,Attention_exp_legacy,2023.1.0,Win32,59.88023952,,,,,,,,,,,,,,,,,,,,,,,,,,,,,,,,,,,,,,,,,,,,
,,,,,,,0.004166667,-0.331481481,1,0,0,calibration_square,0,4,4,10,1,0,-0.33,14,001,2024-12-04_10h34.45.459,Attention_exp_legacy,2023.1.0,Win32,59.88023952,,,,,,,,,,,,,,,,,,,,,,,,,,,,,,,,,,,,,,,,,,,,
,,,,,,,0.666666667,0.668518519,1,0,0,calibration_square,0,5,5,19,1,0.67,0.67,14,001,2024-12-04_10h34.45.459,Attention_exp_legacy,2023.1.0,Win32,59.88023952,,,,,,,,,,,,,,,,,,,,,,,,,,,,,,,,,,,,,,,,,,,,
,,,,,,,-0.327083333,-0.664814815,1,0,0,calibration_square,0,6,6,4,1,-0.33,-0.67,14,001,2024-12-04_10h34.45.459,Attention_exp_legacy,2023.1.0,Win32,59.88023952,,,,,,,,,,,,,,,,,,,,,,,,,,,,,,,,,,,,,,,,,,,,
,,,,,,,-0.667708333,-0.322222222,1,0,0,calibration_square,0,7,7,1,1,-0.67,-0.33,14,001,2024-12-04_10h34.45.459,Attention_exp_legacy,2023.1.0,Win32,59.88023952,,,,,,,,,,,,,,,,,,,,,,,,,,,,,,,,,,,,,,,,,,,,
,,,,,,,0.009375,0.007407407,1,0,0,calibration_square,0,8,8,11,1,0,0,14,001,2024-12-04_10h34.45.459,Attention_exp_legacy,2023.1.0,Win32,59.88023952,,,,,,,,,,,,,,,,,,,,,,,,,,,,,,,,,,,,,,,,,,,,
,,,,,,,0.328125,0.325925926,1,0,0,calibration_square,0,9,9,17,1,0.33,0.33,14,001,2024-12-04_10h34.45.459,Attention_exp_legacy,2023.1.0,Win32,59.88023952,,,,,,,,,,,,,,,,,,,,,,,,,,,,,,,,,,,,,,,,,,,,
,,,,,,,-0.329166667,-0.007407407,1,0,0,calibration_square,0,10,10,6,1,-0.33,0,14,001,2024-12-04_10h34.45.459,Attention_exp_legacy,2023.1.0,Win32,59.88023952,,,,,,,,,,,,,,,,,,,,,,,,,,,,,,,,,,,,,,,,,,,,
,,,,,,,0.327083333,-0.011111111,1,0,0,,0,11,11,16,1,0.33,0,14,001,2024-12-04_10h34.45.459,Attention_exp_legacy,2023.1.0,Win32,59.88023952,,,,,,,,,,,,,,,,,,,,,,,,,,,,,,,,,,,,,,,,,,,,
,,,,,,,0.341666667,-0.32962963,1,0,0,,0,12,12,15,1,0.33,-0.33,14,001,2024-12-04_10h34.45.459,Attention_exp_legacy,2023.1.0,Win32,59.88023952,,,,,,,,,,,,,,,,,,,,,,,,,,,,,,,,,,,,,,,,,,,,
,,,,,,,-0.664583333,-0.67037037,1,0,0,calibration_square,0,13,13,0,1,-0.67,-0.67,14,001,2024-12-04_10h34.45.459,Attention_exp_legacy,2023.1.0,Win32,59.88023952,,,,,,,,,,,,,,,,,,,,,,,,,,,,,,,,,,,,,,,,,,,,
,,,,,,,-0.677083333,0.316666667,1,0,0,,0,14,14,3,1,-0.67,0.33,14,001,2024-12-04_10h34.45.459,Attention_exp_legacy,2023.1.0,Win32,59.88023952,,,,,,,,,,,,,,,,,,,,,,,,,,,,,,,,,,,,,,,,,,,,
,,,,,,,-0.334375,-0.35,1,0,0,,0,15,15,5,1,-0.33,-0.33,14,001,2024-12-04_10h34.45.459,Attention_exp_legacy,2023.1.0,Win32,59.88023952,,,,,,,,,,,,,,,,,,,,,,,,,,,,,,,,,,,,,,,,,,,,
,,,,,,,0.005208333,0.333333333,1,0,0,calibration_square,0,16,16,12,1,0,0.33,14,001,2024-12-04_10h34.45.459,Attention_exp_legacy,2023.1.0,Win32,59.88023952,,,,,,,,,,,,,,,,,,,,,,,,,,,,,,,,,,,,,,,,,,,,
,,,,,,,0.66875,-0.662962963,1,0,0,calibration_square,0,17,17,20,1,0.67,-0.67,14,001,2024-12-04_10h34.45.459,Attention_exp_legacy,2023.1.0,Win32,59.88023952,,,,,,,,,,,,,,,,,,,,,,,,,,,,,,,,,,,,,,,,,,,,
,,,,,,,-0.002083333,-0.685185185,1,0,0,,0,18,18,9,1,0,-0.67,14,001,2024-12-04_10h34.45.459,Attention_exp_legacy,2023.1.0,Win32,59.88023952,,,,,,,,,,,,,,,,,,,,,,,,,,,,,,,,,,,,,,,,,,,,
,,,,,,,0.003125,0.675925926,1,0,0,calibration_square,0,19,19,13,1,0,0.67,14,001,2024-12-04_10h34.45.459,Attention_exp_legacy,2023.1.0,Win32,59.88023952,,,,,,,,,,,,,,,,,,,,,,,,,,,,,,,,,,,,,,,,,,,,
,,,,,,,-0.660416667,-0.016666667,1,0,0,,0,20,20,2,1,-0.67,0,14,001,2024-12-04_10h34.45.459,Attention_exp_legacy,2023.1.0,Win32,59.88023952,,,,,,,,,,,,,,,,,,,,,,,,,,,,,,,,,,,,,,,,,,,,
,,,,,,,,,,,,,,,,,,,,14,001,2024-12-04_10h34.45.459,Attention_exp_legacy,2023.1.0,Win32,59.88023952,"[1920,1080]","[640,480]",[-0.0020833333333333333],[-0.49074074074074076],[1],[0],[0],[11.067500000000003],"[""StartButton""]",[0.3770833333333333],[0.3685185185185185],[1],[0],[0],[4.185699999995535],"[""Option2_label""]",Option2_label,1,5.2088,"[[-0.0020833333333333333,-0.49074074074074076],[-0.0020833333333333333,-0.49074074074074076],[-0.0020833333333333333,-0.49074074074074076],[-0.0020833333333333333,-0.49074074074074076],[-0.0020833333333333333,-0.49074074074074076],[-0.0020833333333333333,-0.49074074074074076],[-0.0020833333333333333,-0.49074074074074076],[-0.0020833333333333333,-0.49074074074074076],[-0.0020833333333333333,-0.49074074074074076],[-0.0020833333333333333,-0.49074074074074076],[-0.0020833333333333333,-0.49074074074074076],[-0.0020833333333333333,-0.49074074074074076],[-0.0020833333333333333,-0.49074074074074076],[-0.0020833333333333333,-0.49074074074074076],[-0.0020833333333333333,-0.49074074074074076],[-0.0020833333333333333,-0.49074074074074076],[-0.0020833333333333333,-0.49074074074074076],[-0.0020833333333333333,-0.49074074074074076],[-0.0020833333333333333,-0.49074074074074076],[-0.0020833333333333333,-0.49074074074074076],[-0.0020833333333333333,-0.49074074074074076],[-0.0020833333333333333,-0.49074074074074076],[-0.0020833333333333333,-0.49074074074074076],[-0.0020833333333333333,-0.49074074074074076],[-0.0020833333333333333,-0.49074074074074076],[-0.0020833333333333333,-0.49074074074074076],[-0.0020833333333333333,-0.49074074074074076],[-0.0020833333333333333,-0.49074074074074076],[-0.0020833333333333333,-0.49074074074074076],[-0.0020833333333333333,-0.49074074074074076],[-0.0020833333333333333,-0.49074074074074076],[-0.0020833333333333333,-0.49074074074074076],[-0.0020833333333333333,-0.49074074074074076],[-0.0020833333333333333,-0.49074074074074076],[-0.0020833333333333333,-0.49074074074074076],[-0.0020833333333333333,-0.49074074074074076],[-0.0020833333333333333,-0.49074074074074076],[-0.0020833333333333333,-0.49074074074074076],[-0.0020833333333333333,-0.49074074074074076],[-0.0020833333333333333,-0.49074074074074076],[-0.0020833333333333333,-0.49074074074074076],[-0.0020833333333333333,-0.49074074074074076],[-0.0020833333333333333,-0.49074074074074076],[-0.0020833333333333333,-0.49074074074074076],[-0.0020833333333333333,-0.49074074074074076],[-0.0020833333333333333,-0.49074074074074076],[-0.0020833333333333333,-0.49074074074074076],[-0.0020833333333333333,-0.49074074074074076],[-0.0020833333333333333,-0.49074074074074076],[-0.0020833333333333333,-0.49074074074074076],[-0.0020833333333333333,-0.49074074074074076],[-0.0020833333333333333,-0.49074074074074076],[-0.0020833333333333333,-0.49074074074074076],[-0.0020833333333333333,-0.49074074074074076],[-0.0020833333333333333,-0.49074074074074076],[-0.0020833333333333333,-0.49074074074074076],[-0.0020833333333333333,-0.49074074074074076],[-0.0020833333333333333,-0.49074074074074076],[-0.0020833333333333333,-0.49074074074074076],[-0.0020833333333333333,-0.49074074074074076],[-0.0020833333333333333,-0.49074074074074076],[-0.0020833333333333333,-0.49074074074074076],[-0.0020833333333333333,-0.49074074074074076],[-0.0020833333333333333,-0.49074074074074076],[-0.0020833333333333333,-0.49074074074074076],[-0.0020833333333333333,-0.49074074074074076],[-0.0020833333333333333,-0.49074074074074076],[-0.0020833333333333333,-0.49074074074074076],[-0.0020833333333333333,-0.49074074074074076],[-0.0020833333333333333,-0.49074074074074076],[-0.0020833333333333333,-0.49074074074074076],[-0.0020833333333333333,-0.49074074074074076],[-0.0020833333333333333,-0.49074074074074076],[-0.0020833333333333333,-0.49074074074074076],[-0.0020833333333333333,-0.49074074074074076],[-0.0020833333333333333,-0.49074074074074076],[-0.0020833333333333333,-0.49074074074074076],[-0.0020833333333333333,-0.49074074074074076],[-0.0020833333333333333,-0.49074074074074076],[-0.0020833333333333333,-0.49074074074074076],[-0.0020833333333333333,-0.49074074074074076],[-0.0020833333333333333,-0.49074074074074076],[-0.0020833333333333333,-0.49074074074074076],[-0.0020833333333333333,-0.49074074074074076],[-0.0020833333333333333,-0.49074074074074076],[-0.0020833333333333333,-0.49074074074074076],[-0.0020833333333333333,-0.49074074074074076],[-0.0020833333333333333,-0.49074074074074076],[-0.0020833333333333333,-0.49074074074074076],[-0.0020833333333333333,-0.49074074074074076],[-0.0020833333333333333,-0.49074074074074076],[-0.0020833333333333333,-0.49074074074074076],[-0.0020833333333333333,-0.49074074074074076],[-0.0020833333333333333,-0.49074074074074076],[-0.0020833333333333333,-0.49074074074074076],[-0.0020833333333333333,-0.49074074074074076],[-0.0020833333333333333,-0.49074074074074076],[-0.0020833333333333333,-0.49074074074074076],[-0.0020833333333333333,-0.49074074074074076],[-0.0020833333333333333,-0.49074074074074076],[-0.0020833333333333333,-0.49074074074074076],[-0.0020833333333333333,-0.49074074074074076],[-0.0020833333333333333,-0.49074074074074076],[-0.0020833333333333333,-0.49074074074074076],[-0.0020833333333333333,-0.49074074074074076],[-0.0020833333333333333,-0.49074074074074076],[-0.0020833333333333333,-0.49074074074074076],[-0.0020833333333333333,-0.49074074074074076],[-0.0020833333333333333,-0.49074074074074076],[-0.0020833333333333333,-0.49074074074074076],[-0.0020833333333333333,-0.49074074074074076],[-0.0020833333333333333,-0.49074074074074076],[-0.0020833333333333333,-0.49074074074074076],[-0.0020833333333333333,-0.49074074074074076],[-0.0020833333333333333,-0.49074074074074076],[-0.0020833333333333333,-0.49074074074074076],[-0.0020833333333333333,-0.49074074074074076],[-0.0020833333333333333,-0.49074074074074076],[-0.0020833333333333333,-0.49074074074074076],[-0.0020833333333333333,-0.49074074074074076],[-0.0020833333333333333,-0.49074074074074076],[-0.0020833333333333333,-0.49074074074074076],[-0.0020833333333333333,-0.49074074074074076],[-0.0020833333333333333,-0.49074074074074076],[-0.0020833333333333333,-0.49074074074074076],[-0.0020833333333333333,-0.49074074074074076],[-0.0020833333333333333,-0.49074074074074076],[-0.0020833333333333333,-0.49074074074074076],[-0.0020833333333333333,-0.49074074074074076],[-0.0020833333333333333,-0.49074074074074076],[-0.0020833333333333333,-0.49074074074074076],[-0.0020833333333333333,-0.49074074074074076],[-0.0020833333333333333,-0.49074074074074076],[-0.0020833333333333333,-0.49074074074074076],[-0.0020833333333333333,-0.49074074074074076],[-0.0020833333333333333,-0.49074074074074076],[-0.0020833333333333333,-0.49074074074074076],[-0.0020833333333333333,-0.49074074074074076],[-0.0020833333333333333,-0.49074074074074076],[-0.0020833333333333333,-0.49074074074074076],[-0.0020833333333333333,-0.49074074074074076],[-0.0020833333333333333,-0.49074074074074076],[-0.0020833333333333333,-0.49074074074074076],[-0.0020833333333333333,-0.49074074074074076],[-0.0020833333333333333,-0.49074074074074076],[-0.0020833333333333333,-0.49074074074074076],[-0.0020833333333333333,-0.49074074074074076],[-0.0020833333333333333,-0.49074074074074076],[-0.0020833333333333333,-0.49074074074074076],[-0.0020833333333333333,-0.49074074074074076],[-0.0020833333333333333,-0.49074074074074076],[-0.0020833333333333333,-0.49074074074074076],[-0.0020833333333333333,-0.49074074074074076],[-0.0020833333333333333,-0.49074074074074076],[-0.0020833333333333333,-0.49074074074074076],[-0.0020833333333333333,-0.49074074074074076],[-0.0020833333333333333,-0.49074074074074076],[-0.0020833333333333333,-0.49074074074074076],[-0.0020833333333333333,-0.49074074074074076],[-0.0020833333333333333,-0.49074074074074076],[-0.0020833333333333333,-0.49074074074074076],[-0.0020833333333333333,-0.49074074074074076],[0.004166666666666667,-0.44074074074074077],[0.028125,-0.30925925925925923],[0.059375,-0.18703703703703703],[0.07083333333333333,-0.11296296296296296],[0.08020833333333334,-0.08148148148148149],[0.08958333333333333,-0.03333333333333333],[0.1,0.011111111111111112],[0.11354166666666667,0.05555555555555555],[0.128125,0.09259259259259259],[0.14375,0.13148148148148148],[0.15416666666666667,0.15185185185185185],[0.165625,0.16666666666666666],[0.18020833333333333,0.18333333333333332],[0.19583333333333333,0.20185185185185187],[0.2125,0.22037037037037038],[0.23541666666666666,0.24259259259259258],[0.24270833333333333,0.24814814814814815],[0.259375,0.26481481481481484],[0.27708333333333335,0.2777777777777778],[0.29583333333333334,0.29074074074074074],[0.321875,0.30925925925925923],[0.33958333333333335,0.32407407407407407],[0.353125,0.337037037037037],[0.3645833333333333,0.34444444444444444],[0.3729166666666667,0.35555555555555557],[0.378125,0.3611111111111111],[0.3854166666666667,0.3685185185185185],[0.4,0.37777777777777777],[0.4125,0.3888888888888889],[0.42604166666666665,0.39814814814814814],[0.43645833333333334,0.4074074074074074],[0.44166666666666665,0.4111111111111111],[0.44479166666666664,0.412962962962963],[0.44479166666666664,0.4148148148148148],[0.44479166666666664,0.4148148148148148],[0.44479166666666664,0.4166666666666667],[0.44479166666666664,0.4166666666666667],[0.44479166666666664,0.4166666666666667],[0.44479166666666664,0.4166666666666667],[0.44479166666666664,0.4166666666666667],[0.44479166666666664,0.4166666666666667],[0.44479166666666664,0.4166666666666667],[0.44479166666666664,0.4222222222222222],[0.44479166666666664,0.42592592592592593],[0.440625,0.4351851851851852],[0.4375,0.4425925925925926],[0.425,0.45185185185185184],[0.4114583333333333,0.45925925925925926],[0.4010416666666667,0.46296296296296297],[0.38958333333333334,0.46296296296296297],[0.378125,0.46296296296296297],[0.3697916666666667,0.4537037037037037],[0.36770833333333336,0.44814814814814813],[0.36666666666666664,0.44814814814814813],[0.365625,0.4444444444444444],[0.365625,0.44074074074074077],[0.36666666666666664,0.42777777777777776],[0.36666666666666664,0.4166666666666667],[0.36770833333333336,0.40185185185185185],[0.37083333333333335,0.3888888888888889],[0.375,0.37962962962962965],[0.375,0.37592592592592594],[0.37604166666666666,0.37222222222222223],[0.3770833333333333,0.3685185185185185],[0.3770833333333333,0.3685185185185185],[0.3770833333333333,0.3685185185185185],[0.3770833333333333,0.3685185185185185],[0.3770833333333333,0.3685185185185185],[0.3770833333333333,0.3685185185185185],[0.3770833333333333,0.3685185185185185],[0.3770833333333333,0.3685185185185185],[0.3770833333333333,0.3685185185185185],[0.3770833333333333,0.3685185185185185],[0.3770833333333333,0.3685185185185185],[0.3770833333333333,0.3685185185185185],[0.3770833333333333,0.3685185185185185],[0.3770833333333333,0.3685185185185185],[0.3770833333333333,0.3685185185185185],[0.3770833333333333,0.3685185185185185],[0.3770833333333333,0.3685185185185185],[0.3770833333333333,0.3685185185185185],[0.3770833333333333,0.3685185185185185],[0.3770833333333333,0.3685185185185185],[0.3770833333333333,0.3685185185185185],[0.3770833333333333,0.3685185185185185],[0.3770833333333333,0.3685185185185185],[0.3770833333333333,0.3685185185185185],[0.3770833333333333,0.3685185185185185],[0.3770833333333333,0.3685185185185185],[0.3770833333333333,0.3685185185185185],[0.3770833333333333,0.3685185185185185],[0.3770833333333333,0.3685185185185185],[0.3770833333333333,0.3685185185185185],[0.3770833333333333,0.3685185185185185],[0.3770833333333333,0.3685185185185185],[0.3770833333333333,0.3685185185185185],[0.3770833333333333,0.3685185185185185],[0.3770833333333333,0.3685185185185185],[0.3770833333333333,0.3685185185185185],[0.3770833333333333,0.3685185185185185],[0.3770833333333333,0.3685185185185185],[0.3770833333333333,0.3685185185185185],[0.3770833333333333,0.3685185185185185],[0.3770833333333333,0.3685185185185185],[0.3770833333333333,0.3685185185185185],[0.3770833333333333,0.3685185185185185],[0.3770833333333333,0.3685185185185185],[0.3770833333333333,0.3685185185185185],[0.3770833333333333,0.3685185185185185],[0.3770833333333333,0.3685185185185185],[0.3770833333333333,0.3685185185185185],[0.3770833333333333,0.3685185185185185],[0.3770833333333333,0.3685185185185185],[0.3770833333333333,0.3685185185185185],[0.3770833333333333,0.3685185185185185],[0.3770833333333333,0.3685185185185185],[0.3770833333333333,0.3685185185185185],[0.3770833333333333,0.3685185185185185],[0.3770833333333333,0.3685185185185185],[0.3770833333333333,0.3685185185185185],[0.3770833333333333,0.3685185185185185],[0.3770833333333333,0.3685185185185185],[0.3770833333333333,0.3685185185185185],[0.3770833333333333,0.3685185185185185],[0.3770833333333333,0.3685185185185185],[0.3770833333333333,0.3685185185185185],[0.3770833333333333,0.3685185185185185],[0.3770833333333333,0.3685185185185185],[0.3770833333333333,0.3685185185185185],[0.3770833333333333,0.3685185185185185],[0.3770833333333333,0.3685185185185185],[0.3770833333333333,0.3685185185185185],[0.3770833333333333,0.3685185185185185],[0.3770833333333333,0.3685185185185185],[0.3770833333333333,0.3685185185185185],[0.3770833333333333,0.3685185185185185],[0.3770833333333333,0.3685185185185185],[0.3770833333333333,0.3685185185185185],[0.3770833333333333,0.3685185185185185],[0.3770833333333333,0.3685185185185185],[0.3770833333333333,0.3685185185185185],[0.3770833333333333,0.3685185185185185],[0.3770833333333333,0.3685185185185185],[0.3770833333333333,0.3685185185185185],[0.3770833333333333,0.3685185185185185],[0.3770833333333333,0.3685185185185185],[0.3770833333333333,0.3685185185185185],[0.3770833333333333,0.3685185185185185],[0.3770833333333333,0.3685185185185185],[0.3770833333333333,0.3685185185185185]]","[[0.18958333333333333,0.4366666666666666],[0.18958333333333333,0.4366666666666666],[0.18958333333333333,0.4366666666666666],[0.17083333333333334,0.37666666666666665],[0.17083333333333334,0.37666666666666665],[0.14541666666666658,0.29981481481481476],[0.14541666666666658,0.29981481481481476],[0.12947916666666662,0.2183333333333333],[0.12947916666666662,0.2183333333333333],[0.12999999999999995,0.15111111111111114],[0.12999999999999995,0.15111111111111114],[0.134375,0.0948148148148149],[0.134375,0.0948148148148149],[0.15031249999999996,0.042407407407407366],[0.15031249999999996,0.042407407407407366],[0.13447916666666657,-0.024074074074074074],[0.13447916666666657,-0.024074074074074074],[0.13052083333333328,-0.0705555555555556],[0.13052083333333328,-0.0705555555555556],[0.11895833333333337,-0.08870370370370366],[0.11895833333333337,-0.08870370370370366],[0.07666666666666658,-0.11259259259259262],[0.07666666666666658,-0.11259259259259262],[0.019791666666666666,-0.15351851851851847],[0.019791666666666666,-0.15351851851851847],[-0.035208333333333286,-0.17537037037037034],[-0.035208333333333286,-0.17537037037037034],[-0.08125,-0.18648148148148147],[-0.1554166666666667,-0.2],[-0.1554166666666667,-0.2],[-0.21802083333333327,-0.20203703703703707],[-0.21802083333333327,-0.20203703703703707],[-0.2865625,-0.15037037037037035],[-0.34354166666666663,-0.09055555555555551],[-0.34354166666666663,-0.09055555555555551],[-0.4209375,-0.05851851851851856],[-0.5008333333333334,-0.062037037037037036],[-0.535625,-0.005185185185185101],[-0.5488541666666666,0.03759259259259251],[-0.5488541666666666,0.03759259259259251],[-0.5679166666666667,0.04129629629629621],[-0.5533333333333333,0.06518518518518526],[-0.5296875,0.10111111111111115],[-0.5296875,0.10111111111111115],[-0.46635416666666674,0.08759259259259251],[-0.46635416666666674,0.08759259259259251],[-0.40864583333333326,0.01648148148148144],[-0.350625,-0.03944444444444436],[-0.2967708333333333,-0.075],[-0.2328125,-0.07314814814814814],[-0.2328125,-0.07314814814814814],[-0.1664583333333333,-0.13407407407407404],[-0.10645833333333338,-0.18851851851851853],[-0.03583333333333331,-0.20611111111111113],[0.01416666666666669,-0.24000000000000005],[0.03729166666666662,-0.2631481481481482],[0.012083333333333357,-0.2633333333333333],[-0.06510416666666667,-0.28351851851851856],[-0.12770833333333337,-0.2866666666666667],[-0.17749999999999996,-0.2948148148148148],[-0.21843750000000003,-0.3264814814814815],[-0.28187500000000004,-0.33129629629629626],[-0.34489583333333335,-0.32537037037037037],[-0.4079166666666667,-0.34203703703703703],[-0.4903125,-0.3688888888888889],[-0.5379166666666666,-0.36018518518518516],[-0.5855208333333334,-0.3514814814814815],[-0.5795833333333333,-0.2822222222222222],[-0.5736458333333334,-0.21296296296296297],[-0.5682291666666667,-0.1824074074074074],[-0.59,-0.14222222222222225],[-0.5917708333333334,-0.11166666666666669],[-0.5932291666666667,-0.02555555555555547],[-0.5954166666666667,0.04759259259259268],[-0.6046875,0.12037037037037036],[-0.621875,0.14685185185185176],[-0.6023958333333332,0.1977777777777777],[-0.5863541666666666,0.2338888888888888],[-0.5703125,0.2699999999999999],[-0.5903125,0.27037037037037037],[-0.5939583333333334,0.2935185185185185],[-0.5938541666666667,0.32333333333333336],[-0.5940624999999999,0.2975925925925927],[-0.5652083333333333,0.31814814814814807],[-0.5292708333333334,0.33907407407407414],[-0.4834375,0.3762962962962964],[-0.47583333333333333,0.41740740740740734],[-0.47302083333333333,0.4088888888888888],[-0.4702083333333333,0.40037037037037043],[-0.3985416666666667,0.4111111111111111],[-0.32385416666666667,0.4094444444444445],[-0.23781249999999995,0.42981481481481487],[-0.15177083333333338,0.45018518518518524],[-0.09406249999999995,0.45981481481481473],[-0.03989583333333328,0.4390740740740741],[0.004375000000000047,0.4020370370370371],[0.03427083333333331,0.35240740740740734],[0.0796875,0.3224074074074075],[0.13291666666666657,0.28962962962962957],[0.11989583333333324,0.29870370370370364],[0.13645833333333332,0.33277777777777784],[0.13552083333333323,0.31851851851851853],[0.1345833333333334,0.3042592592592592],[0.1421875,0.2927777777777778],[0.1490624999999999,0.2946296296296297],[0.17687499999999995,0.31444444444444436],[0.22062499999999996,0.31851851851851853],[0.23552083333333323,0.31240740740740747],[0.24260416666666676,0.30907407407407406],[0.28145833333333337,0.3175925925925926],[0.2907291666666666,0.30111111111111116],[0.3056250000000001,0.2855555555555556],[0.3056250000000001,0.2855555555555556],[0.32052083333333337,0.2699999999999999],[0.32052083333333337,0.2699999999999999],[0.3363541666666668,0.2512962962962964],[0.3478125000000001,0.25018518518518523],[0.33833333333333326,0.23111111111111102],[0.33093750000000005,0.19240740740740736],[0.3471874999999999,0.18129629629629626],[0.36770833333333336,0.16629629629629622],[0.38177083333333334,0.13740740740740748],[0.3929166666666667,0.10574074074074079],[0.41437499999999994,0.11555555555555551],[0.4267708333333334,0.11870370370370374],[0.4267708333333334,0.11870370370370374],[0.43802083333333336,0.14240740740740737],[0.44552083333333337,0.14648148148148152],[0.45302083333333343,0.15055555555555547],[0.4546875,0.16296296296296298],[0.45364583333333336,0.1579629629629629],[0.4538541666666667,0.15240740740740732],[0.45260416666666664,0.1479629629629629],[0.4348958333333333,0.17333333333333337],[0.39333333333333326,0.15759259259259265],[0.3740624999999999,0.13277777777777786],[0.34645833333333326,0.08777777777777773],[0.31708333333333344,0.12611111111111115],[0.2877083333333334,0.16444444444444437],[0.21624999999999991,0.17796296296296302],[0.15031249999999996,0.2014814814814814],[0.07885416666666671,0.2294444444444444],[0.021458333333333357,0.3031481481481482],[0.021458333333333357,0.3031481481481482],[-0.0016666666666666904,0.32685185185185184],[-0.0016666666666666904,0.32685185185185184],[-0.028541666666666642,0.3448148148148149],[-0.028541666666666642,0.3448148148148149],[-0.03572916666666662,0.43185185185185193],[-0.03572916666666662,0.43185185185185193],[-0.029999999999999954,0.49499999999999994],[-0.029999999999999954,0.49499999999999994],[-0.04093749999999995,0.4911111111111112],[-0.04093749999999995,0.4911111111111112],[-0.0359375,0.4727777777777777],[-0.004791666666666691,0.4727777777777777],[-0.004791666666666691,0.4727777777777777],[0.014479166666666644,0.4831481481481481],[0.014479166666666644,0.4831481481481481],[0.04510416666666662,0.48407407407407405],[0.04510416666666662,0.48407407407407405],[0.05479166666666669,0.4064814814814815],[0.05479166666666669,0.4064814814814815],[0.06114583333333338,0.4007407407407407],[0.06114583333333338,0.4007407407407407],[0.0728125000000001,0.41444444444444434],[0.0728125000000001,0.41444444444444434],[0.06864583333333343,0.33537037037037043],[0.0709374999999999,0.2625925925925925],[0.1040625000000001,0.1925925925925926],[0.1040625000000001,0.1925925925925926],[0.11624999999999991,0.15703703703703695],[0.1256249999999999,0.14518518518518514],[0.1256249999999999,0.14518518518518514],[0.17156250000000003,0.12370370370370362],[0.15979166666666675,0.08722222222222227],[0.1564583333333334,0.06611111111111119],[0.10770833333333343,0.015370370370370286],[0.08572916666666662,-0.05888888888888891],[0.033645833333333285,-0.12888888888888894],[-0.03781249999999995,-0.18129629629629626],[-0.05489583333333338,-0.1455555555555556],[-0.06697916666666662,-0.12981481481481486],[-0.0703125,-0.11370370370370367],[-0.07552083333333333,-0.16370370370370366],[-0.06229166666666662,-0.17833333333333334],[-0.06229166666666662,-0.17833333333333334],[-0.04916666666666671,-0.1766666666666666],[-0.04916666666666671,-0.1766666666666666],[-0.002708333333333357,-0.20611111111111113],[0.07864583333333333,-0.192037037037037],[0.15593750000000003,-0.16370370370370366],[0.23854166666666668,-0.13444444444444448],[0.26677083333333323,-0.1933333333333333],[0.26677083333333323,-0.1933333333333333],[0.2960416666666667,-0.19074074074074074],[0.2904166666666666,-0.19888888888888884],[0.26291666666666674,-0.13148148148148148],[0.30135416666666665,-0.15166666666666662],[0.3095833333333334,-0.127962962962963],[0.32916666666666666,-0.14222222222222225],[0.2908333333333334,-0.1588888888888889],[0.26624999999999993,-0.17185185185185187],[0.2599999999999999,-0.11425925925925924],[0.2537499999999999,-0.056666666666666705],[0.22062499999999996,-0.125],[0.2361458333333334,-0.18888888888888888],[0.2730208333333332,-0.21500000000000005],[0.2855208333333332,-0.14759259259259258],[0.3189583333333334,-0.16314814814814818],[0.3415625000000001,-0.12888888888888894],[0.3654166666666666,-0.12833333333333335],[0.3654166666666666,-0.12833333333333335],[0.3877083333333334,-0.1227777777777778],[0.37864583333333335,-0.17037037037037037],[0.384375,-0.25018518518518523],[0.41302083333333334,-0.2442592592592592],[0.44166666666666665,-0.2383333333333333],[0.44479166666666664,-0.30574074074074076],[0.4314583333333334,-0.36259259259259263],[0.4273958333333333,-0.3803703703703703],[0.4523958333333333,-0.39000000000000007],[0.48114583333333344,-0.37888888888888894],[0.510625,-0.3985185185185185],[0.5478125000000001,-0.43648148148148147],[0.5456249999999999,-0.4225925925925926],[0.5463541666666667,-0.43],[0.5754166666666668,-0.4527777777777778],[0.6012500000000001,-0.4559259259259259],[0.6104166666666667,-0.472037037037037],[0.6195833333333333,-0.48814814814814816],[0.5993750000000001,-0.5046296296296297],[0.5430208333333333,-0.5624074074074074],[0.5157291666666666,-0.5298148148148148],[0.4884375000000001,-0.49722222222222223],[0.47937500000000005,-0.4842592592592593],[0.46333333333333326,-0.47388888888888886],[0.4189583333333334,-0.44814814814814813],[0.36041666666666666,-0.44000000000000006],[0.3538541666666667,-0.475],[0.3455208333333334,-0.4690740740740741],[0.3375,-0.47092592592592597],[0.36708333333333343,-0.4468518518518519],[0.37177083333333344,-0.47018518518518515],[0.40114583333333326,-0.5062962962962962],[0.43687500000000007,-0.5424074074074073],[0.4414583333333333,-0.5255555555555556],[0.44385416666666655,-0.515925925925926],[0.4640625,-0.4842592592592593],[0.43093750000000003,-0.4418518518518519],[0.39958333333333323,-0.4403703703703704],[0.3950000000000001,-0.43703703703703706],[0.3889583333333334,-0.4183333333333333],[0.3810416666666666,-0.40981481481481485],[0.3734375,-0.4124074074074074],[0.36729166666666657,-0.4168518518518519],[0.3992708333333333,-0.4716666666666666],[0.4436458333333334,-0.5218518518518519],[0.49093749999999997,-0.5694444444444444],[0.5315624999999999,-0.5900000000000001],[0.5625,-0.5988888888888888],[0.5763541666666666,-0.6212962962962963],[0.5700000000000001,-0.6283333333333333],[0.5657291666666666,-0.6287037037037037],[0.535625,-0.6194444444444445],[0.49541666666666656,-0.6174074074074074],[0.4694791666666667,-0.6085185185185186],[0.43333333333333335,-0.597037037037037],[0.4203125,-0.5388888888888889],[0.41375000000000006,-0.5135185185185185],[0.41916666666666674,-0.5085185185185186],[0.4001041666666666,-0.48703703703703705],[0.40385416666666674,-0.4868518518518518],[0.4178124999999999,-0.46574074074074073],[0.4326041666666666,-0.43037037037037035],[0.4326041666666666,-0.43037037037037035],[0.4491666666666667,-0.40851851851851856],[0.4491666666666667,-0.40851851851851856],[0.44083333333333335,-0.397037037037037],[0.44645833333333323,-0.37648148148148153],[0.44645833333333323,-0.37648148148148153],[0.43125,-0.4383333333333333],[0.42177083333333343,-0.445],[0.42177083333333343,-0.445],[0.42135416666666664,-0.45629629629629626],[0.42135416666666664,-0.45629629629629626],[0.4196875000000001,-0.4705555555555556],[0.4196875000000001,-0.4705555555555556],[0.4148958333333333,-0.4287037037037037],[0.41208333333333325,-0.39666666666666667],[0.3876041666666666,-0.39888888888888885],[0.37437500000000007,-0.3492592592592593],[0.37177083333333344,-0.29611111111111105],[0.3363541666666668,-0.29314814814814816],[0.2920833333333334,-0.2614814814814815],[0.2726041666666667,-0.21796296296296294],[0.240625,-0.17333333333333337],[0.20989583333333334,-0.07999999999999997],[0.17979166666666657,-0.032037037037036954],[0.1462500000000001,0.0035185185185184764],[0.134375,0.07333333333333338],[0.0943749999999999,0.0962962962962963],[0.0943749999999999,0.0962962962962963],[0.05437500000000005,0.11925925925925922],[0.08427083333333343,0.20314814814814824],[0.10760416666666663,0.30111111111111116],[0.12145833333333324,0.3557407407407408],[0.13531250000000009,0.40037037037037043],[0.16333333333333327,0.38370370370370377],[0.1912499999999999,0.3622222222222223],[0.21208333333333323,0.3122222222222223],[0.23291666666666658,0.26222222222222225]]","[[0.18958333333333333,0.4366666666666666,0.00020000000297670795],[0.18958333333333333,0.4366666666666666,0.04049999999999443],[0.18958333333333333,0.4366666666666666,0.04249999999998977],[0.17083333333333334,0.37666666666666665,0.07640000000596103],[0.17083333333333334,0.37666666666666665,0.08449999999999136],[0.14541666666666658,0.29981481481481476,0.11110000000148545],[0.14541666666666658,0.29981481481481476,0.11770000000296932],[0.12947916666666662,0.2183333333333333,0.14300000000000068],[0.12947916666666662,0.2183333333333333,0.15060000000148932],[0.12999999999999995,0.15111111111111114,0.1763000000044599],[0.12999999999999995,0.15111111111111114,0.18320000000296943],[0.134375,0.0948148148148149,0.20980000000446353],[0.134375,0.0948148148148149,0.21730000000447092],[0.15031249999999996,0.042407407407407366,0.24490000000595558],[0.15031249999999996,0.042407407407407366,0.2551000000014767],[0.13447916666666657,-0.024074074074074074,0.2779000000059568],[0.13447916666666657,-0.024074074074074074,0.28390000000595705],[0.13052083333333328,-0.0705555555555556,0.3097000000029766],[0.13052083333333328,-0.0705555555555556,0.31680000000446285],[0.11895833333333337,-0.08870370370370366,0.3431000000014848],[0.11895833333333337,-0.08870370370370366,0.3566000000014782],[0.07666666666666658,-0.11259259259259262,0.37790000000595114],[0.07666666666666658,-0.11259259259259262,0.3843000000044583],[0.019791666666666666,-0.15351851851851847,0.41149999999998954],[0.019791666666666666,-0.15351851851851847,0.41990000000595273],[-0.035208333333333286,-0.17537037037037034,0.4489000000059491],[-0.035208333333333286,-0.17537037037037034,0.46070000000297284],[-0.08125,-0.18648148148148147,0.47560000000147795],[-0.1554166666666667,-0.2,0.49820000000296716],[-0.1554166666666667,-0.2,0.5089000000059514],[-0.21802083333333327,-0.20203703703703707,0.5257000000029706],[-0.21802083333333327,-0.20203703703703707,0.5423000000044595],[-0.2865625,-0.15037037037037035,0.5591000000014787],[-0.34354166666666663,-0.09055555555555551,0.5797000000029726],[-0.34354166666666663,-0.09055555555555551,0.5923000000044709],[-0.4209375,-0.05851851851851856,0.6089999999999947],[-0.5008333333333334,-0.062037037037037036,0.6268000000044651],[-0.535625,-0.005185185185185101,0.6424000000059493],[-0.5488541666666666,0.03759259259259251,0.6639999999999873],[-0.5488541666666666,0.03759259259259251,0.6757000000029763],[-0.5679166666666667,0.04129629629629621,0.6923000000044652],[-0.5533333333333333,0.06518518518518526,0.7102000000029705],[-0.5296875,0.10111111111111115,0.7308000000044643],[-0.5296875,0.10111111111111115,0.7484000000059581],[-0.46635416666666674,0.08759259259259251,0.7651000000014818],[-0.46635416666666674,0.08759259259259251,0.7756000000014893],[-0.40864583333333326,0.01648148148148144,0.7923000000044595],[-0.350625,-0.03944444444444436,0.8089999999999975],[-0.2967708333333333,-0.075,0.8257000000029677],[-0.2328125,-0.07314814814814814,0.845700000002978],[-0.2328125,-0.07314814814814814,0.8589000000059599],[-0.1664583333333333,-0.13407407407407404,0.8756000000014836],[-0.10645833333333338,-0.18851851851851853,0.8923000000044681],[-0.03583333333333331,-0.20611111111111113,0.9089999999999918],[0.01416666666666669,-0.24000000000000005,0.9256000000014808],[0.03729166666666662,-0.2631481481481482,0.9423000000044652],[0.012083333333333357,-0.2633333333333333,0.958999999999989],[-0.06510416666666667,-0.28351851851851856,0.9757000000029734],[-0.12770833333333337,-0.2866666666666667,0.9927000000029693],[-0.17749999999999996,-0.2948148148148148,1.0089000000059514],[-0.21843750000000003,-0.3264814814814815,1.0256000000014893],[-0.28187500000000004,-0.33129629629629626,1.0422000000029783],[-0.34489583333333335,-0.32537037037037037,1.0589999999999975],[-0.4079166666666667,-0.34203703703703703,1.0756000000014865],[-0.4903125,-0.3688888888888889,1.095300000004471],[-0.5379166666666666,-0.36018518518518516,1.1089999999999947],[-0.5855208333333334,-0.3514814814814815,1.1256000000014836],[-0.5795833333333333,-0.2822222222222222,1.1422000000029726],[-0.5736458333333334,-0.21296296296296297,1.1589999999999918],[-0.5682291666666667,-0.1824074074074074,1.1756000000014808],[-0.59,-0.14222222222222225,1.1922000000029698],[-0.5917708333333334,-0.11166666666666669,1.2089000000059542],[-0.5932291666666667,-0.02555555555555547,1.225600000001478],[-0.5954166666666667,0.04759259259259268,1.242200000002967],[-0.6046875,0.12037037037037036,1.2602000000029676],[-0.621875,0.14685185185185176,1.2756000000014893],[-0.6023958333333332,0.1977777777777777,1.2923000000044595],[-0.5863541666666666,0.2338888888888888,1.3089000000059485],[-0.5703125,0.2699999999999999,1.3256000000014865],[-0.5903125,0.27037037037037037,1.3422000000029755],[-0.5939583333333334,0.2935185185185185,1.3614999999999924],[-0.5938541666666667,0.32333333333333336,1.3756000000014836],[-0.5940624999999999,0.2975925925925927,1.392300000004468],[-0.5652083333333333,0.31814814814814807,1.4089999999999918],[-0.5292708333333334,0.33907407407407414,1.4256000000014808],[-0.4834375,0.3762962962962964,1.4423000000044652],[-0.47583333333333333,0.41740740740740734,1.458999999999989],[-0.47302083333333333,0.4088888888888888,1.475600000001478],[-0.4702083333333333,0.40037037037037043,1.4923000000044624],[-0.3985416666666667,0.4111111111111111,1.5090000000000003],[-0.32385416666666667,0.4094444444444445,1.5256000000014893],[-0.23781249999999995,0.42981481481481487,1.5423000000044595],[-0.15177083333333338,0.45018518518518524,1.5589000000059485],[-0.09406249999999995,0.45981481481481473,1.5757000000029677],[-0.03989583333333328,0.4390740740740741,1.592300000004471],[0.004375000000000047,0.4020370370370371,1.60890000000596],[0.03427083333333331,0.35240740740740734,1.6256000000014836],[0.0796875,0.3224074074074075,1.6422000000029726],[0.13291666666666657,0.28962962962962957,1.6601000000014778],[0.11989583333333324,0.29870370370370364,1.6756000000014808],[0.13645833333333332,0.33277777777777784,1.6923000000044652],[0.13552083333333323,0.31851851851851853,1.7096000000014868],[0.1345833333333334,0.3042592592592592,1.725600000001478],[0.1421875,0.2927777777777778,1.742200000002967],[0.1490624999999999,0.2946296296296297,1.7589000000059514],[0.17687499999999995,0.31444444444444436,1.7756000000014893],[0.22062499999999996,0.31851851851851853,1.7922000000029783],[0.23552083333333323,0.31240740740740747,1.8089000000059485],[0.24260416666666676,0.30907407407407406,1.8256000000014865],[0.28145833333333337,0.3175925925925926,1.842300000004471],[0.2907291666666666,0.30111111111111116,1.8589999999999947],[0.3056250000000001,0.2855555555555556,1.8786000000014837],[0.3056250000000001,0.2855555555555556,1.892300000004468],[0.32052083333333337,0.2699999999999999,1.9089999999999918],[0.32052083333333337,0.2699999999999999,1.9257000000029763],[0.3363541666666668,0.2512962962962964,1.9423000000044652],[0.3478125000000001,0.25018518518518523,1.9589000000059542],[0.33833333333333326,0.23111111111111102,1.975600000001478],[0.33093750000000005,0.19240740740740736,1.9923000000044624],[0.3471874999999999,0.18129629629629626,2.0090000000000003],[0.36770833333333336,0.16629629629629622,2.0256000000014893],[0.38177083333333334,0.13740740740740748,2.0423000000044595],[0.3929166666666667,0.10574074074074079,2.0589000000059485],[0.41437499999999994,0.11555555555555551,2.0756000000014865],[0.4267708333333334,0.11870370370370374,2.0922000000029755],[0.4267708333333334,0.11870370370370374,2.10890000000596],[0.43802083333333336,0.14240740740740737,2.1256000000014836],[0.44552083333333337,0.14648148148148152,2.1422000000029726],[0.45302083333333343,0.15055555555555547,2.158900000005957],[0.4546875,0.16296296296296298,2.1757000000029763],[0.45364583333333336,0.1579629629629629,2.1923000000044652],[0.4538541666666667,0.15240740740740732,2.208999999999989],[0.45260416666666664,0.1479629629629629,2.225600000001478],[0.4348958333333333,0.17333333333333337,2.2434999999999974],[0.39333333333333326,0.15759259259259265,2.2589000000059514],[0.3740624999999999,0.13277777777777786,2.2756000000014893],[0.34645833333333326,0.08777777777777773,2.2923000000044595],[0.31708333333333344,0.12611111111111115,2.3089000000059485],[0.2877083333333334,0.16444444444444437,2.3256000000014865],[0.21624999999999991,0.17796296296296302,2.342300000004471],[0.15031249999999996,0.2014814814814814,2.3589999999999947],[0.07885416666666671,0.2294444444444444,2.375499999999988],[0.021458333333333357,0.3031481481481482,2.3924999999999983],[0.021458333333333357,0.3031481481481482,2.408900000005957],[-0.0016666666666666904,0.32685185185185184,2.425600000001481],[-0.0016666666666666904,0.32685185185185184,2.4423000000044652],[-0.028541666666666642,0.3448148148148149,2.458999999999989],[-0.028541666666666642,0.3448148148148149,2.475600000001478],[-0.03572916666666662,0.43185185185185193,2.4923000000044624],[-0.03572916666666662,0.43185185185185193,2.5090000000000003],[-0.029999999999999954,0.49499999999999994,2.5257000000029706],[-0.029999999999999954,0.49499999999999994,2.5423000000044595],[-0.04093749999999995,0.4911111111111112,2.5589000000059485],[-0.04093749999999995,0.4911111111111112,2.5757000000029677],[-0.0359375,0.4727777777777777,2.592300000004471],[-0.004791666666666691,0.4727777777777777,2.613600000001483],[-0.004791666666666691,0.4727777777777777,2.6256000000014836],[0.014479166666666644,0.4831481481481481,2.6422000000029726],[0.014479166666666644,0.4831481481481481,2.658999999999992],[0.04510416666666662,0.48407407407407405,2.675600000001481],[0.04510416666666662,0.48407407407407405,2.6923000000044652],[0.05479166666666669,0.4064814814814815,2.708900000005954],[0.05479166666666669,0.4064814814814815,2.728800000004469],[0.06114583333333338,0.4007407407407407,2.742400000005958],[0.06114583333333338,0.4007407407407407,2.7591000000014816],[0.0728125000000001,0.41444444444444434,2.7757000000029706],[0.0728125000000001,0.41444444444444434,2.7948000000044573],[0.06864583333333343,0.33537037037037043,2.809200000002974],[0.0709374999999999,0.2625925925925925,2.8271000000014794],[0.1040625000000001,0.1925925925925926,2.8456000000014825],[0.1040625000000001,0.1925925925925926,2.859300000004467],[0.11624999999999991,0.15703703703703695,2.875700000002979],[0.1256249999999999,0.14518518518518514,2.8954000000059494],[0.1256249999999999,0.14518518518518514,2.9091000000014873],[0.17156250000000003,0.12370370370370362,2.9258000000044575],[0.15979166666666675,0.08722222222222227,2.9424000000059607],[0.1564583333333334,0.06611111111111119,2.963700000002973],[0.10770833333333343,0.015370370370370286,2.979600000001483],[0.08572916666666662,-0.05888888888888891,2.9943000000044577],[0.033645833333333285,-0.12888888888888894,3.0091000000014816],[-0.03781249999999995,-0.18129629629629626,3.0278000000044614],[-0.05489583333333338,-0.1455555555555556,3.042400000005955],[-0.06697916666666662,-0.12981481481481486,3.0614000000059605],[-0.0703125,-0.11370370370370367,3.0789999999999935],[-0.07552083333333333,-0.16370370370370366,3.0937000000029684],[-0.06229166666666662,-0.17833333333333334,3.10910000000149],[-0.06229166666666662,-0.17833333333333334,3.1258000000044603],[-0.04916666666666671,-0.1766666666666666,3.145700000002975],[-0.04916666666666671,-0.1766666666666666,3.1591000000014873],[-0.002708333333333357,-0.20611111111111113,3.1758000000044575],[0.07864583333333333,-0.192037037037037,3.1946000000014863],[0.15593750000000003,-0.16370370370370366,3.208999999999989],[0.23854166666666668,-0.13444444444444448,3.225800000004469],[0.26677083333333323,-0.1933333333333333,3.2463000000044673],[0.26677083333333323,-0.1933333333333333,3.2591000000014816],[0.2960416666666667,-0.19074074074074074,3.2759000000059473],[0.2904166666666666,-0.19888888888888884,3.29340000000596],[0.26291666666666674,-0.13148148148148148,3.3119000000059486],[0.30135416666666665,-0.15166666666666662,3.326800000004468],[0.3095833333333334,-0.127962962962963,3.344200000002971],[0.32916666666666666,-0.14222222222222225,3.359499999999997],[0.2908333333333334,-0.1588888888888889,3.375499999999988],[0.26624999999999993,-0.17185185185185187,3.3924000000059493],[0.2599999999999999,-0.11425925925925924,3.408900000005957],[0.2537499999999999,-0.056666666666666705,3.4279999999999973],[0.22062499999999996,-0.125,3.4424000000059607],[0.2361458333333334,-0.18888888888888888,3.4612000000029752],[0.2730208333333332,-0.21500000000000005,3.4757000000029734],[0.2855208333333332,-0.14759259259259258,3.494499999999988],[0.3189583333333334,-0.16314814814814818,3.5090000000000003],[0.3415625000000001,-0.12888888888888894,3.525800000004466],[0.3654166666666666,-0.12833333333333335,3.5459000000059575],[0.3654166666666666,-0.12833333333333335,3.5591000000014787],[0.3877083333333334,-0.1227777777777778,3.575800000004463],[0.37864583333333335,-0.17037037037037037,3.5954000000059523],[0.384375,-0.25018518518518523,3.6103000000044574],[0.41302083333333334,-0.2442592592592592,3.625700000002979],[0.44166666666666665,-0.2383333333333333,3.6424999999999983],[0.44479166666666664,-0.30574074074074076,3.664600000001485],[0.4314583333333334,-0.36259259259259263,3.6791000000014833],[0.4273958333333333,-0.3803703703703703,3.694400000005956],[0.4523958333333333,-0.39000000000000007,3.7111000000014798],[0.48114583333333344,-0.37888888888888894,3.728800000004469],[0.510625,-0.3985185185185185,3.7423000000044624],[0.5478125000000001,-0.43648148148148147,3.759900000005956],[0.5456249999999999,-0.4225925925925926,3.775800000004466],[0.5463541666666667,-0.43,3.7922000000029783],[0.5754166666666668,-0.4527777777777778,3.8089000000059485],[0.6012500000000001,-0.4559259259259259,3.8256000000014865],[0.6104166666666667,-0.472037037037037,3.842300000004471],[0.6195833333333333,-0.48814814814814816,3.85890000000596],[0.5993750000000001,-0.5046296296296297,3.875499999999988],[0.5430208333333333,-0.5624074074074074,3.8922000000029726],[0.5157291666666666,-0.5298148148148148,3.908900000005957],[0.4884375000000001,-0.49722222222222223,3.925600000001481],[0.47937500000000005,-0.4842592592592593,3.9422000000029698],[0.46333333333333326,-0.47388888888888886,3.9591000000014844],[0.4189583333333334,-0.44814814814814813,3.9757000000029734],[0.36041666666666666,-0.44000000000000006,3.9923000000044624],[0.3538541666666667,-0.475,4.008900000005951],[0.3455208333333334,-0.4690740740740741,4.025600000001489],[0.3375,-0.47092592592592597,4.042200000002978],[0.36708333333333343,-0.4468518518518519,4.0589000000059485],[0.37177083333333344,-0.47018518518518515,4.0756000000014865],[0.40114583333333326,-0.5062962962962962,4.0922000000029755],[0.43687500000000007,-0.5424074074074073,4.10890000000596],[0.4414583333333333,-0.5255555555555556,4.125499999999988],[0.44385416666666655,-0.515925925925926,4.142300000004468],[0.4640625,-0.4842592592592593,4.160900000005952],[0.43093750000000003,-0.4418518518518519,4.175600000001481],[0.39958333333333323,-0.4403703703703704,4.192800000004468],[0.3950000000000001,-0.43703703703703706,4.208999999999989],[0.3889583333333334,-0.4183333333333333,4.225800000004469],[0.3810416666666666,-0.40981481481481485,4.244300000004458],[0.3734375,-0.4124074074074074,4.2620000000000005],[0.36729166666666657,-0.4168518518518519,4.275700000002971],[0.3992708333333333,-0.4716666666666666,4.292200000002978],[0.4436458333333334,-0.5218518518518519,4.3089000000059485],[0.49093749999999997,-0.5694444444444444,4.3256000000014865],[0.5315624999999999,-0.5900000000000001,4.3422000000029755],[0.5625,-0.5988888888888888,4.359200000002971],[0.5763541666666666,-0.6212962962962963,4.375600000001484],[0.5700000000000001,-0.6283333333333333,4.392200000002973],[0.5657291666666666,-0.6287037037037037,4.408800000004462],[0.535625,-0.6194444444444445,4.426800000004462],[0.49541666666666656,-0.6174074074074074,4.44220000000297],[0.4694791666666667,-0.6085185185185186,4.458900000005954],[0.43333333333333335,-0.597037037037037,4.475600000001478],[0.4203125,-0.5388888888888889,4.492600000001488],[0.41375000000000006,-0.5135185185185185,4.508900000005951],[0.41916666666666674,-0.5085185185185186,4.525700000002971],[0.4001041666666666,-0.48703703703703705,4.543900000005948],[0.40385416666666674,-0.4868518518518518,4.5589000000059485],[0.4178124999999999,-0.46574074074074073,4.5756000000014865],[0.4326041666666666,-0.43037037037037035,4.592300000004471],[0.4326041666666666,-0.43037037037037035,4.60890000000596],[0.4491666666666667,-0.40851851851851856,4.625600000001484],[0.4491666666666667,-0.40851851851851856,4.642200000002973],[0.44083333333333335,-0.397037037037037,4.658900000005957],[0.44645833333333323,-0.37648148148148153,4.67930000000446],[0.44645833333333323,-0.37648148148148153,4.69220000000297],[0.43125,-0.4383333333333333,4.708900000005954],[0.42177083333333343,-0.445,4.730800000004464],[0.42177083333333343,-0.445,4.742300000004462],[0.42135416666666664,-0.45629629629629626,4.759100000001482],[0.42135416666666664,-0.45629629629629626,4.775600000001489],[0.4196875000000001,-0.4705555555555556,4.801600000001486],[0.4196875000000001,-0.4705555555555556,4.8163000000044605],[0.4148958333333333,-0.4287037037037037,4.825499999999991],[0.41208333333333325,-0.39666666666666667,4.842300000004471],[0.3876041666666666,-0.39888888888888885,4.86210000000149],[0.37437500000000007,-0.3492592592592593,4.877700000002974],[0.37177083333333344,-0.29611111111111105,4.892300000004468],[0.3363541666666668,-0.29314814814814816,4.911100000001483],[0.2920833333333334,-0.2614814814814815,4.9254999999999995],[0.2726041666666667,-0.21796296296296294,4.94220000000297],[0.240625,-0.17333333333333337,4.960300000004466],[0.20989583333333334,-0.07999999999999997,4.975499999999997],[0.17979166666666657,-0.032037037037036954,4.992200000002967],[0.1462500000000001,0.0035185185185184764,5.008900000005951],[0.134375,0.07333333333333338,5.025600000001489],[0.0943749999999999,0.0962962962962963,5.042200000002978],[0.0943749999999999,0.0962962962962963,5.0589000000059485],[0.05437500000000005,0.11925925925925922,5.075499999999991],[0.08427083333333343,0.20314814814814824,5.0922000000029755],[0.10760416666666663,0.30111111111111116,5.10890000000596],[0.12145833333333324,0.3557407407407408,5.125499999999988],[0.13531250000000009,0.40037037037037043,5.142200000002973],[0.16333333333333327,0.38370370370370377,5.161600000001485],[0.1912499999999999,0.3622222222222223,5.175600000001481],[0.21208333333333323,0.3122222222222223,5.192300000004465],[0.23291666666666658,0.26222222222222225,5.208800000004459]]","[0.00020000000297670795,0.04049999999999443,0.04249999999998977,0.07640000000596103,0.08449999999999136,0.11110000000148545,0.11770000000296932,0.14300000000000068,0.15060000000148932,0.1763000000044599,0.18320000000296943,0.20980000000446353,0.21730000000447092,0.24490000000595558,0.2551000000014767,0.2779000000059568,0.28390000000595705,0.3097000000029766,0.31680000000446285,0.3431000000014848,0.3566000000014782,0.37790000000595114,0.3843000000044583,0.41149999999998954,0.41990000000595273,0.4489000000059491,0.46070000000297284,0.47560000000147795,0.49820000000296716,0.5089000000059514,0.5257000000029706,0.5423000000044595,0.5591000000014787,0.5797000000029726,0.5923000000044709,0.6089999999999947,0.6268000000044651,0.6424000000059493,0.6639999999999873,0.6757000000029763,0.6923000000044652,0.7102000000029705,0.7308000000044643,0.7484000000059581,0.7651000000014818,0.7756000000014893,0.7923000000044595,0.8089999999999975,0.8257000000029677,0.845700000002978,0.8589000000059599,0.8756000000014836,0.8923000000044681,0.9089999999999918,0.9256000000014808,0.9423000000044652,0.958999999999989,0.9757000000029734,0.9927000000029693,1.0089000000059514,1.0256000000014893,1.0422000000029783,1.0589999999999975,1.0756000000014865,1.095300000004471,1.1089999999999947,1.1256000000014836,1.1422000000029726,1.1589999999999918,1.1756000000014808,1.1922000000029698,1.2089000000059542,1.225600000001478,1.242200000002967,1.2602000000029676,1.2756000000014893,1.2923000000044595,1.3089000000059485,1.3256000000014865,1.3422000000029755,1.3614999999999924,1.3756000000014836,1.392300000004468,1.4089999999999918,1.4256000000014808,1.4423000000044652,1.458999999999989,1.475600000001478,1.4923000000044624,1.5090000000000003,1.5256000000014893,1.5423000000044595,1.5589000000059485,1.5757000000029677,1.592300000004471,1.60890000000596,1.6256000000014836,1.6422000000029726,1.6601000000014778,1.6756000000014808,1.6923000000044652,1.7096000000014868,1.725600000001478,1.742200000002967,1.7589000000059514,1.7756000000014893,1.7922000000029783,1.8089000000059485,1.8256000000014865,1.842300000004471,1.8589999999999947,1.8786000000014837,1.892300000004468,1.9089999999999918,1.9257000000029763,1.9423000000044652,1.9589000000059542,1.975600000001478,1.9923000000044624,2.0090000000000003,2.0256000000014893,2.0423000000044595,2.0589000000059485,2.0756000000014865,2.0922000000029755,2.10890000000596,2.1256000000014836,2.1422000000029726,2.158900000005957,2.1757000000029763,2.1923000000044652,2.208999999999989,2.225600000001478,2.2434999999999974,2.2589000000059514,2.2756000000014893,2.2923000000044595,2.3089000000059485,2.3256000000014865,2.342300000004471,2.3589999999999947,2.375499999999988,2.3924999999999983,2.408900000005957,2.425600000001481,2.4423000000044652,2.458999999999989,2.475600000001478,2.4923000000044624,2.5090000000000003,2.5257000000029706,2.5423000000044595,2.5589000000059485,2.5757000000029677,2.592300000004471,2.613600000001483,2.6256000000014836,2.6422000000029726,2.658999999999992,2.675600000001481,2.6923000000044652,2.708900000005954,2.728800000004469,2.742400000005958,2.7591000000014816,2.7757000000029706,2.7948000000044573,2.809200000002974,2.8271000000014794,2.8456000000014825,2.859300000004467,2.875700000002979,2.8954000000059494,2.9091000000014873,2.9258000000044575,2.9424000000059607,2.963700000002973,2.979600000001483,2.9943000000044577,3.0091000000014816,3.0278000000044614,3.042400000005955,3.0614000000059605,3.0789999999999935,3.0937000000029684,3.10910000000149,3.1258000000044603,3.145700000002975,3.1591000000014873,3.1758000000044575,3.1946000000014863,3.208999999999989,3.225800000004469,3.2463000000044673,3.2591000000014816,3.2759000000059473,3.29340000000596,3.3119000000059486,3.326800000004468,3.344200000002971,3.359499999999997,3.375499999999988,3.3924000000059493,3.408900000005957,3.4279999999999973,3.4424000000059607,3.4612000000029752,3.4757000000029734,3.494499999999988,3.5090000000000003,3.525800000004466,3.5459000000059575,3.5591000000014787,3.575800000004463,3.5954000000059523,3.6103000000044574,3.625700000002979,3.6424999999999983,3.664600000001485,3.6791000000014833,3.694400000005956,3.7111000000014798,3.728800000004469,3.7423000000044624,3.759900000005956,3.775800000004466,3.7922000000029783,3.8089000000059485,3.8256000000014865,3.842300000004471,3.85890000000596,3.875499999999988,3.8922000000029726,3.908900000005957,3.925600000001481,3.9422000000029698,3.9591000000014844,3.9757000000029734,3.9923000000044624,4.008900000005951,4.025600000001489,4.042200000002978,4.0589000000059485,4.0756000000014865,4.0922000000029755,4.10890000000596,4.125499999999988,4.142300000004468,4.160900000005952,4.175600000001481,4.192800000004468,4.208999999999989,4.225800000004469,4.244300000004458,4.2620000000000005,4.275700000002971,4.292200000002978,4.3089000000059485,4.3256000000014865,4.3422000000029755,4.359200000002971,4.375600000001484,4.392200000002973,4.408800000004462,4.426800000004462,4.44220000000297,4.458900000005954,4.475600000001478,4.492600000001488,4.508900000005951,4.525700000002971,4.543900000005948,4.5589000000059485,4.5756000000014865,4.592300000004471,4.60890000000596,4.625600000001484,4.642200000002973,4.658900000005957,4.67930000000446,4.69220000000297,4.708900000005954,4.730800000004464,4.742300000004462,4.759100000001482,4.775600000001489,4.801600000001486,4.8163000000044605,4.825499999999991,4.842300000004471,4.86210000000149,4.877700000002974,4.892300000004468,4.911100000001483,4.9254999999999995,4.94220000000297,4.960300000004466,4.975499999999997,4.992200000002967,5.008900000005951,5.025600000001489,5.042200000002978,5.0589000000059485,5.075499999999991,5.0922000000029755,5.10890000000596,5.125499999999988,5.142200000002973,5.161600000001485,5.175600000001481,5.192300000004465,5.208800000004459]","[1733279751421,1733279751455,1733279751457,1733279751491,1733279751499,1733279751525,1733279751532,1733279751557,1733279751565,1733279751590,1733279751597,1733279751624,1733279751631,1733279751659,1733279751669,1733279751692,1733279751698,1733279751724,1733279751731,1733279751757,1733279751771,1733279751792,1733279751798,1733279751826,1733279751834,1733279751863,1733279751875,1733279751890,1733279751912,1733279751923,1733279751940,1733279751956,1733279751973,1733279751994,1733279752006,1733279752023,1733279752041,1733279752056,1733279752078,1733279752090,1733279752106,1733279752124,1733279752145,1733279752163,1733279752179,1733279752190,1733279752206,1733279752223,1733279752240,1733279752260,1733279752273,1733279752290,1733279752306,1733279752323,1733279752340,1733279752356,1733279752373,1733279752390,1733279752407,1733279752423,1733279752440,1733279752456,1733279752473,1733279752490,1733279752509,1733279752523,1733279752540,1733279752556,1733279752573,1733279752590,1733279752606,1733279752623,1733279752640,1733279752656,1733279752674,1733279752690,1733279752706,1733279752723,1733279752740,1733279752756,1733279752776,1733279752790,1733279752806,1733279752823,1733279752840,1733279752856,1733279752873,1733279752890,1733279752906,1733279752923,1733279752940,1733279752956,1733279752973,1733279752990,1733279753006,1733279753023,1733279753040,1733279753056,1733279753074,1733279753090,1733279753106,1733279753124,1733279753140,1733279753156,1733279753173,1733279753190,1733279753206,1733279753223,1733279753240,1733279753256,1733279753273,1733279753293,1733279753306,1733279753323,1733279753340,1733279753356,1733279753373,1733279753390,1733279753406,1733279753423,1733279753440,1733279753456,1733279753473,1733279753490,1733279753506,1733279753523,1733279753540,1733279753556,1733279753573,1733279753590,1733279753606,1733279753623,1733279753640,1733279753658,1733279753673,1733279753690,1733279753706,1733279753723,1733279753740,1733279753756,1733279753773,1733279753790,1733279753807,1733279753823,1733279753840,1733279753856,1733279753873,1733279753890,1733279753906,1733279753923,1733279753940,1733279753956,1733279753973,1733279753990,1733279754006,1733279754028,1733279754040,1733279754056,1733279754073,1733279754090,1733279754106,1733279754123,1733279754143,1733279754157,1733279754173,1733279754190,1733279754209,1733279754223,1733279754241,1733279754260,1733279754273,1733279754290,1733279754310,1733279754323,1733279754340,1733279754357,1733279754378,1733279754394,1733279754408,1733279754423,1733279754442,1733279754457,1733279754476,1733279754493,1733279754508,1733279754523,1733279754540,1733279754560,1733279754573,1733279754590,1733279754609,1733279754623,1733279754640,1733279754660,1733279754673,1733279754690,1733279754708,1733279754726,1733279754741,1733279754758,1733279754774,1733279754790,1733279754807,1733279754823,1733279754842,1733279754857,1733279754875,1733279754890,1733279754909,1733279754923,1733279754940,1733279754960,1733279754973,1733279754990,1733279755010,1733279755024,1733279755040,1733279755057,1733279755079,1733279755093,1733279755108,1733279755125,1733279755143,1733279755156,1733279755174,1733279755190,1733279755206,1733279755223,1733279755240,1733279755256,1733279755273,1733279755290,1733279755306,1733279755323,1733279755340,1733279755356,1733279755373,1733279755390,1733279755406,1733279755423,1733279755440,1733279755456,1733279755473,1733279755490,1733279755506,1733279755523,1733279755540,1733279755556,1733279755575,1733279755590,1733279755607,1733279755623,1733279755640,1733279755658,1733279755676,1733279755690,1733279755706,1733279755723,1733279755740,1733279755756,1733279755773,1733279755790,1733279755806,1733279755823,1733279755841,1733279755856,1733279755873,1733279755890,1733279755907,1733279755923,1733279755940,1733279755958,1733279755973,1733279755990,1733279756006,1733279756023,1733279756040,1733279756056,1733279756073,1733279756093,1733279756106,1733279756123,1733279756145,1733279756157,1733279756173,1733279756190,1733279756216,1733279756230,1733279756240,1733279756256,1733279756276,1733279756292,1733279756306,1733279756325,1733279756340,1733279756356,1733279756374,1733279756390,1733279756406,1733279756423,1733279756440,1733279756456,1733279756473,1733279756490,1733279756506,1733279756523,1733279756540,1733279756556,1733279756576,1733279756590,1733279756606,1733279756623]","[[1142,775.8],[1142,775.8],[1142,775.8],[1124,743.4],[1124,743.4],[1099.6,701.9],[1099.6,701.9],[1084.3,657.9],[1084.3,657.9],[1084.8,621.6],[1084.8,621.6],[1089,591.2],[1089,591.2],[1104.3,562.9],[1104.3,562.9],[1089.1,527],[1089.1,527],[1085.3,501.9],[1085.3,501.9],[1074.2,492.1],[1074.2,492.1],[1033.6,479.2],[1033.6,479.2],[979,457.1],[979,457.1],[926.2,445.3],[926.2,445.3],[882,439.3],[810.8,432],[810.8,432],[750.7,430.9],[750.7,430.9],[684.9,458.8],[630.2,491.1],[630.2,491.1],[555.9,508.4],[479.2,506.5],[445.8,537.2],[433.1,560.3],[433.1,560.3],[414.8,562.3],[428.8,575.2],[451.5,594.6],[451.5,594.6],[512.3,587.3],[512.3,587.3],[567.7,548.9],[623.4,518.7],[675.1,499.5],[736.5,500.5],[736.5,500.5],[800.2,467.6],[857.8,438.2],[925.6,428.7],[973.6,410.4],[995.8,397.9],[971.6,397.8],[897.5,386.9],[837.4,385.2],[789.6,380.8],[750.3,363.7],[689.4,361.1],[628.9,364.3],[568.4,355.3],[489.3,340.8],[443.6,345.5],[397.9,350.2],[403.6,387.6],[409.3,425],[414.5,441.5],[393.6,463.2],[391.9,479.7],[390.5,526.2],[388.4,565.7],[379.5,605],[363,619.3],[381.7,646.8],[397.1,666.3],[412.5,685.8],[393.3,686],[389.8,698.5],[389.9,714.6],[389.7,700.7],[417.4,711.8],[451.9,723.1],[495.9,743.2],[503.2,765.4],[505.9,760.8],[508.6,756.2],[577.4,762],[649.1,761.1],[731.7,772.1],[814.3,783.1],[869.7,788.3],[921.7,777.1],[964.2,757.1],[992.9,730.3],[1036.5,714.1],[1087.6,696.4],[1075.1,701.3],[1091,719.7],[1090.1,712],[1089.2,704.3],[1096.5,698.1],[1103.1,699.1],[1129.8,709.8],[1171.8,712],[1186.1,708.7],[1192.9,706.9],[1230.2,711.5],[1239.1,702.6],[1253.4,694.2],[1253.4,694.2],[1267.7,685.8],[1267.7,685.8],[1282.9,675.7],[1293.9,675.1],[1284.8,664.8],[1277.7,643.9],[1293.3,637.9],[1313,629.8],[1326.5,614.2],[1337.2,597.1],[1357.8,602.4],[1369.7,604.1],[1369.7,604.1],[1380.5,616.9],[1387.7,619.1],[1394.9,621.3],[1396.5,628],[1395.5,625.3],[1395.7,622.3],[1394.5,619.9],[1377.5,633.6],[1337.6,625.1],[1319.1,611.7],[1292.6,587.4],[1264.4,608.1],[1236.2,628.8],[1167.6,636.1],[1104.3,648.8],[1035.7,663.9],[980.6,703.7],[980.6,703.7],[958.4,716.5],[958.4,716.5],[932.6,726.2],[932.6,726.2],[925.7,773.2],[925.7,773.2],[931.2,807.3],[931.2,807.3],[920.7,805.2],[920.7,805.2],[925.5,795.3],[955.4,795.3],[955.4,795.3],[973.9,800.9],[973.9,800.9],[1003.3,801.4],[1003.3,801.4],[1012.6,759.5],[1012.6,759.5],[1018.7,756.4],[1018.7,756.4],[1029.9,763.8],[1029.9,763.8],[1025.9,721.1],[1028.1,681.8],[1059.9,644],[1059.9,644],[1071.6,624.8],[1080.6,618.4],[1080.6,618.4],[1124.7,606.8],[1113.4,587.1],[1110.2,575.7],[1063.4,548.3],[1042.3,508.2],[992.3,470.4],[923.7,442.1],[907.3,461.4],[895.7,469.9],[892.5,478.6],[887.5,451.6],[900.2,443.7],[900.2,443.7],[912.8,444.6],[912.8,444.6],[957.4,428.7],[1035.5,436.3],[1109.7,451.6],[1189,467.4],[1216.1,435.6],[1216.1,435.6],[1244.2,437],[1238.8,432.6],[1212.4,469],[1249.3,458.1],[1257.2,470.9],[1276,463.2],[1239.2,454.2],[1215.6,447.2],[1209.6,478.3],[1203.6,509.4],[1171.8,472.5],[1186.7,438],[1222.1,423.9],[1234.1,460.3],[1266.2,451.9],[1287.9,470.4],[1310.8,470.7],[1310.8,470.7],[1332.2,473.7],[1323.5,448],[1329,404.9],[1356.5,408.1],[1384,411.3],[1387,374.9],[1374.2,344.2],[1370.3,334.6],[1394.3,329.4],[1421.9,335.4],[1450.2,324.8],[1485.9,304.3],[1483.8,311.8],[1484.5,307.8],[1512.4,295.5],[1537.2,293.8],[1546,285.1],[1554.8,276.4],[1535.4,267.5],[1481.3,236.3],[1455.1,253.9],[1428.9,271.5],[1420.2,278.5],[1404.8,284.1],[1362.2,298],[1306,302.4],[1299.7,283.5],[1291.7,286.7],[1284,285.7],[1312.4,298.7],[1316.9,286.1],[1345.1,266.6],[1379.4,247.1],[1383.8,256.2],[1386.1,261.4],[1405.5,278.5],[1373.7,301.4],[1343.6,302.2],[1339.2,304],[1333.4,314.1],[1325.8,318.7],[1318.5,317.3],[1312.6,314.9],[1343.3,285.3],[1385.9,258.2],[1431.3,232.5],[1470.3,221.4],[1500,216.6],[1513.3,204.5],[1507.2,200.7],[1503.1,200.5],[1474.2,205.5],[1435.6,206.6],[1410.7,211.4],[1376,217.6],[1363.5,249],[1357.2,262.7],[1362.4,265.4],[1344.1,277],[1347.7,277.1],[1361.1,288.5],[1375.3,307.6],[1375.3,307.6],[1391.2,319.4],[1391.2,319.4],[1383.2,325.6],[1388.6,336.7],[1388.6,336.7],[1374,303.3],[1364.9,299.7],[1364.9,299.7],[1364.5,293.6],[1364.5,293.6],[1362.9,285.9],[1362.9,285.9],[1358.3,308.5],[1355.6,325.8],[1332.1,324.6],[1319.4,351.4],[1316.9,380.1],[1282.9,381.7],[1240.4,398.8],[1221.7,422.3],[1191,446.4],[1161.5,496.8],[1132.6,522.7],[1100.4,541.9],[1089,579.6],[1050.6,592],[1050.6,592],[1012.2,604.4],[1040.9,649.7],[1063.3,702.6],[1076.6,732.1],[1089.9,756.2],[1116.8,747.2],[1143.6,735.6],[1163.6,708.6],[1183.6,681.6]]","[0,0.37864299999999995]","[0.37864299999999995,0.37864299999999995]","[-0.37864299999999995,-0.37864299999999995]","[-0.37864299999999995,0]","[0,-0.37864299999999995]","[0.37864299999999995,-0.37864299999999995]","[0,0]","[0.37864299999999995,0]",0,0,0,0,1,4,Laptop,11,5,13,9
