inst1_resp.keys,inst1_resp.rt,calibrationMouse.x,calibrationMouse.y,calibrationMouse.leftButton,calibrationMouse.midButton,calibrationMouse.rightButton,calibrationClick.x,calibrationClick.y,calibrationClick.leftButton,calibrationClick.midButton,calibrationClick.rightButton,trialsc.thisRepN,trialsc.thisTrialN,trialsc.thisN,trialsc.thisIndex,trialsc.ran,calibration_x,calibration_y,participant,session,date,expName,psychopyVersion,OS,frameRate,calibrationClick.clicked_name,ScreenRes_pixels,mouse_2.x,mouse_2.y,mouse_2.leftButton,mouse_2.midButton,mouse_2.rightButton,mouse_2.time,mouse_2.clicked_name,Camera_pixels,mouse.x,mouse.y,mouse.leftButton,mouse.midButton,mouse.rightButton,mouse.time,mouse.clicked_name,Choice,Trial,TrialDuration,MOUSE_GAZE,ET_GAZE,ET_GAZE_x_T,time,unixTime,ET_GAZE_NF,Loc_Option1_label,Loc_Option2_label,Loc_Cost_label,Loc_Qual_label,Loc_Option1_cost,Loc_Option2_cost,Loc_Option1_quality,Loc_Option2_quality,trials.thisRepN,trials.thisTrialN,trials.thisN,trials.thisIndex,trials.ran,Block,Device,cost1,qual1,cost2,qual2
space,1.4806,0.36875,-0.357407407,1,0,0,0.10625,-0.17962963,0,0,0,0,0,0,15,1,0.33,-0.33,22,001,2024-11-28_14h48.21.014,Attention_exp_legacy,2023.1.0,Win32,60.24096386,,,,,,,,,,,,,,,,,,,,,,,,,,,,,,,,,,,,,,,,,,,,,
,,,,,,,-0.005208333,-0.314814815,1,0,0,0,1,1,10,1,0,-0.33,22,001,2024-11-28_14h48.21.014,Attention_exp_legacy,2023.1.0,Win32,60.24096386,,,,,,,,,,,,,,,,,,,,,,,,,,,,,,,,,,,,,,,,,,,,,
,,,,,,,0.66875,-0.675925926,1,0,0,0,2,2,20,1,0.67,-0.67,22,001,2024-11-28_14h48.21.014,Attention_exp_legacy,2023.1.0,Win32,60.24096386,calibration_square,,,,,,,,,,,,,,,,,,,,,,,,,,,,,,,,,,,,,,,,,,,,
,,,,,,,0,0.664814815,1,0,0,0,3,3,13,1,0,0.67,22,001,2024-11-28_14h48.21.014,Attention_exp_legacy,2023.1.0,Win32,60.24096386,calibration_square,,,,,,,,,,,,,,,,,,,,,,,,,,,,,,,,,,,,,,,,,,,,
,,,,,,,0.007291667,0.324074074,1,0,0,0,4,4,12,1,0,0.33,22,001,2024-11-28_14h48.21.014,Attention_exp_legacy,2023.1.0,Win32,60.24096386,calibration_square,,,,,,,,,,,,,,,,,,,,,,,,,,,,,,,,,,,,,,,,,,,,
,,,,,,,0.316666667,0.666666667,1,0,0,0,5,5,18,1,0.33,0.67,22,001,2024-11-28_14h48.21.014,Attention_exp_legacy,2023.1.0,Win32,60.24096386,,,,,,,,,,,,,,,,,,,,,,,,,,,,,,,,,,,,,,,,,,,,,
,,,,,,,0.001041667,0.003703704,1,0,0,0,6,6,11,1,0,0,22,001,2024-11-28_14h48.21.014,Attention_exp_legacy,2023.1.0,Win32,60.24096386,calibration_square,,,,,,,,,,,,,,,,,,,,,,,,,,,,,,,,,,,,,,,,,,,,
,,,,,,,0.332291667,0.338888889,1,0,0,0,7,7,17,1,0.33,0.33,22,001,2024-11-28_14h48.21.014,Attention_exp_legacy,2023.1.0,Win32,60.24096386,calibration_square,,,,,,,,,,,,,,,,,,,,,,,,,,,,,,,,,,,,,,,,,,,,
,,,,,,,-0.659375,0.003703704,1,0,0,0,8,8,2,1,-0.67,0,22,001,2024-11-28_14h48.21.014,Attention_exp_legacy,2023.1.0,Win32,60.24096386,,,,,,,,,,,,,,,,,,,,,,,,,,,,,,,,,,,,,,,,,,,,,
,,,,,,,-0.320833333,-0.005555556,1,0,0,0,9,9,6,1,-0.33,0,22,001,2024-11-28_14h48.21.014,Attention_exp_legacy,2023.1.0,Win32,60.24096386,calibration_square,,,,,,,,,,,,,,,,,,,,,,,,,,,,,,,,,,,,,,,,,,,,
,,,,,,,-0.661458333,-0.327777778,1,0,0,0,10,10,1,1,-0.67,-0.33,22,001,2024-11-28_14h48.21.014,Attention_exp_legacy,2023.1.0,Win32,60.24096386,calibration_square,,,,,,,,,,,,,,,,,,,,,,,,,,,,,,,,,,,,,,,,,,,,
,,,,,,,0.322916667,0.003703704,1,0,0,0,11,11,16,1,0.33,0,22,001,2024-11-28_14h48.21.014,Attention_exp_legacy,2023.1.0,Win32,60.24096386,calibration_square,,,,,,,,,,,,,,,,,,,,,,,,,,,,,,,,,,,,,,,,,,,,
,,,,,,,-0.340625,0.672222222,1,0,0,0,12,12,8,1,-0.33,0.67,22,001,2024-11-28_14h48.21.014,Attention_exp_legacy,2023.1.0,Win32,60.24096386,,,,,,,,,,,,,,,,,,,,,,,,,,,,,,,,,,,,,,,,,,,,,
,,,,,,,0.320833333,-0.674074074,1,0,0,0,13,13,14,1,0.33,-0.67,22,001,2024-11-28_14h48.21.014,Attention_exp_legacy,2023.1.0,Win32,60.24096386,calibration_square,,,,,,,,,,,,,,,,,,,,,,,,,,,,,,,,,,,,,,,,,,,,
,,,,,,,0.666666667,0.664814815,1,0,0,0,14,14,19,1,0.67,0.67,22,001,2024-11-28_14h48.21.014,Attention_exp_legacy,2023.1.0,Win32,60.24096386,calibration_square,,,,,,,,,,,,,,,,,,,,,,,,,,,,,,,,,,,,,,,,,,,,
,,,,,,,-0.339583333,-0.324074074,1,0,0,0,15,15,5,1,-0.33,-0.33,22,001,2024-11-28_14h48.21.014,Attention_exp_legacy,2023.1.0,Win32,60.24096386,calibration_square,,,,,,,,,,,,,,,,,,,,,,,,,,,,,,,,,,,,,,,,,,,,
,,,,,,,-0.327083333,0.331481481,1,0,0,0,16,16,7,1,-0.33,0.33,22,001,2024-11-28_14h48.21.014,Attention_exp_legacy,2023.1.0,Win32,60.24096386,calibration_square,,,,,,,,,,,,,,,,,,,,,,,,,,,,,,,,,,,,,,,,,,,,
,,,,,,,-0.3375,-0.661111111,1,0,0,0,17,17,4,1,-0.33,-0.67,22,001,2024-11-28_14h48.21.014,Attention_exp_legacy,2023.1.0,Win32,60.24096386,calibration_square,,,,,,,,,,,,,,,,,,,,,,,,,,,,,,,,,,,,,,,,,,,,
,,,,,,,0.005208333,-0.672222222,1,0,0,0,18,18,9,1,0,-0.67,22,001,2024-11-28_14h48.21.014,Attention_exp_legacy,2023.1.0,Win32,60.24096386,calibration_square,,,,,,,,,,,,,,,,,,,,,,,,,,,,,,,,,,,,,,,,,,,,
,,,,,,,-0.66875,0.322222222,1,0,0,0,19,19,3,1,-0.67,0.33,22,001,2024-11-28_14h48.21.014,Attention_exp_legacy,2023.1.0,Win32,60.24096386,calibration_square,,,,,,,,,,,,,,,,,,,,,,,,,,,,,,,,,,,,,,,,,,,,
,,,,,,,-0.667708333,-0.683333333,1,0,0,0,20,20,0,1,-0.67,-0.67,22,001,2024-11-28_14h48.21.014,Attention_exp_legacy,2023.1.0,Win32,60.24096386,,,,,,,,,,,,,,,,,,,,,,,,,,,,,,,,,,,,,,,,,,,,,
,,,,,,,,,,,,,,,,,,,22,001,2024-11-28_14h48.21.014,Attention_exp_legacy,2023.1.0,Win32,60.24096386,,"[1920,1080]",[0.023958333333333335],[-0.5037037037037037],[1],[0],[0],[0.8792000000178817],"[""StartButton""]","[640,480]",[0.18645833333333334],[0.1425925925925926],[1],[0],[0],[2.673600000023839],"[""Option2_label""]",Option2_label,1,3.695,"[[0.11145833333333334,0.022222222222222223],[0.11145833333333334,0.022222222222222223],[0.11145833333333334,0.022222222222222223],[0.11145833333333334,0.022222222222222223],[0.11145833333333334,0.022222222222222223],[0.11145833333333334,0.022222222222222223],[0.11145833333333334,0.022222222222222223],[0.11145833333333334,0.022222222222222223],[0.11041666666666666,0.024074074074074074],[0.11041666666666666,0.025925925925925925],[0.109375,0.02962962962962963],[0.10833333333333334,0.03148148148148148],[0.10833333333333334,0.03148148148148148],[0.10833333333333334,0.03148148148148148],[0.10833333333333334,0.03148148148148148],[0.10833333333333334,0.03148148148148148],[0.10833333333333334,0.03148148148148148],[0.10625,0.03148148148148148],[0.09791666666666667,0.025925925925925925],[0.08958333333333333,0.016666666666666666],[0.078125,0.005555555555555556],[0.065625,-0.007407407407407408],[0.057291666666666664,-0.016666666666666666],[0.052083333333333336,-0.024074074074074074],[0.04895833333333333,-0.027777777777777776],[0.046875,-0.03333333333333333],[0.04479166666666667,-0.037037037037037035],[0.042708333333333334,-0.03888888888888889],[0.040625,-0.044444444444444446],[0.034375,-0.05],[0.03125,-0.05185185185185185],[0.023958333333333335,-0.05555555555555555],[0.021875,-0.05555555555555555],[0.019791666666666666,-0.05555555555555555],[0.016666666666666666,-0.05555555555555555],[0.009375,-0.04814814814814815],[0.003125,-0.02962962962962963],[-0.003125,-0.005555555555555556],[-0.010416666666666666,0.022222222222222223],[-0.013541666666666667,0.046296296296296294],[-0.017708333333333333,0.05925925925925926],[-0.01875,0.06296296296296296],[-0.01875,0.06296296296296296],[-0.019791666666666666,0.06296296296296296],[-0.023958333333333335,0.06296296296296296],[-0.030208333333333334,0.05740740740740741],[-0.04479166666666667,0.040740740740740744],[-0.0625,0.024074074074074074],[-0.08229166666666667,0.009259259259259259],[-0.103125,-0.007407407407407408],[-0.11770833333333333,-0.018518518518518517],[-0.134375,-0.02962962962962963],[-0.15416666666666667,-0.046296296296296294],[-0.16875,-0.05740740740740741],[-0.184375,-0.06481481481481481],[-0.19166666666666668,-0.06851851851851852],[-0.21354166666666666,-0.07777777777777778],[-0.22291666666666668,-0.08148148148148149],[-0.23020833333333332,-0.08703703703703704],[-0.23541666666666666,-0.09259259259259259],[-0.2375,-0.0962962962962963],[-0.2375,-0.10185185185185185],[-0.23854166666666668,-0.1111111111111111],[-0.240625,-0.12407407407407407],[-0.240625,-0.1388888888888889],[-0.23958333333333334,-0.15555555555555556],[-0.23541666666666666,-0.17777777777777778],[-0.23541666666666666,-0.1814814814814815],[-0.228125,-0.19814814814814816],[-0.225,-0.20555555555555555],[-0.221875,-0.20925925925925926],[-0.21875,-0.2111111111111111],[-0.215625,-0.21481481481481482],[-0.21145833333333333,-0.21481481481481482],[-0.20625,-0.21481481481481482],[-0.20104166666666667,-0.21666666666666667],[-0.19583333333333333,-0.21851851851851853],[-0.190625,-0.22037037037037038],[-0.18854166666666666,-0.2222222222222222],[-0.184375,-0.22407407407407406],[-0.18125,-0.22407407407407406],[-0.178125,-0.22592592592592592],[-0.17395833333333333,-0.22592592592592592],[-0.17083333333333334,-0.22592592592592592],[-0.165625,-0.22592592592592592],[-0.15833333333333333,-0.22592592592592592],[-0.15520833333333334,-0.22592592592592592],[-0.15,-0.22592592592592592],[-0.14375,-0.22592592592592592],[-0.1375,-0.22592592592592592],[-0.12604166666666666,-0.22592592592592592],[-0.12083333333333333,-0.22592592592592592],[-0.11041666666666666,-0.2222222222222222],[-0.10520833333333333,-0.2222222222222222],[-0.10104166666666667,-0.2222222222222222],[-0.09375,-0.2222222222222222],[-0.08541666666666667,-0.2222222222222222],[-0.075,-0.2222222222222222],[-0.065625,-0.2222222222222222],[-0.059375,-0.2222222222222222],[-0.05416666666666667,-0.2222222222222222],[-0.051041666666666666,-0.2222222222222222],[-0.04479166666666667,-0.2222222222222222],[-0.042708333333333334,-0.22037037037037038],[-0.0375,-0.21851851851851853],[-0.035416666666666666,-0.21666666666666667],[-0.035416666666666666,-0.21666666666666667],[-0.035416666666666666,-0.21666666666666667],[-0.035416666666666666,-0.21666666666666667],[-0.035416666666666666,-0.21666666666666667],[-0.035416666666666666,-0.21666666666666667],[-0.035416666666666666,-0.21666666666666667],[-0.035416666666666666,-0.21666666666666667],[-0.035416666666666666,-0.21666666666666667],[-0.035416666666666666,-0.21666666666666667],[-0.035416666666666666,-0.21666666666666667],[-0.034375,-0.21481481481481482],[-0.03229166666666667,-0.21481481481481482],[-0.03125,-0.21481481481481482],[-0.030208333333333334,-0.21481481481481482],[-0.028125,-0.21481481481481482],[-0.025,-0.21296296296296297],[-0.021875,-0.21296296296296297],[-0.015625,-0.21296296296296297],[-0.005208333333333333,-0.21296296296296297],[-0.0010416666666666667,-0.21296296296296297],[0.014583333333333334,-0.21296296296296297],[0.025,-0.21296296296296297],[0.036458333333333336,-0.21296296296296297],[0.051041666666666666,-0.20925925925925926],[0.06458333333333334,-0.2037037037037037],[0.08125,-0.19444444444444445],[0.09895833333333333,-0.17962962962962964],[0.12083333333333333,-0.15185185185185185],[0.12604166666666666,-0.1388888888888889],[0.13125,-0.11666666666666667],[0.1375,-0.07777777777777778],[0.1375,-0.06481481481481481],[0.14166666666666666,-0.037037037037037035],[0.14583333333333334,-0.011111111111111112],[0.15208333333333332,0.016666666666666666],[0.15833333333333333,0.03518518518518519],[0.16354166666666667,0.05740740740740741],[0.171875,0.07777777777777778],[0.18333333333333332,0.1],[0.18645833333333334,0.11481481481481481],[0.1875,0.12037037037037036],[0.18854166666666666,0.1259259259259259],[0.18854166666666666,0.12777777777777777],[0.18854166666666666,0.13148148148148148],[0.18854166666666666,0.13148148148148148],[0.18854166666666666,0.13148148148148148],[0.18854166666666666,0.13148148148148148],[0.18854166666666666,0.13333333333333333],[0.18854166666666666,0.1388888888888889],[0.1875,0.14074074074074075],[0.18645833333333334,0.1425925925925926],[0.18645833333333334,0.1425925925925926],[0.18645833333333334,0.1425925925925926],[0.18645833333333334,0.1425925925925926],[0.18645833333333334,0.1425925925925926],[0.18645833333333334,0.1425925925925926],[0.18645833333333334,0.1425925925925926],[0.18645833333333334,0.1425925925925926],[0.18645833333333334,0.1425925925925926],[0.18645833333333334,0.1425925925925926],[0.18645833333333334,0.1425925925925926],[0.18645833333333334,0.1425925925925926],[0.18645833333333334,0.1425925925925926],[0.18645833333333334,0.1425925925925926],[0.18645833333333334,0.1425925925925926],[0.18645833333333334,0.1425925925925926],[0.18645833333333334,0.1425925925925926],[0.18645833333333334,0.1425925925925926],[0.18645833333333334,0.1425925925925926],[0.18645833333333334,0.1425925925925926],[0.18645833333333334,0.1425925925925926],[0.18645833333333334,0.1425925925925926],[0.18541666666666667,0.1425925925925926],[0.18541666666666667,0.1425925925925926],[0.184375,0.1425925925925926],[0.184375,0.1425925925925926],[0.184375,0.1425925925925926],[0.184375,0.1425925925925926],[0.184375,0.1425925925925926],[0.184375,0.1425925925925926],[0.184375,0.1425925925925926],[0.18333333333333332,0.1425925925925926],[0.18333333333333332,0.1425925925925926],[0.18333333333333332,0.1425925925925926],[0.18333333333333332,0.1425925925925926],[0.18333333333333332,0.1425925925925926],[0.18333333333333332,0.1425925925925926],[0.18333333333333332,0.1425925925925926],[0.18333333333333332,0.1425925925925926],[0.18333333333333332,0.1425925925925926],[0.18333333333333332,0.1425925925925926],[0.18333333333333332,0.1425925925925926],[0.18333333333333332,0.1425925925925926],[0.18333333333333332,0.1425925925925926],[0.18333333333333332,0.1425925925925926],[0.18333333333333332,0.1425925925925926],[0.18333333333333332,0.1425925925925926],[0.18333333333333332,0.1425925925925926],[0.18333333333333332,0.1425925925925926],[0.18333333333333332,0.1425925925925926],[0.18333333333333332,0.1425925925925926],[0.18333333333333332,0.1425925925925926],[0.18333333333333332,0.1425925925925926],[0.18333333333333332,0.1425925925925926],[0.18333333333333332,0.1425925925925926],[0.18333333333333332,0.1425925925925926],[0.18333333333333332,0.1425925925925926],[0.18333333333333332,0.1425925925925926],[0.18333333333333332,0.1425925925925926],[0.18333333333333332,0.1425925925925926],[0.18333333333333332,0.1425925925925926],[0.18333333333333332,0.1425925925925926],[0.18333333333333332,0.1425925925925926],[0.18333333333333332,0.1425925925925926],[0.18333333333333332,0.1425925925925926],[0.18333333333333332,0.1425925925925926]]","[[0.2555208333333333,0.7783333333333332],[0.2555208333333333,0.7783333333333332],[0.2555208333333333,0.7783333333333332],[0.24489583333333323,0.7187037037037037],[0.21645833333333328,0.6611111111111111],[0.19604166666666673,0.6205555555555556],[0.18354166666666671,0.5337037037037038],[0.16197916666666667,0.48407407407407405],[0.1571875000000001,0.43944444444444436],[0.13333333333333333,0.34981481481481475],[0.13333333333333333,0.34981481481481475],[0.10989583333333333,0.2868518518518518],[0.10989583333333333,0.2868518518518518],[0.10229166666666671,0.24648148148148152],[0.103125,0.2116666666666666],[0.09427083333333333,0.1816666666666667],[0.09031250000000005,0.13796296296296295],[0.08635416666666676,0.09425925925925922],[0.09708333333333338,0.09592592592592585],[0.09177083333333323,0.08074074074074078],[0.08041666666666672,0.04092592592592597],[0.08041666666666672,0.04092592592592597],[0.08083333333333324,0.05],[0.08031249999999991,0.053703703703703705],[0.08031249999999991,0.053703703703703705],[0.07291666666666667,0.0294444444444444],[0.06124999999999995,-0.004444444444444402],[0.04729166666666664,-0.03314814814814811],[0.05791666666666669,-0.05907407407407403],[0.06854166666666663,-0.08499999999999996],[0.06770833333333333,-0.09814814814814815],[0.08072916666666667,-0.10925925925925926],[0.09541666666666657,-0.10388888888888893],[0.10791666666666658,-0.10740740740740741],[0.09958333333333323,-0.16277777777777774],[0.10208333333333333,-0.1624074074074074],[0.09770833333333329,-0.16259259259259262],[0.09770833333333329,-0.16259259259259262],[0.09802083333333324,-0.14000000000000004],[0.08604166666666657,-0.1111111111111111],[0.08635416666666676,-0.09574074074074072],[0.06760416666666676,-0.0940740740740741],[0.04989583333333331,-0.08759259259259261],[0.02000000000000005,-0.08574074074074076],[-0.0006250000000000236,-0.07111111111111107],[-0.00927083333333331,-0.0257407407407407],[-0.02666666666666669,-0.010185185185185186],[-0.036666666666666715,-0.002777777777777778],[-0.06385416666666661,0.004444444444444402],[-0.07854166666666665,-0.01444444444444436],[-0.07854166666666665,-0.01444444444444436],[-0.11145833333333334,0.003333333333333249],[-0.12760416666666666,0.009629629629629714],[-0.14125000000000001,0.003888888888888931],[-0.14125000000000001,0.003888888888888931],[-0.15593750000000003,-0.006851851851851936],[-0.16479166666666673,-0.034999999999999955],[-0.17864583333333334,-0.05888888888888891],[-0.17937500000000003,-0.048333333333333374],[-0.19093749999999995,-0.05648148148148148],[-0.18697916666666667,-0.05944444444444449],[-0.18697916666666667,-0.05944444444444449],[-0.19572916666666665,-0.03129629629629625],[-0.19802083333333337,-0.04388888888888897],[-0.2022916666666667,-0.03981481481481482],[-0.21145833333333333,-0.021851851851851768],[-0.20270833333333335,0.002407407407407323],[-0.20270833333333335,0.002407407407407323],[-0.2169791666666666,0.03814814814814819],[-0.2169791666666666,0.03814814814814819],[-0.21260416666666668,0.04611111111111107],[-0.21145833333333333,0.039074074074074115],[-0.21145833333333333,0.039074074074074115],[-0.2045833333333333,0.0712962962962963],[-0.2045833333333333,0.0712962962962963],[-0.19395833333333337,0.08666666666666659],[-0.19239583333333338,0.08611111111111111],[-0.1860416666666667,0.10574074074074079],[-0.1860416666666667,0.10574074074074079],[-0.18656250000000002,0.11388888888888889],[-0.18395833333333336,0.11148148148148157],[-0.18395833333333336,0.11148148148148157],[-0.18250000000000005,0.14129629629629623],[-0.18250000000000005,0.14129629629629623],[-0.17406250000000004,0.1368518518518518],[-0.17843749999999994,0.1594444444444445],[-0.17843749999999994,0.1594444444444445],[-0.18781249999999997,0.1824074074074074],[-0.18781249999999997,0.1824074074074074],[-0.18041666666666673,0.18851851851851845],[-0.18041666666666673,0.18851851851851845],[-0.15531250000000002,0.21851851851851853],[-0.15531250000000002,0.21851851851851853],[-0.15916666666666662,0.2462962962962963],[-0.15916666666666662,0.2462962962962963],[-0.1498958333333333,0.2442592592592592],[-0.12572916666666673,0.24981481481481477],[-0.10666666666666665,0.2511111111111112],[-0.09697916666666669,0.23444444444444448],[-0.08843749999999997,0.2566666666666667],[-0.058437500000000024,0.26518518518518525],[-0.04020833333333336,0.2596296296296297],[-0.049687500000000044,0.2614814814814816],[-0.06468750000000002,0.22444444444444453],[-0.042916666666666714,0.20962962962962972],[-0.050312499999999954,0.2162962962962962],[-0.06677083333333336,0.21444444444444435],[-0.07489583333333331,0.22925925925925916],[-0.06937500000000002,0.23648148148148157],[-0.0655208333333333,0.23148148148148148],[-0.09125000000000003,0.22111111111111106],[-0.11156250000000002,0.21666666666666667],[-0.08354166666666671,0.22074074074074082],[-0.06739583333333338,0.23462962962962972],[-0.058124999999999954,0.2101851851851852],[-0.043229166666666666,0.202962962962963],[-0.03114583333333331,0.19129629629629621],[-0.025833333333333285,0.15759259259259265],[-0.02947916666666662,0.1294444444444444],[-0.025625000000000023,0.10277777777777777],[-0.0018749999999999527,0.09166666666666666],[0.02822916666666669,0.07814814814814823],[0.01906249999999995,0.05907407407407403],[0.002916666666666619,0.05092592592592592],[0.015208333333333357,0.07740740740740733],[0.03260416666666662,0.09240740740740737],[0.04791666666666667,0.09685185185185177],[0.07322916666666662,0.11925925925925922],[0.09354166666666662,0.12722222222222232],[0.10791666666666658,0.12722222222222232],[0.12072916666666676,0.13833333333333342],[0.12854166666666675,0.15129629629629637],[0.1359375,0.15833333333333333],[0.15666666666666676,0.15851851851851856],[0.15666666666666676,0.15851851851851856],[0.14614583333333328,0.14944444444444452],[0.1446875000000001,0.1485185185185186],[0.15552083333333327,0.16740740740740737],[0.15552083333333327,0.16740740740740737],[0.1336458333333333,0.1814814814814815],[0.109375,0.19296296296296306],[0.109375,0.19296296296296306],[0.10895833333333324,0.18722222222222226],[0.10447916666666662,0.1675925925925926],[0.10447916666666662,0.1675925925925926],[0.1021874999999999,0.14629629629629629],[0.1021874999999999,0.1259259259259259],[0.0953125,0.09907407407407408],[0.0953125,0.09907407407407408],[0.1203125,0.06351851851851843],[0.11645833333333329,0.041111111111111195],[0.11364583333333324,0.027407407407407325],[0.13583333333333342,0.011296296296296339],[0.15322916666666658,-0.01518518518518527],[0.1568749999999999,-0.026851851851851852],[0.16447916666666676,-0.026666666666666623],[0.1694791666666667,-0.025],[0.16708333333333342,-0.013703703703703662],[0.16531250000000006,-0.005740740740740783],[0.15885416666666666,0.0031481481481482323],[0.171875,-0.02833333333333325],[0.16218750000000004,-0.04944444444444453],[0.17072916666666677,-0.0816666666666667],[0.19260416666666677,-0.09537037037037037],[0.19697916666666657,-0.09388888888888887],[0.19979166666666662,-0.10166666666666663],[0.21927083333333333,-0.10888888888888891],[0.22697916666666676,-0.1257407407407407],[0.22697916666666676,-0.1257407407407407],[0.22906250000000009,-0.11203703703703703],[0.2263541666666666,-0.11888888888888886],[0.22395833333333334,-0.10666666666666672],[0.22020833333333342,-0.1051851851851852],[0.19822916666666662,-0.09259259259259259],[0.18479166666666677,-0.07685185185185185],[0.1716666666666666,-0.05722222222222218],[0.15854166666666672,-0.03759259259259251],[0.13791666666666677,-0.027037037037037078],[0.13416666666666663,-0.017407407407407365],[0.13114583333333343,-0.04685185185185177],[0.13114583333333343,-0.04685185185185177],[0.12114583333333329,-0.0338888888888888],[0.11333333333333329,-0.027037037037037078],[0.11520833333333323,-0.034444444444444486],[0.11458333333333333,-0.028888888888888933],[0.10541666666666671,-0.026481481481481398],[0.10968749999999995,-0.0477777777777777],[0.10833333333333334,-0.07370370370370373],[0.11281249999999995,-0.07851851851851847],[0.11062500000000004,-0.09000000000000004],[0.11541666666666663,-0.07814814814814813],[0.12156250000000005,-0.0787037037037037],[0.12374999999999996,-0.08185185185185183],[0.1318749999999999,-0.08388888888888892],[0.14677083333333343,-0.08592592592592588],[0.16864583333333344,-0.09185185185185189],[0.18229166666666666,-0.09648148148148153],[0.2015625,-0.09648148148148153],[0.19864583333333338,-0.09129629629629632],[0.21520833333333325,-0.08796296296296297],[0.22958333333333342,-0.09370370370370375],[0.23666666666666672,-0.09388888888888887],[0.23666666666666672,-0.09388888888888887],[0.24552083333333338,-0.08537037037037042],[0.2459374999999999,-0.0940740740740741],[0.24208333333333343,-0.11574074074074074],[0.2133333333333333,-0.12685185185185185],[0.18489583333333334,-0.1257407407407407],[0.15666666666666676,-0.1190740740740741],[0.14104166666666676,-0.13185185185185183],[0.10802083333333339,-0.14722222222222223],[0.075,-0.16259259259259262],[0.05552083333333328,-0.16666666666666666],[0.03604166666666669,-0.17074074074074072],[0.008020833333333382,-0.1675925925925926],[-0.02000000000000005,-0.16444444444444448],[-0.022500000000000023,-0.15259259259259256],[-0.022500000000000023,-0.14759259259259258],[-0.03604166666666669,-0.1542592592592593],[-0.03104166666666662,-0.15777777777777777],[-0.06614583333333333,-0.1425925925925926],[-0.09937499999999998,-0.14148148148148143]]","[[0.2555208333333333,0.7783333333333332,0.00019999998807662678],[0.2555208333333333,0.7783333333333332,0.04209999999403635],[0.2555208333333333,0.7783333333333332,0.045099999994036466],[0.24489583333333323,0.7187037037037037,0.06169999998807896],[0.21645833333333328,0.6611111111111111,0.0785999999940401],[0.19604166666666673,0.6205555555555556,0.09529999998211736],[0.18354166666666671,0.5337037037037038,0.11549999999999727],[0.16197916666666667,0.48407407407407405,0.13129999998211872],[0.1571875000000001,0.43944444444444436,0.15009999999404045],[0.13333333333333333,0.34981481481481475,0.16439999997615473],[0.13333333333333333,0.34981481481481475,0.1788999999761529],[0.10989583333333333,0.2868518518518518,0.19539999997615354],[0.10989583333333333,0.2868518518518518,0.21189999997615416],[0.10229166666666671,0.24648148148148152,0.2283999999761548],[0.103125,0.2116666666666666,0.246799999982116],[0.09427083333333333,0.1816666666666667,0.26179999998211656],[0.09031250000000005,0.13796296296296295,0.278499999999994],[0.08635416666666676,0.09425925925925922,0.2979999999999947],[0.09708333333333338,0.09592592592592585,0.3152999999821162],[0.09177083333333323,0.08074074074074078,0.33059999999403544],[0.08041666666666672,0.04092592592592597,0.3528999999761524],[0.08041666666666672,0.04092592592592597,0.36199999999999477],[0.08083333333333324,0.05,0.37889999997615575],[0.08031249999999991,0.053703703703703705,0.404899999976152],[0.08031249999999991,0.053703703703703705,0.41199999999999903],[0.07291666666666667,0.0294444444444444,0.4285999999940344],[0.06124999999999995,-0.004444444444444402,0.4452999999821188],[0.04729166666666664,-0.03314814814814811,0.46429999998211713],[0.05791666666666669,-0.05907407407407403,0.47919999998807583],[0.06854166666666663,-0.08499999999999996,0.49529999998211593],[0.06770833333333333,-0.09814814814814815,0.5158999999761562],[0.08072916666666667,-0.10925925925925926,0.530699999988073],[0.09541666666666657,-0.10388888888888893,0.546899999976155],[0.10791666666666658,-0.10740740740740741,0.5656999999880767],[0.09958333333333323,-0.16277777777777774,0.582499999999996],[0.10208333333333333,-0.1624074074074074,0.5981999999880756],[0.09770833333333329,-0.16259259259259262,0.6176999999880763],[0.09770833333333329,-0.16259259259259262,0.6285999999940373],[0.09802083333333324,-0.14000000000000004,0.6455999999940403],[0.08604166666666657,-0.1111111111111111,0.661999999999999],[0.08635416666666676,-0.09574074074074072,0.681899999976153],[0.06760416666666676,-0.0940740740740741,0.6967999999821188],[0.04989583333333331,-0.08759259259259261,0.7122999999821147],[0.02000000000000005,-0.08574074074074076,0.7317999999821154],[-0.0006250000000000236,-0.07111111111111107,0.7479999999999976],[-0.00927083333333331,-0.0257407407407407,0.7620000000000005],[-0.02666666666666669,-0.010185185185185186,0.7812999999821173],[-0.036666666666666715,-0.002777777777777778,0.795499999999997],[-0.06385416666666661,0.004444444444444402,0.8165999999940396],[-0.07854166666666665,-0.01444444444444436,0.8340999999940379],[-0.07854166666666665,-0.01444444444444436,0.8453999999761521],[-0.11145833333333334,0.003333333333333249,0.8620999999940366],[-0.12760416666666666,0.009629629629629714,0.8816999999880792],[-0.14125000000000001,0.003888888888888931,0.9005999999940357],[-0.14125000000000001,0.003888888888888931,0.9131999999880733],[-0.15593750000000003,-0.006851851851851936,0.9287999999821182],[-0.16479166666666673,-0.034999999999999955,0.9453999999761535],[-0.17864583333333334,-0.05888888888888891,0.9651999999880729],[-0.17937500000000003,-0.048333333333333374,0.9809999999999945],[-0.19093749999999995,-0.05648148148148148,0.9952999999821159],[-0.18697916666666667,-0.05944444444444449,1.0143999999761562],[-0.18697916666666667,-0.05944444444444449,1.0285999999940358],[-0.19572916666666665,-0.03129629629629625,1.045499999999997],[-0.19802083333333337,-0.04388888888888897,1.0618999999761556],[-0.2022916666666667,-0.03981481481481482,1.0812999999821145],[-0.21145833333333333,-0.021851851851851768,1.0951999999880755],[-0.20270833333333335,0.002407407407407323,1.1148999999761529],[-0.20270833333333335,0.002407407407407323,1.132699999988077],[-0.2169791666666666,0.03814814814814819,1.1454999999999984],[-0.2169791666666666,0.03814814814814819,1.1617999999821151],[-0.21260416666666668,0.04611111111111107,1.1814999999999998],[-0.21145833333333333,0.039074074074074115,1.1993999999761584],[-0.21145833333333333,0.039074074074074115,1.2122999999821147],[-0.2045833333333333,0.0712962962962963,1.2339999999999947],[-0.2045833333333333,0.0712962962962963,1.2453999999761578],[-0.19395833333333337,0.08666666666666659,1.2620000000000005],[-0.19239583333333338,0.08611111111111111,1.2820999999940383],[-0.1860416666666667,0.10574074074074079,1.298599999994039],[-0.1860416666666667,0.10574074074074079,1.3120999999940395],[-0.18656250000000002,0.11388888888888889,1.3286999999880749],[-0.18395833333333336,0.11148148148148157,1.353299999982113],[-0.18395833333333336,0.11148148148148157,1.367199999988074],[-0.18250000000000005,0.14129629629629623,1.3792999999821163],[-0.18250000000000005,0.14129629629629623,1.3955999999940403],[-0.17406250000000004,0.1368518518518518,1.4162999999821153],[-0.17843749999999994,0.1594444444444445,1.437399999976158],[-0.17843749999999994,0.1594444444444445,1.4453999999761535],[-0.18781249999999997,0.1824074074074074,1.4619999999999962],[-0.18781249999999997,0.1824074074074074,1.4846999999880737],[-0.18041666666666673,0.18851851851851845,1.495299999982116],[-0.18041666666666673,0.18851851851851845,1.5163999999761586],[-0.15531250000000002,0.21851851851851853,1.5285999999940358],[-0.15531250000000002,0.21851851851851853,1.5521999999880762],[-0.15916666666666662,0.2462962962962963,1.5618999999761556],[-0.15916666666666662,0.2462962962962963,1.57859999999404],[-0.1498958333333333,0.2442592592592592,1.5952999999821174],[-0.12572916666666673,0.24981481481481477,1.6158999999761576],[-0.10666666666666665,0.2511111111111112,1.6291999999880744],[-0.09697916666666669,0.23444444444444448,1.6454999999999984],[-0.08843749999999997,0.2566666666666667,1.661899999976157],[-0.058437500000000024,0.26518518518518525,1.6812999999821159],[-0.04020833333333336,0.2596296296296297,1.6952999999821188],[-0.049687500000000044,0.2614814814814816,1.7160999999940358],[-0.06468750000000002,0.22444444444444453,1.7337999999821179],[-0.042916666666666714,0.20962962962962972,1.7487999999821184],[-0.050312499999999954,0.2162962962962962,1.7643999999761562],[-0.06677083333333336,0.21444444444444435,1.7809999999999988],[-0.07489583333333331,0.22925925925925916,1.7951999999880783],[-0.06937500000000002,0.23648148148148157,1.8149999999999977],[-0.0655208333333333,0.23148148148148148,1.8315999999940402],[-0.09125000000000003,0.22111111111111106,1.848699999988078],[-0.11156250000000002,0.21666666666666667,1.8620999999940366],[-0.08354166666666671,0.22074074074074082,1.8800999999940373],[-0.06739583333333338,0.23462962962962972,1.8950999999940379],[-0.058124999999999954,0.2101851851851852,1.9143999999761547],[-0.043229166666666666,0.202962962962963,1.9283999999761576],[-0.03114583333333331,0.19129629629629621,1.947499999999998],[-0.025833333333333285,0.15759259259259265,1.9653999999761567],[-0.02947916666666662,0.1294444444444444,1.9816999999880736],[-0.025625000000000023,0.10277777777777777,1.998399999976158],[-0.0018749999999999527,0.09166666666666666,2.0150000000000006],[0.02822916666666669,0.07814814814814823,2.029299999982115],[0.01906249999999995,0.05907407407407403,2.0490999999940342],[0.002916666666666619,0.05092592592592592,2.0644999999999953],[0.015208333333333357,0.07740740740740733,2.0813999999761563],[0.03260416666666662,0.09240740740740737,2.0952999999821174],[0.04791666666666667,0.09685185185185177,2.117099999994039],[0.07322916666666662,0.11925925925925922,2.1322999999821164],[0.09354166666666662,0.12722222222222232,2.149499999999996],[0.10791666666666658,0.12722222222222232,2.1639999999999944],[0.12072916666666676,0.13833333333333342,2.1825999999940393],[0.12854166666666675,0.15129629629629637,2.1977999999821165],[0.1359375,0.15833333333333333,2.215899999976159],[0.15666666666666676,0.15851851851851856,2.237499999999997],[0.15666666666666676,0.15851851851851856,2.246099999994037],[0.14614583333333328,0.14944444444444452,2.262099999994035],[0.1446875000000001,0.1485185185185186,2.281399999976152],[0.15552083333333327,0.16740740740740737,2.2988999999761575],[0.15552083333333327,0.16740740740740737,2.3120999999940395],[0.1336458333333333,0.1814814814814815,2.328699999988075],[0.109375,0.19296296296296306,2.3518999999761547],[0.109375,0.19296296296296306,2.3619999999999948],[0.10895833333333324,0.18722222222222226,2.378799999982114],[0.10447916666666662,0.1675925925925926,2.4031999999880753],[0.10447916666666662,0.1675925925925926,2.411999999999999],[0.1021874999999999,0.14629629629629629,2.4285999999940344],[0.1021874999999999,0.1259259259259259,2.4452999999821188],[0.0953125,0.09907407407407408,2.4654999999999987],[0.0953125,0.09907407407407408,2.4786999999880734],[0.1203125,0.06351851851851843,2.495299999982116],[0.11645833333333329,0.041111111111111195,2.51459999999404],[0.11364583333333324,0.027407407407407325,2.5317999999821126],[0.13583333333333342,0.011296296296296339,2.5486999999880737],[0.15322916666666658,-0.01518518518518527,2.566899999976158],[0.1568749999999999,-0.026851851851851852,2.582499999999996],[0.16447916666666676,-0.026666666666666623,2.5973999999761546],[0.1694791666666667,-0.025,2.6142999999821157],[0.16708333333333342,-0.013703703703703662,2.6285999999940373],[0.16531250000000006,-0.005740740740740783,2.645799999982117],[0.15885416666666666,0.0031481481481482323,2.6616999999880733],[0.171875,-0.02833333333333325,2.6817999999821183],[0.16218750000000004,-0.04944444444444453,2.6954999999999956],[0.17072916666666677,-0.0816666666666667,2.714599999994036],[0.19260416666666677,-0.09537037037037037,2.730699999988076],[0.19697916666666657,-0.09388888888888887,2.7455],[0.19979166666666662,-0.10166666666666663,2.7623999999761537],[0.21927083333333333,-0.10888888888888891,2.7811999999880754],[0.22697916666666676,-0.1257407407407407,2.8002999999821157],[0.22697916666666676,-0.1257407407407407,2.8144999999999953],[0.22906250000000009,-0.11203703703703703,2.8320000000000007],[0.2263541666666666,-0.11888888888888886,2.8451999999880755],[0.22395833333333334,-0.10666666666666672,2.861699999988076],[0.22020833333333342,-0.1051851851851852,2.878699999988079],[0.19822916666666662,-0.09259259259259259,2.8951999999880798],[0.18479166666666677,-0.07685185185185185,2.9139999999999944],[0.1716666666666666,-0.05722222222222218,2.9283999999761576],[0.15854166666666672,-0.03759259259259251,2.945099999994035],[0.13791666666666677,-0.027037037037037078,2.9616999999880775],[0.13416666666666663,-0.017407407407407365,2.9808999999761525],[0.13114583333333343,-0.04685185185185177,2.9949999999999974],[0.13114583333333343,-0.04685185185185177,3.012099999994035],[0.12114583333333329,-0.0338888888888888,3.028399999976159],[0.11333333333333329,-0.027037037037037078,3.0451999999880783],[0.11520833333333323,-0.034444444444444486,3.061599999994037],[0.11458333333333333,-0.028888888888888933,3.0784999999999982],[0.10541666666666671,-0.026481481481481398,3.0950999999940336],[0.10968749999999995,-0.0477777777777777,3.1137999999821133],[0.10833333333333334,-0.07370370370370373,3.1307999999821163],[0.11281249999999995,-0.07851851851851847,3.145099999994038],[0.11062500000000004,-0.09000000000000004,3.1616999999880733],[0.11541666666666663,-0.07814814814814813,3.1810999999940393],[0.12156250000000005,-0.0787037037037037,3.195099999994035],[0.12374999999999996,-0.08185185185185183,3.2161999999880777],[0.1318749999999999,-0.08388888888888892,3.2309999999999945],[0.14677083333333343,-0.08592592592592588,3.245399999976158],[0.16864583333333344,-0.09185185185185189,3.2616999999880747],[0.18229166666666666,-0.09648148148148153,3.278499999999994],[0.2015625,-0.09648148148148153,3.2950999999940365],[0.19864583333333338,-0.09129629629629632,3.314599999994037],[0.21520833333333325,-0.08796296296296297,3.330799999982119],[0.22958333333333342,-0.09370370370370375,3.3487999999821128],[0.23666666666666672,-0.09388888888888887,3.364199999988074],[0.23666666666666672,-0.09388888888888887,3.378699999988079],[0.24552083333333338,-0.08537037037037042,3.3951999999880798],[0.2459374999999999,-0.0940740740740741,3.4155999999940363],[0.24208333333333343,-0.11574074074074074,3.428899999976153],[0.2133333333333333,-0.12685185185185185,3.445199999988077],[0.18489583333333334,-0.1257407407407407,3.4617999999821194],[0.15666666666666676,-0.1190740740740741,3.4810999999940364],[0.14104166666666676,-0.13185185185185183,3.4950999999940393],[0.10802083333333339,-0.14722222222222223,3.515499999999996],[0.075,-0.16259259259259262,3.531599999994036],[0.05552083333333328,-0.16666666666666666,3.5450999999940365],[0.03604166666666669,-0.17074074074074072,3.5656999999880767],[0.008020833333333382,-0.1675925925925926,3.582599999994038],[-0.02000000000000005,-0.16444444444444448,3.595399999976152],[-0.022500000000000023,-0.15259259259259256,3.614799999982118],[-0.022500000000000023,-0.14759259259259258,3.6283999999761534],[-0.03604166666666669,-0.1542592592592593,3.649000000000001],[-0.03104166666666662,-0.15777777777777777,3.6616999999880733],[-0.06614583333333333,-0.1425925925925926,3.6784999999999997],[-0.09937499999999998,-0.14148148148148143,3.6950000000000003]]","[0.00019999998807662678,0.04209999999403635,0.045099999994036466,0.06169999998807896,0.0785999999940401,0.09529999998211736,0.11549999999999727,0.13129999998211872,0.15009999999404045,0.16439999997615473,0.1788999999761529,0.19539999997615354,0.21189999997615416,0.2283999999761548,0.246799999982116,0.26179999998211656,0.278499999999994,0.2979999999999947,0.3152999999821162,0.33059999999403544,0.3528999999761524,0.36199999999999477,0.37889999997615575,0.404899999976152,0.41199999999999903,0.4285999999940344,0.4452999999821188,0.46429999998211713,0.47919999998807583,0.49529999998211593,0.5158999999761562,0.530699999988073,0.546899999976155,0.5656999999880767,0.582499999999996,0.5981999999880756,0.6176999999880763,0.6285999999940373,0.6455999999940403,0.661999999999999,0.681899999976153,0.6967999999821188,0.7122999999821147,0.7317999999821154,0.7479999999999976,0.7620000000000005,0.7812999999821173,0.795499999999997,0.8165999999940396,0.8340999999940379,0.8453999999761521,0.8620999999940366,0.8816999999880792,0.9005999999940357,0.9131999999880733,0.9287999999821182,0.9453999999761535,0.9651999999880729,0.9809999999999945,0.9952999999821159,1.0143999999761562,1.0285999999940358,1.045499999999997,1.0618999999761556,1.0812999999821145,1.0951999999880755,1.1148999999761529,1.132699999988077,1.1454999999999984,1.1617999999821151,1.1814999999999998,1.1993999999761584,1.2122999999821147,1.2339999999999947,1.2453999999761578,1.2620000000000005,1.2820999999940383,1.298599999994039,1.3120999999940395,1.3286999999880749,1.353299999982113,1.367199999988074,1.3792999999821163,1.3955999999940403,1.4162999999821153,1.437399999976158,1.4453999999761535,1.4619999999999962,1.4846999999880737,1.495299999982116,1.5163999999761586,1.5285999999940358,1.5521999999880762,1.5618999999761556,1.57859999999404,1.5952999999821174,1.6158999999761576,1.6291999999880744,1.6454999999999984,1.661899999976157,1.6812999999821159,1.6952999999821188,1.7160999999940358,1.7337999999821179,1.7487999999821184,1.7643999999761562,1.7809999999999988,1.7951999999880783,1.8149999999999977,1.8315999999940402,1.848699999988078,1.8620999999940366,1.8800999999940373,1.8950999999940379,1.9143999999761547,1.9283999999761576,1.947499999999998,1.9653999999761567,1.9816999999880736,1.998399999976158,2.0150000000000006,2.029299999982115,2.0490999999940342,2.0644999999999953,2.0813999999761563,2.0952999999821174,2.117099999994039,2.1322999999821164,2.149499999999996,2.1639999999999944,2.1825999999940393,2.1977999999821165,2.215899999976159,2.237499999999997,2.246099999994037,2.262099999994035,2.281399999976152,2.2988999999761575,2.3120999999940395,2.328699999988075,2.3518999999761547,2.3619999999999948,2.378799999982114,2.4031999999880753,2.411999999999999,2.4285999999940344,2.4452999999821188,2.4654999999999987,2.4786999999880734,2.495299999982116,2.51459999999404,2.5317999999821126,2.5486999999880737,2.566899999976158,2.582499999999996,2.5973999999761546,2.6142999999821157,2.6285999999940373,2.645799999982117,2.6616999999880733,2.6817999999821183,2.6954999999999956,2.714599999994036,2.730699999988076,2.7455,2.7623999999761537,2.7811999999880754,2.8002999999821157,2.8144999999999953,2.8320000000000007,2.8451999999880755,2.861699999988076,2.878699999988079,2.8951999999880798,2.9139999999999944,2.9283999999761576,2.945099999994035,2.9616999999880775,2.9808999999761525,2.9949999999999974,3.012099999994035,3.028399999976159,3.0451999999880783,3.061599999994037,3.0784999999999982,3.0950999999940336,3.1137999999821133,3.1307999999821163,3.145099999994038,3.1616999999880733,3.1810999999940393,3.195099999994035,3.2161999999880777,3.2309999999999945,3.245399999976158,3.2616999999880747,3.278499999999994,3.2950999999940365,3.314599999994037,3.330799999982119,3.3487999999821128,3.364199999988074,3.378699999988079,3.3951999999880798,3.4155999999940363,3.428899999976153,3.445199999988077,3.4617999999821194,3.4810999999940364,3.4950999999940393,3.515499999999996,3.531599999994036,3.5450999999940365,3.5656999999880767,3.582599999994038,3.595399999976152,3.614799999982118,3.6283999999761534,3.649000000000001,3.6616999999880733,3.6784999999999997,3.6950000000000003]","[1732776544795,1732776544828,1732776544831,1732776544848,1732776544865,1732776544882,1732776544902,1732776544918,1732776544936,1732776544951,1732776544965,1732776544982,1732776544998,1732776545015,1732776545033,1732776545048,1732776545065,1732776545084,1732776545102,1732776545117,1732776545139,1732776545148,1732776545165,1732776545191,1732776545198,1732776545215,1732776545232,1732776545251,1732776545265,1732776545282,1732776545302,1732776545317,1732776545333,1732776545352,1732776545369,1732776545384,1732776545404,1732776545415,1732776545432,1732776545448,1732776545468,1732776545483,1732776545499,1732776545518,1732776545534,1732776545548,1732776545567,1732776545582,1732776545603,1732776545620,1732776545632,1732776545648,1732776545668,1732776545687,1732776545699,1732776545715,1732776545732,1732776545751,1732776545767,1732776545781,1732776545801,1732776545815,1732776545832,1732776545848,1732776545867,1732776545881,1732776545901,1732776545919,1732776545932,1732776545948,1732776545968,1732776545986,1732776545999,1732776546020,1732776546032,1732776546048,1732776546068,1732776546085,1732776546098,1732776546115,1732776546140,1732776546153,1732776546166,1732776546182,1732776546203,1732776546224,1732776546232,1732776546248,1732776546271,1732776546282,1732776546303,1732776546315,1732776546338,1732776546348,1732776546365,1732776546381,1732776546402,1732776546415,1732776546432,1732776546448,1732776546468,1732776546482,1732776546502,1732776546520,1732776546535,1732776546551,1732776546567,1732776546581,1732776546601,1732776546618,1732776546635,1732776546648,1732776546666,1732776546681,1732776546701,1732776546715,1732776546734,1732776546752,1732776546768,1732776546785,1732776546801,1732776546816,1732776546835,1732776546851,1732776546868,1732776546882,1732776546903,1732776546919,1732776546936,1732776546950,1732776546969,1732776546984,1732776547002,1732776547024,1732776547032,1732776547048,1732776547068,1732776547085,1732776547098,1732776547115,1732776547138,1732776547148,1732776547165,1732776547190,1732776547198,1732776547215,1732776547232,1732776547252,1732776547265,1732776547282,1732776547301,1732776547318,1732776547335,1732776547353,1732776547369,1732776547384,1732776547401,1732776547415,1732776547432,1732776547448,1732776547468,1732776547482,1732776547501,1732776547517,1732776547532,1732776547549,1732776547567,1732776547587,1732776547601,1732776547618,1732776547631,1732776547648,1732776547665,1732776547681,1732776547700,1732776547715,1732776547731,1732776547748,1732776547767,1732776547781,1732776547798,1732776547815,1732776547831,1732776547848,1732776547865,1732776547881,1732776547900,1732776547917,1732776547931,1732776547948,1732776547967,1732776547981,1732776548003,1732776548017,1732776548032,1732776548048,1732776548065,1732776548081,1732776548101,1732776548117,1732776548135,1732776548151,1732776548165,1732776548181,1732776548202,1732776548215,1732776548231,1732776548248,1732776548267,1732776548281,1732776548302,1732776548318,1732776548331,1732776548352,1732776548369,1732776548382,1732776548401,1732776548415,1732776548435,1732776548448,1732776548465,1732776548481]","[[1205.3,960.3],[1205.3,960.3],[1205.3,960.3],[1195.1,928.1],[1167.8,897],[1148.2,875.1],[1136.2,828.2],[1115.5,801.4],[1110.9,777.3],[1088,728.9],[1088,728.9],[1065.5,694.9],[1065.5,694.9],[1058.2,673.1],[1059,654.3],[1050.5,638.1],[1046.7,614.5],[1042.9,590.9],[1053.2,591.8],[1048.1,583.6],[1037.2,562.1],[1037.2,562.1],[1037.6,567],[1037.1,569],[1037.1,569],[1030,555.9],[1018.8,537.6],[1005.4,522.1],[1015.6,508.1],[1025.8,494.1],[1025,487],[1037.5,481],[1051.6,483.9],[1063.6,482],[1055.6,452.1],[1058,452.3],[1053.8,452.2],[1053.8,452.2],[1054.1,464.4],[1042.6,480],[1042.9,488.3],[1024.9,489.2],[1007.9,492.7],[979.2,493.7],[959.4,501.6],[951.1,526.1],[934.4,534.5],[924.8,538.5],[898.7,542.4],[884.6,532.2],[884.6,532.2],[853,541.8],[837.5,545.2],[824.4,542.1],[824.4,542.1],[810.3,536.3],[801.8,521.1],[788.5,508.2],[787.8,513.9],[776.7,509.5],[780.5,507.9],[780.5,507.9],[772.1,523.1],[769.9,516.3],[765.8,518.5],[757,528.2],[765.4,541.3],[765.4,541.3],[751.7,560.6],[751.7,560.6],[755.9,564.9],[757,561.1],[757,561.1],[763.6,578.5],[763.6,578.5],[773.8,586.8],[775.3,586.5],[781.4,597.1],[781.4,597.1],[780.9,601.5],[783.4,600.2],[783.4,600.2],[784.8,616.3],[784.8,616.3],[792.9,613.9],[788.7,626.1],[788.7,626.1],[779.7,638.5],[779.7,638.5],[786.8,641.8],[786.8,641.8],[810.9,658],[810.9,658],[807.2,673],[807.2,673],[816.1,671.9],[839.3,674.9],[857.6,675.6],[866.9,666.6],[875.1,678.6],[903.9,683.2],[921.4,680.2],[912.3,681.2],[897.9,661.2],[918.8,653.2],[911.7,656.8],[895.9,655.8],[888.1,663.8],[893.4,667.7],[897.1,665],[872.4,659.4],[852.9,657],[879.8,659.2],[895.3,666.7],[904.2,653.5],[918.5,649.6],[930.1,643.3],[935.2,625.1],[931.7,609.9],[935.4,595.5],[958.2,589.5],[987.1,582.2],[978.3,571.9],[962.8,567.5],[974.6,581.8],[991.3,589.9],[1006,592.3],[1030.3,604.4],[1049.8,608.7],[1063.6,608.7],[1075.9,614.7],[1083.4,621.7],[1090.5,625.5],[1110.4,625.6],[1110.4,625.6],[1100.3,620.7],[1098.9,620.2],[1109.3,630.4],[1109.3,630.4],[1088.3,638],[1065,644.2],[1065,644.2],[1064.6,641.1],[1060.3,630.5],[1060.3,630.5],[1058.1,619],[1058.1,608],[1051.5,593.5],[1051.5,593.5],[1075.5,574.3],[1071.8,562.2],[1069.1,554.8],[1090.4,546.1],[1107.1,531.8],[1110.6,525.5],[1117.9,525.6],[1122.7,526.5],[1120.4,532.6],[1118.7,536.9],[1112.5,541.7],[1125,524.7],[1115.7,513.3],[1123.9,495.9],[1144.9,488.5],[1149.1,489.3],[1151.8,485.1],[1170.5,481.2],[1177.9,472.1],[1177.9,472.1],[1179.9,479.5],[1177.3,475.8],[1175,482.4],[1171.4,483.2],[1150.3,490],[1137.4,498.5],[1124.8,509.1],[1112.2,519.7],[1092.4,525.4],[1088.8,530.6],[1085.9,514.7],[1085.9,514.7],[1076.3,521.7],[1068.8,525.4],[1070.6,521.4],[1070,524.4],[1061.2,525.7],[1065.3,514.2],[1064,500.2],[1068.3,497.6],[1066.2,491.4],[1070.8,497.8],[1076.7,497.5],[1078.8,495.8],[1086.6,494.7],[1100.9,493.6],[1121.9,490.4],[1135,487.9],[1153.5,487.9],[1150.7,490.7],[1166.6,492.5],[1180.4,489.4],[1187.2,489.3],[1187.2,489.3],[1195.7,493.9],[1196.1,489.2],[1192.4,477.5],[1164.8,471.5],[1137.5,472.1],[1110.4,475.7],[1095.4,468.8],[1063.7,460.5],[1032,452.2],[1013.3,450],[994.6,447.8],[967.7,449.5],[940.8,451.2],[938.4,457.6],[938.4,460.3],[925.4,456.7],[930.2,454.8],[896.5,463],[864.6,463.6]]","[0,0.151169218]","[0.151169218,0.151169218]","[-0.151169218,0]","[-0.151169218,-0.151169218]","[0,0]","[0.151169218,0]","[0,-0.151169218]","[0.151169218,-0.151169218]",0,0,0,0,1,4,Smartphone,11,5,13,9
,,,,,,,,,,,,,,,,,,,22,001,2024-11-28_14h48.21.014,Attention_exp_legacy,2023.1.0,Win32,60.24096386,,,,,,,,,,,[0.13541666666666666],[0.16296296296296298],[1],[0],[0],[2.0808000000119193],"[""Option2_label""]",Option2_label,2,3.0856,"[[0.10625,-0.05555555555555555],[0.10625,-0.05555555555555555],[0.10625,-0.05740740740740741],[0.10520833333333333,-0.05740740740740741],[0.10520833333333333,-0.05740740740740741],[0.10416666666666667,-0.05925925925925926],[0.103125,-0.05925925925925926],[0.10208333333333333,-0.05925925925925926],[0.1,-0.06111111111111111],[0.09583333333333334,-0.06296296296296296],[0.090625,-0.06296296296296296],[0.08333333333333333,-0.06296296296296296],[0.07708333333333334,-0.06296296296296296],[0.07395833333333333,-0.06296296296296296],[0.07395833333333333,-0.06296296296296296],[0.07291666666666667,-0.06296296296296296],[0.071875,-0.06296296296296296],[0.07083333333333333,-0.06296296296296296],[0.06979166666666667,-0.06296296296296296],[0.06770833333333333,-0.06111111111111111],[0.06458333333333334,-0.05555555555555555],[0.06041666666666667,-0.05],[0.05520833333333333,-0.03888888888888889],[0.051041666666666666,-0.025925925925925925],[0.04791666666666667,-0.009259259259259259],[0.04583333333333333,0.012962962962962963],[0.040625,0.040740740740740744],[0.03854166666666667,0.05925925925925926],[0.0375,0.07037037037037037],[0.035416666666666666,0.07962962962962963],[0.034375,0.08333333333333333],[0.03333333333333333,0.08518518518518518],[0.03333333333333333,0.08888888888888889],[0.03229166666666667,0.09074074074074075],[0.03229166666666667,0.09074074074074075],[0.03125,0.09074074074074075],[0.029166666666666667,0.09259259259259259],[0.028125,0.09259259259259259],[0.026041666666666668,0.09259259259259259],[0.026041666666666668,0.09259259259259259],[0.025,0.09259259259259259],[0.025,0.09259259259259259],[0.025,0.09259259259259259],[0.025,0.09259259259259259],[0.025,0.09259259259259259],[0.026041666666666668,0.09259259259259259],[0.0375,0.09259259259259259],[0.05,0.0962962962962963],[0.06041666666666667,0.0962962962962963],[0.06770833333333333,0.0962962962962963],[0.071875,0.0962962962962963],[0.075,0.0962962962962963],[0.08020833333333334,0.09814814814814815],[0.08541666666666667,0.1],[0.096875,0.10185185185185185],[0.103125,0.10555555555555556],[0.109375,0.10555555555555556],[0.11666666666666667,0.10555555555555556],[0.125,0.10555555555555556],[0.13020833333333334,0.10740740740740741],[0.13333333333333333,0.10925925925925926],[0.1375,0.11296296296296296],[0.14166666666666666,0.11481481481481481],[0.14479166666666668,0.11481481481481481],[0.14895833333333333,0.12037037037037036],[0.15,0.12222222222222222],[0.153125,0.1259259259259259],[0.153125,0.1259259259259259],[0.15520833333333334,0.12777777777777777],[0.15625,0.13148148148148148],[0.15625,0.13148148148148148],[0.15729166666666666,0.13148148148148148],[0.15729166666666666,0.13333333333333333],[0.15729166666666666,0.13333333333333333],[0.15833333333333333,0.13518518518518519],[0.15833333333333333,0.13703703703703704],[0.15833333333333333,0.13703703703703704],[0.15833333333333333,0.13703703703703704],[0.15833333333333333,0.13703703703703704],[0.15833333333333333,0.13703703703703704],[0.15833333333333333,0.13703703703703704],[0.15833333333333333,0.13703703703703704],[0.15833333333333333,0.13703703703703704],[0.15833333333333333,0.13703703703703704],[0.15833333333333333,0.13703703703703704],[0.15833333333333333,0.13703703703703704],[0.15729166666666666,0.14074074074074075],[0.15,0.14074074074074075],[0.140625,0.14074074074074075],[0.12916666666666668,0.14074074074074075],[0.11458333333333333,0.14074074074074075],[0.09895833333333333,0.14074074074074075],[0.08333333333333333,0.14074074074074075],[0.07083333333333333,0.14074074074074075],[0.065625,0.14074074074074075],[0.06041666666666667,0.14074074074074075],[0.057291666666666664,0.14074074074074075],[0.05520833333333333,0.14074074074074075],[0.053125,0.14074074074074075],[0.052083333333333336,0.14074074074074075],[0.05,0.14074074074074075],[0.05,0.14074074074074075],[0.05,0.14074074074074075],[0.05,0.14074074074074075],[0.05,0.14074074074074075],[0.05,0.14074074074074075],[0.05,0.14074074074074075],[0.05,0.14074074074074075],[0.05,0.14074074074074075],[0.05,0.14074074074074075],[0.05,0.14074074074074075],[0.05,0.14074074074074075],[0.059375,0.14444444444444443],[0.0625,0.14444444444444443],[0.06979166666666667,0.14444444444444443],[0.07916666666666666,0.14814814814814814],[0.09166666666666666,0.15],[0.11145833333333334,0.1574074074074074],[0.12291666666666666,0.15925925925925927],[0.12604166666666666,0.16111111111111112],[0.134375,0.16296296296296298],[0.13541666666666666,0.16296296296296298],[0.13541666666666666,0.16296296296296298],[0.13541666666666666,0.16296296296296298],[0.13541666666666666,0.16296296296296298],[0.13541666666666666,0.16296296296296298],[0.13541666666666666,0.16296296296296298],[0.13541666666666666,0.16296296296296298],[0.13541666666666666,0.16296296296296298],[0.13541666666666666,0.16296296296296298],[0.13541666666666666,0.16296296296296298],[0.13541666666666666,0.16296296296296298],[0.13541666666666666,0.16296296296296298],[0.13541666666666666,0.16296296296296298],[0.13541666666666666,0.16296296296296298],[0.13541666666666666,0.16296296296296298],[0.13541666666666666,0.16296296296296298],[0.13541666666666666,0.16296296296296298],[0.13541666666666666,0.16296296296296298],[0.13541666666666666,0.16296296296296298],[0.13541666666666666,0.16296296296296298],[0.13541666666666666,0.16296296296296298],[0.13541666666666666,0.16296296296296298],[0.13541666666666666,0.16296296296296298],[0.13541666666666666,0.16296296296296298],[0.13541666666666666,0.16296296296296298],[0.13541666666666666,0.16296296296296298],[0.13541666666666666,0.16296296296296298],[0.13541666666666666,0.16296296296296298],[0.13541666666666666,0.16296296296296298],[0.13541666666666666,0.16296296296296298],[0.13541666666666666,0.16296296296296298],[0.13541666666666666,0.16296296296296298],[0.13541666666666666,0.16296296296296298],[0.13541666666666666,0.16296296296296298],[0.13541666666666666,0.16296296296296298],[0.13541666666666666,0.16296296296296298],[0.13541666666666666,0.16296296296296298],[0.13541666666666666,0.16296296296296298],[0.13541666666666666,0.16296296296296298],[0.13541666666666666,0.16296296296296298],[0.13541666666666666,0.16296296296296298],[0.13541666666666666,0.16296296296296298],[0.13541666666666666,0.16296296296296298],[0.13541666666666666,0.16296296296296298],[0.13541666666666666,0.16296296296296298],[0.13541666666666666,0.16296296296296298],[0.13541666666666666,0.16296296296296298],[0.13541666666666666,0.16296296296296298],[0.13541666666666666,0.16296296296296298],[0.13541666666666666,0.16296296296296298],[0.13541666666666666,0.16296296296296298],[0.13541666666666666,0.16296296296296298],[0.13541666666666666,0.16296296296296298],[0.13541666666666666,0.16296296296296298],[0.13541666666666666,0.16296296296296298],[0.13541666666666666,0.16296296296296298],[0.13541666666666666,0.16296296296296298],[0.13541666666666666,0.16296296296296298],[0.13541666666666666,0.16296296296296298],[0.13541666666666666,0.16296296296296298],[0.13541666666666666,0.16296296296296298],[0.13541666666666666,0.16296296296296298],[0.13541666666666666,0.16296296296296298],[0.13541666666666666,0.16296296296296298],[0.13541666666666666,0.16296296296296298]]","[[0.08635416666666676,-0.07888888888888893],[0.08635416666666676,-0.07888888888888893],[0.09874999999999995,-0.05],[0.09708333333333338,-0.024074074074074074],[0.08895833333333343,-0.018518518518518517],[0.08770833333333337,-0.011296296296296339],[0.09802083333333324,-0.016111111111111194],[0.1015625,-0.011481481481481566],[0.0953125,-0.012592592592592508],[0.08885416666666662,-0.008888888888888804],[0.07947916666666661,0.001851851851851852],[0.07552083333333333,0.012962962962962963],[0.06458333333333334,0.008333333333333333],[0.0626041666666667,0.0011111111111111532],[0.05947916666666669,-0.0016666666666666245],[0.05635416666666669,-0.004444444444444402],[0.0578125,0.01648148148148144],[0.04739583333333333,0.03185185185185194],[0.042604166666666644,0.028703703703703703],[0.03958333333333333,0.028888888888888933],[0.016666666666666666,0.013703703703703662],[-0.00625,-0.0014814814814813973],[-0.016458333333333287,-0.002962962962963005],[-0.013020833333333334,0.002777777777777778],[-0.02041666666666669,-0.0001851851851852273],[-0.02781250000000005,-0.0031481481481482323],[-0.03864583333333336,-0.016851851851851896],[-0.035104166666666714,-0.019999999999999917],[-0.016666666666666666,-0.024074074074074074],[-0.0046875,-0.03537037037037041],[0.007395833333333357,-0.015555555555555513],[0.0421875,-0.013333333333333417],[0.05385416666666672,-0.00592592592592601],[0.04624999999999998,-0.0005555555555554713],[0.052291666666666715,-0.007777777777777862],[0.059895833333333336,-0.022037037037036994],[0.05343749999999995,0.00592592592592601],[0.04833333333333331,0.03685185185185181],[0.02833333333333338,0.06870370370370374],[0.0032291666666666905,0.0838888888888888],[0.007395833333333357,0.08222222222222218],[-0.02010416666666662,0.08611111111111111],[-0.02010416666666662,0.08611111111111111],[-0.029895833333333382,0.08333333333333333],[-0.026145833333333358,0.07962962962962963],[-0.02520833333333338,0.09722222222222222],[-0.022812499999999975,0.10685185185185193],[-0.013229166666666714,0.07851851851851847],[-0.002708333333333357,0.05962962962962971],[0.004479166666666619,0.023333333333333376],[0.02354166666666669,0.03370370370370379],[0.03604166666666669,0.03814814814814819],[0.05010416666666669,0.03740740740740749],[0.06666666666666667,0.02370370370370362],[0.0896874999999999,0.018148148148148063],[0.11270833333333338,0.012592592592592508],[0.11072916666666661,0.020370370370370372],[0.1087500000000001,0.02814814814814823],[0.10010416666666658,0.039629629629629584],[0.08385416666666666,0.06055555555555564],[0.06083333333333331,0.0514814814814814],[0.03343750000000002,0.040740740740740744],[0.041666666666666664,0.02629629629629638],[0.024895833333333308,0.030555555555555555],[0.007187499999999976,0.016666666666666666],[-0.05416666666666667,0.025925925925925925],[-0.041875000000000044,0.015555555555555513],[-0.02958333333333331,0.005185185185185101],[-0.03312499999999995,-0.038703703703703664],[-0.007500000000000047,-0.06296296296296296],[0.0007291666666667141,-0.06814814814814817],[0.02791666666666662,-0.07444444444444442],[0.02791666666666662,-0.07444444444444442],[0.005729166666666666,-0.051666666666666625],[0.02645833333333331,-0.07444444444444442],[0.03145833333333338,-0.08870370370370366],[0.08489583333333334,-0.12388888888888884],[0.08666666666666671,-0.13777777777777775],[0.09677083333333343,-0.16833333333333328],[0.12458333333333324,-0.18648148148148147],[0.14395833333333338,-0.18759259259259262],[0.18072916666666666,-0.20777777777777776],[0.20520833333333333,-0.23740740740740737],[0.2508333333333333,-0.27518518518518525],[0.28020833333333334,-0.27907407407407403],[0.3095833333333334,-0.28296296296296297],[0.3160416666666668,-0.2542592592592593],[0.3120833333333332,-0.2537037037037037],[0.2945833333333333,-0.2462962962962963],[0.2826041666666666,-0.23870370370370367],[0.2607291666666666,-0.2388888888888889],[0.23885416666666662,-0.2390740740740741],[0.209375,-0.23555555555555555],[0.1806250000000001,-0.2235185185185185],[0.14020833333333324,-0.2212962962962963],[0.09979166666666663,-0.2190740740740741],[0.09208333333333343,-0.23259259259259263],[0.09479166666666666,-0.21796296296296294],[0.10583333333333324,-0.19666666666666666],[0.10583333333333324,-0.19666666666666666],[0.09812500000000005,-0.17555555555555558],[0.09812500000000005,-0.17555555555555558],[0.11427083333333338,-0.167037037037037],[0.13781249999999995,-0.17314814814814813],[0.16156249999999991,-0.16574074074074074],[0.18458333333333338,-0.1668518518518519],[0.20770833333333344,-0.1537037037037037],[0.23083333333333325,-0.14055555555555552],[0.24812500000000004,-0.1427777777777778],[0.2529166666666666,-0.1368518518518518],[0.2601041666666667,-0.13499999999999995],[0.2952083333333334,-0.14351851851851852],[0.30656249999999996,-0.1603703703703704],[0.2919791666666666,-0.14000000000000004],[0.2919791666666666,-0.14000000000000004],[0.28250000000000003,-0.12462962962962965],[0.30187499999999995,-0.13537037037037042],[0.28708333333333325,-0.13370370370370369],[0.2842708333333334,-0.12981481481481486],[0.2727083333333333,-0.12962962962962962],[0.2640625,-0.1479629629629629],[0.2517708333333334,-0.1522222222222222],[0.22510416666666658,-0.1514814814814815],[0.22510416666666658,-0.1514814814814815],[0.1984375,-0.1507407407407407],[0.21604166666666677,-0.16055555555555553],[0.21479166666666671,-0.16888888888888887],[0.19656250000000006,-0.15333333333333335],[0.2345833333333334,-0.16129629629629633],[0.26062500000000005,-0.1714814814814815],[0.26458333333333334,-0.15962962962962962],[0.278125,-0.1374074074074074],[0.2942708333333333,-0.13092592592592592],[0.3162499999999999,-0.12444444444444443],[0.3382291666666667,-0.11796296296296294],[0.3103125000000001,-0.12481481481481477],[0.3016666666666666,-0.13351851851851856],[0.3004166666666668,-0.14833333333333337],[0.2705208333333334,-0.14962962962962964],[0.240625,-0.15092592592592594],[0.24927083333333327,-0.17462962962962966],[0.25791666666666657,-0.1983333333333334],[0.23187499999999991,-0.21277777777777773],[0.1953125,-0.21851851851851853],[0.1857291666666666,-0.22537037037037036],[0.20031249999999995,-0.2309259259259259],[0.1943749999999999,-0.22444444444444442],[0.17604166666666668,-0.20092592592592592],[0.1701041666666666,-0.182962962962963],[0.1701041666666666,-0.182962962962963],[0.16364583333333324,-0.17259259259259258],[0.16364583333333324,-0.17259259259259258],[0.14677083333333343,-0.1588888888888889],[0.14677083333333343,-0.1588888888888889],[0.13083333333333325,-0.15314814814814812],[0.1384375000000001,-0.1412962962962963],[0.1384375000000001,-0.1412962962962963],[0.1622916666666666,-0.13629629629629633],[0.1622916666666666,-0.13629629629629633],[0.15875000000000009,-0.12240740740740745],[0.15875000000000009,-0.12240740740740745],[0.15010416666666657,-0.11074074074074076],[0.15010416666666657,-0.11074074074074076],[0.14177083333333323,-0.1081481481481481],[0.13604166666666656,-0.12925925925925927],[0.1318749999999999,-0.14574074074074073],[0.12229166666666676,-0.15240740740740744],[0.10666666666666676,-0.16203703703703703],[0.10666666666666676,-0.16203703703703703],[0.10645833333333338,-0.15185185185185185],[0.11906249999999995,-0.1624074074074074],[0.1015625,-0.1714814814814815],[0.0875,-0.1766666666666666],[0.07770833333333324,-0.1794444444444444],[0.08770833333333337,-0.18518518518518517],[0.08822916666666672,-0.17592592592592593],[0.10770833333333343,-0.04814814814814815],[0.13322916666666676,0.07703703703703708],[0.15833333333333333,0.23962962962962958],[0.16708333333333342,0.3903703703703703],[0.16520833333333323,0.5457407407407409],[0.1678124999999999,0.677962962962963],[0.16437499999999997,0.8087037037037038],[0.13916666666666658,0.8762962962962964],[0.11395833333333343,0.9442592592592595],[0.07041666666666657,0.9653703703703703]]","[[0.08635416666666676,-0.07888888888888893,0.00010000002383492301],[0.08635416666666676,-0.07888888888888893,0.012499999999995737],[0.09874999999999995,-0.05,0.029600000023840778],[0.09708333333333338,-0.024074074074074074,0.045999999999999375],[0.08895833333333343,-0.018518518518518517,0.06290000000595342],[0.08770833333333337,-0.011296296296296339,0.08160000002384038],[0.09802083333333324,-0.016111111111111194,0.09870000001787815],[0.1015625,-0.011481481481481566,0.11280000001191581],[0.0953125,-0.012592592592592508,0.13230000001191655],[0.08885416666666662,-0.008888888888888804,0.14610000002383572],[0.07947916666666661,0.001851851851851852,0.16280000001192008],[0.07552083333333333,0.012962962962962963,0.18149999999999977],[0.06458333333333334,0.008333333333333333,0.19899999999999807],[0.0626041666666667,0.0011111111111111532,0.21449999999999392],[0.05947916666666669,-0.0016666666666666245,0.22930000001191786],[0.05635416666666669,-0.004444444444444402,0.24820000001787434],[0.0578125,0.01648148148148144,0.26310000002384015],[0.04739583333333333,0.03185185185185194,0.2794000000059569],[0.042604166666666644,0.028703703703703703,0.3009999999999948],[0.03958333333333333,0.028888888888888933,0.31540000000595825],[0.016666666666666666,0.013703703703703662,0.33099999999999596],[-0.00625,-0.0014814814814813973,0.34599999999999653],[-0.016458333333333287,-0.002962962962963005,0.36570000001788117],[-0.013020833333333334,0.002777777777777778,0.37930000001191644],[-0.02041666666666669,-0.0001851851851852273,0.3961000000238357],[-0.02781250000000005,-0.0031481481481482323,0.4127000000178782],[-0.03864583333333336,-0.016851851851851896,0.43220000001787895],[-0.035104166666666714,-0.019999999999999917,0.44610000002384],[-0.016666666666666666,-0.024074074074074074,0.46510000002383833],[-0.0046875,-0.03537037037037041,0.47930000001191786],[0.007395833333333357,-0.015555555555555513,0.501600000023835],[0.0421875,-0.013333333333333417,0.5161000000238403],[0.05385416666666672,-0.00592592592592601,0.5322000000178804],[0.04624999999999998,-0.0005555555555554713,0.5478000000119181],[0.052291666666666715,-0.007777777777777862,0.5627000000178768],[0.059895833333333336,-0.022037037037036994,0.5822000000178775],[0.05343749999999995,0.00592592592592601,0.5999000000059596],[0.04833333333333331,0.03685185185185181,0.6144000000059577],[0.02833333333333338,0.06870370370370374,0.634999999999998],[0.0032291666666666905,0.0838888888888888,0.6504000000059591],[0.007395833333333357,0.08222222222222218,0.6666000000238412],[-0.02010416666666662,0.08611111111111111,0.6834999999999951],[-0.02010416666666662,0.08611111111111111,0.695999999999998],[-0.029895833333333382,0.08333333333333333,0.7124000000059567],[-0.026145833333333358,0.07962962962962963,0.729200000017876],[-0.02520833333333338,0.09722222222222222,0.7487000000178767],[-0.022812499999999975,0.10685185185185193,0.7659999999999982],[-0.013229166666666714,0.07851851851851847,0.7809000000059569],[-0.002708333333333357,0.05962962962962971,0.8007000000178763],[0.004479166666666619,0.023333333333333376,0.8158000000119188],[0.02354166666666669,0.03370370370370379,0.8312000000178799],[0.03604166666666669,0.03814814814814819,0.8476000000238386],[0.05010416666666669,0.03740740740740749,0.8663000000119183],[0.06666666666666667,0.02370370370370362,0.8809000000059584],[0.0896874999999999,0.018148148148148063,0.8997000000178801],[0.11270833333333338,0.012592592592592508,0.9162000000178807],[0.11072916666666661,0.020370370370370372,0.931999999999995],[0.1087500000000001,0.02814814814814823,0.94760000002384],[0.10010416666666658,0.039629629629629584,0.9676000000238361],[0.08385416666666666,0.06055555555555564,0.9824999999999946],[0.06083333333333331,0.0514814814814814,1.000800000011914],[0.03343750000000002,0.040740740740740744,1.0173000000119146],[0.041666666666666664,0.02629629629629638,1.033200000017878],[0.024895833333333308,0.030555555555555555,1.0491000000238415],[0.007187499999999976,0.016666666666666666,1.0651000000238398],[-0.05416666666666667,0.025925925925925925,1.081800000011917],[-0.041875000000000044,0.015555555555555513,1.0989999999999966],[-0.02958333333333331,0.005185185185185101,1.1149999999999949],[-0.03312499999999995,-0.038703703703703664,1.1329000000059537],[-0.007500000000000047,-0.06296296296296296,1.1463000000119195],[0.0007291666666667141,-0.06814814814814817,1.1654999999999944],[0.02791666666666662,-0.07444444444444442,1.1893000000119187],[0.02791666666666662,-0.07444444444444442,1.2041000000238355],[0.005729166666666666,-0.051666666666666625,1.2128000000119172],[0.02645833333333331,-0.07444444444444442,1.2294000000059597],[0.03145833333333338,-0.08870370370370366,1.2489999999999952],[0.08489583333333334,-0.12388888888888884,1.2646000000238402],[0.08666666666666671,-0.13777777777777775,1.2791000000238384],[0.09677083333333343,-0.16833333333333328,1.2958000000119156],[0.12458333333333324,-0.18648148148148147,1.3125],[0.14395833333333338,-0.18759259259259262,1.3292000000178774],[0.18072916666666666,-0.20777777777777776,1.345700000017878],[0.20520833333333333,-0.23740740740740737,1.362700000017881],[0.2508333333333333,-0.27518518518518525,1.3791000000238398],[0.28020833333333334,-0.27907407407407403,1.395900000005959],[0.3095833333333334,-0.28296296296296297,1.4127000000178782],[0.3160416666666668,-0.2542592592592593,1.4318000000119184],[0.3120833333333332,-0.2537037037037037,1.445900000005956],[0.2945833333333333,-0.2462962962962963,1.462900000005959],[0.2826041666666666,-0.23870370370370367,1.481499999999997],[0.2607291666666666,-0.2388888888888889,1.497800000011921],[0.23885416666666662,-0.2390740740740741,1.5126000000238378],[0.209375,-0.23555555555555555,1.5322000000178804],[0.1806250000000001,-0.2235185185185185,1.5477000000178762],[0.14020833333333324,-0.2212962962962963,1.5628000000119187],[0.09979166666666663,-0.2190740740740741,1.5817000000178751],[0.09208333333333343,-0.23259259259259263,1.5993000000119153],[0.09479166666666666,-0.21796296296296294,1.6129000000059577],[0.10583333333333324,-0.19666666666666666,1.6331000000238376],[0.10583333333333324,-0.19666666666666666,1.646499999999996],[0.09812500000000005,-0.17555555555555558,1.6631000000238387],[0.09812500000000005,-0.17555555555555558,1.6792000000178788],[0.11427083333333338,-0.167037037037037,1.695999999999998],[0.13781249999999995,-0.17314814814814813,1.7124000000059567],[0.16156249999999991,-0.16574074074074074,1.729200000017876],[0.18458333333333338,-0.1668518518518519,1.7458000000119185],[0.20770833333333344,-0.1537037037037037,1.7626000000238378],[0.23083333333333325,-0.14055555555555552,1.7792000000178803],[0.24812500000000004,-0.1427777777777778,1.7997000000178787],[0.2529166666666666,-0.1368518518518518,1.8129000000059534],[0.2601041666666667,-0.13499999999999995,1.832499999999996],[0.2952083333333334,-0.14351851851851852,1.8492000000178805],[0.30656249999999996,-0.1603703703703704,1.8669999999999973],[0.2919791666666666,-0.14000000000000004,1.8839999999999932],[0.2919791666666666,-0.14000000000000004,1.8963000000119195],[0.28250000000000003,-0.12462962962962965,1.9127000000178782],[0.30187499999999995,-0.13537037037037042,1.9332000000178766],[0.28708333333333325,-0.13370370370370369,1.9493000000119167],[0.2842708333333334,-0.12981481481481486,1.9659000000059592],[0.2727083333333333,-0.12962962962962962,1.9794000000059597],[0.2640625,-0.1479629629629629,2.0009999999999977],[0.2517708333333334,-0.1522222222222222,2.016999999999996],[0.22510416666666658,-0.1514814814814815,2.033100000023836],[0.22510416666666658,-0.1514814814814815,2.0458000000119156],[0.1984375,-0.1507407407407407,2.062600000023835],[0.21604166666666677,-0.16055555555555553,2.0822000000178775],[0.21479166666666671,-0.16888888888888887,2.0999999999999943],[0.19656250000000006,-0.15333333333333335,2.116700000017879],[0.2345833333333334,-0.16129629629629633,2.131999999999998],[0.26062500000000005,-0.1714814814814815,2.145700000017875],[0.26458333333333334,-0.15962962962962962,2.1624999999999943],[0.278125,-0.1374074074074074,2.179100000023837],[0.2942708333333333,-0.13092592592592592,2.198200000017877],[0.3162499999999999,-0.12444444444444443,2.2132000000178778],[0.3382291666666667,-0.11796296296296294,2.2334999999999994],[0.3103125000000001,-0.12481481481481477,2.249300000011914],[0.3016666666666666,-0.13351851851851856,2.2659000000059564],[0.3004166666666668,-0.14833333333333337,2.283200000017878],[0.2705208333333334,-0.14962962962962964,2.301499999999997],[0.240625,-0.15092592592592594,2.3169000000059583],[0.24927083333333327,-0.17462962962962966,2.3331000000238404],[0.25791666666666657,-0.1983333333333334,2.349400000005957],[0.23187499999999991,-0.21277777777777773,2.36640000000596],[0.1953125,-0.21851851851851853,2.381800000011914],[0.1857291666666666,-0.22537037037037036,2.399800000011915],[0.20031249999999995,-0.2309259259259259,2.4164000000059573],[0.1943749999999999,-0.22444444444444442,2.433499999999995],[0.17604166666666668,-0.20092592592592592,2.449800000011919],[0.1701041666666666,-0.182962962962963,2.469800000011915],[0.1701041666666666,-0.182962962962963,2.4791000000238412],[0.16364583333333324,-0.17259259259259258,2.496100000023837],[0.16364583333333324,-0.17259259259259258,2.5124999999999957],[0.14677083333333343,-0.1588888888888889,2.5292000000178803],[0.14677083333333343,-0.1588888888888889,2.5458000000119156],[0.13083333333333325,-0.15314814814814812,2.562600000023835],[0.1384375000000001,-0.1412962962962963,2.586600000023836],[0.1384375000000001,-0.1412962962962963,2.59730000001192],[0.1622916666666666,-0.13629629629629633,2.6124000000059553],[0.1622916666666666,-0.13629629629629633,2.6292000000178746],[0.15875000000000009,-0.12240740740740745,2.645900000005959],[0.15875000000000009,-0.12240740740740745,2.664600000023839],[0.15010416666666657,-0.11074074074074076,2.679200000017879],[0.15010416666666657,-0.11074074074074076,2.695999999999998],[0.14177083333333323,-0.1081481481481481,2.7124999999999986],[0.13604166666666656,-0.12925925925925927,2.729300000011918],[0.1318749999999999,-0.14574074074074073,2.7458000000119185],[0.12229166666666676,-0.15240740740740744,2.764100000023838],[0.10666666666666676,-0.16203703703703703,2.7812000000178756],[0.10666666666666676,-0.16203703703703703,2.7959999999999994],[0.10645833333333338,-0.15185185185185185,2.8125],[0.11906249999999995,-0.1624074074074074,2.829400000005954],[0.1015625,-0.1714814814814815,2.8459000000059547],[0.0875,-0.1766666666666666,2.8629000000059577],[0.07770833333333324,-0.1794444444444444,2.8792000000178746],[0.08770833333333337,-0.18518518518518517,2.8979000000059543],[0.08822916666666672,-0.17592592592592593,2.9124000000059596],[0.10770833333333343,-0.04814814814814815,2.929200000017879],[0.13322916666666676,0.07703703703703708,2.945800000011914],[0.15833333333333333,0.23962962962962958,2.9624999999999986],[0.16708333333333342,0.3903703703703703,2.9791000000238412],[0.16520833333333323,0.5457407407407409,2.9989999999999952],[0.1678124999999999,0.677962962962963,3.0151000000238355],[0.16437499999999997,0.8087037037037038,3.030800000011915],[0.13916666666666658,0.8762962962962964,3.0458000000119156],[0.11395833333333343,0.9442592592592595,3.062600000023835],[0.07041666666666657,0.9653703703703703,3.085600000023838]]","[0.00010000002383492301,0.012499999999995737,0.029600000023840778,0.045999999999999375,0.06290000000595342,0.08160000002384038,0.09870000001787815,0.11280000001191581,0.13230000001191655,0.14610000002383572,0.16280000001192008,0.18149999999999977,0.19899999999999807,0.21449999999999392,0.22930000001191786,0.24820000001787434,0.26310000002384015,0.2794000000059569,0.3009999999999948,0.31540000000595825,0.33099999999999596,0.34599999999999653,0.36570000001788117,0.37930000001191644,0.3961000000238357,0.4127000000178782,0.43220000001787895,0.44610000002384,0.46510000002383833,0.47930000001191786,0.501600000023835,0.5161000000238403,0.5322000000178804,0.5478000000119181,0.5627000000178768,0.5822000000178775,0.5999000000059596,0.6144000000059577,0.634999999999998,0.6504000000059591,0.6666000000238412,0.6834999999999951,0.695999999999998,0.7124000000059567,0.729200000017876,0.7487000000178767,0.7659999999999982,0.7809000000059569,0.8007000000178763,0.8158000000119188,0.8312000000178799,0.8476000000238386,0.8663000000119183,0.8809000000059584,0.8997000000178801,0.9162000000178807,0.931999999999995,0.94760000002384,0.9676000000238361,0.9824999999999946,1.000800000011914,1.0173000000119146,1.033200000017878,1.0491000000238415,1.0651000000238398,1.081800000011917,1.0989999999999966,1.1149999999999949,1.1329000000059537,1.1463000000119195,1.1654999999999944,1.1893000000119187,1.2041000000238355,1.2128000000119172,1.2294000000059597,1.2489999999999952,1.2646000000238402,1.2791000000238384,1.2958000000119156,1.3125,1.3292000000178774,1.345700000017878,1.362700000017881,1.3791000000238398,1.395900000005959,1.4127000000178782,1.4318000000119184,1.445900000005956,1.462900000005959,1.481499999999997,1.497800000011921,1.5126000000238378,1.5322000000178804,1.5477000000178762,1.5628000000119187,1.5817000000178751,1.5993000000119153,1.6129000000059577,1.6331000000238376,1.646499999999996,1.6631000000238387,1.6792000000178788,1.695999999999998,1.7124000000059567,1.729200000017876,1.7458000000119185,1.7626000000238378,1.7792000000178803,1.7997000000178787,1.8129000000059534,1.832499999999996,1.8492000000178805,1.8669999999999973,1.8839999999999932,1.8963000000119195,1.9127000000178782,1.9332000000178766,1.9493000000119167,1.9659000000059592,1.9794000000059597,2.0009999999999977,2.016999999999996,2.033100000023836,2.0458000000119156,2.062600000023835,2.0822000000178775,2.0999999999999943,2.116700000017879,2.131999999999998,2.145700000017875,2.1624999999999943,2.179100000023837,2.198200000017877,2.2132000000178778,2.2334999999999994,2.249300000011914,2.2659000000059564,2.283200000017878,2.301499999999997,2.3169000000059583,2.3331000000238404,2.349400000005957,2.36640000000596,2.381800000011914,2.399800000011915,2.4164000000059573,2.433499999999995,2.449800000011919,2.469800000011915,2.4791000000238412,2.496100000023837,2.5124999999999957,2.5292000000178803,2.5458000000119156,2.562600000023835,2.586600000023836,2.59730000001192,2.6124000000059553,2.6292000000178746,2.645900000005959,2.664600000023839,2.679200000017879,2.695999999999998,2.7124999999999986,2.729300000011918,2.7458000000119185,2.764100000023838,2.7812000000178756,2.7959999999999994,2.8125,2.829400000005954,2.8459000000059547,2.8629000000059577,2.8792000000178746,2.8979000000059543,2.9124000000059596,2.929200000017879,2.945800000011914,2.9624999999999986,2.9791000000238412,2.9989999999999952,3.0151000000238355,3.030800000011915,3.0458000000119156,3.062600000023835,3.085600000023838]","[1732776549504,1732776549515,1732776549532,1732776549548,1732776549565,1732776549584,1732776549601,1732776549615,1732776549634,1732776549648,1732776549665,1732776549684,1732776549701,1732776549717,1732776549731,1732776549750,1732776549765,1732776549782,1732776549803,1732776549818,1732776549833,1732776549848,1732776549868,1732776549881,1732776549898,1732776549915,1732776549934,1732776549948,1732776549967,1732776549982,1732776550004,1732776550018,1732776550034,1732776550050,1732776550065,1732776550084,1732776550102,1732776550117,1732776550137,1732776550152,1732776550169,1732776550186,1732776550198,1732776550215,1732776550231,1732776550251,1732776550268,1732776550283,1732776550303,1732776550318,1732776550333,1732776550350,1732776550368,1732776550383,1732776550402,1732776550418,1732776550434,1732776550450,1732776550470,1732776550485,1732776550503,1732776550519,1732776550535,1732776550551,1732776550567,1732776550584,1732776550601,1732776550617,1732776550635,1732776550648,1732776550668,1732776550691,1732776550706,1732776550715,1732776550732,1732776550751,1732776550767,1732776550781,1732776550798,1732776550815,1732776550831,1732776550848,1732776550865,1732776550881,1732776550898,1732776550915,1732776550934,1732776550948,1732776550965,1732776550984,1732776551000,1732776551015,1732776551034,1732776551050,1732776551065,1732776551084,1732776551101,1732776551115,1732776551135,1732776551149,1732776551165,1732776551181,1732776551198,1732776551215,1732776551231,1732776551248,1732776551265,1732776551281,1732776551302,1732776551315,1732776551335,1732776551351,1732776551369,1732776551386,1732776551398,1732776551415,1732776551435,1732776551451,1732776551468,1732776551481,1732776551503,1732776551519,1732776551535,1732776551548,1732776551565,1732776551584,1732776551602,1732776551619,1732776551634,1732776551648,1732776551665,1732776551681,1732776551700,1732776551715,1732776551736,1732776551751,1732776551768,1732776551785,1732776551804,1732776551819,1732776551835,1732776551852,1732776551868,1732776551884,1732776551902,1732776551919,1732776551936,1732776551952,1732776551972,1732776551981,1732776551998,1732776552015,1732776552031,1732776552048,1732776552065,1732776552089,1732776552099,1732776552115,1732776552131,1732776552148,1732776552167,1732776552181,1732776552198,1732776552215,1732776552231,1732776552248,1732776552266,1732776552283,1732776552298,1732776552315,1732776552332,1732776552348,1732776552365,1732776552381,1732776552400,1732776552415,1732776552431,1732776552448,1732776552465,1732776552481,1732776552501,1732776552517,1732776552533,1732776552548,1732776552565,1732776552588]","[[1042.9,497.4],[1042.9,497.4],[1054.8,513],[1053.2,527],[1045.4,530],[1044.2,533.9],[1054.1,531.3],[1057.5,533.8],[1051.5,533.2],[1045.3,535.2],[1036.3,541],[1032.5,547],[1022,544.5],[1020.1,540.6],[1017.1,539.1],[1014.1,537.6],[1015.5,548.9],[1005.5,557.2],[1000.9,555.5],[998,555.6],[976,547.4],[954,539.2],[944.2,538.4],[947.5,541.5],[940.4,539.9],[933.3,538.3],[922.9,530.9],[926.3,529.2],[944,527],[955.5,520.9],[967.1,531.6],[1000.5,532.8],[1011.7,536.8],[1004.4,539.7],[1010.2,535.8],[1017.5,528.1],[1011.3,543.2],[1006.4,559.9],[987.2,577.1],[963.1,585.3],[967.1,584.4],[940.7,586.5],[940.7,586.5],[931.3,585],[934.9,583],[935.8,592.5],[938.1,597.7],[947.3,582.4],[957.4,572.2],[964.3,552.6],[982.6,558.2],[994.6,560.6],[1008.1,560.2],[1024,552.8],[1046.1,549.8],[1068.2,546.8],[1066.3,551],[1064.4,555.2],[1056.1,561.4],[1040.5,572.7],[1018.4,567.8],[992.1,562],[1000,554.2],[983.9,556.5],[966.9,549],[908,554],[919.8,548.4],[931.6,542.8],[928.2,519.1],[952.8,506],[960.7,503.2],[986.8,499.8],[986.8,499.8],[965.5,512.1],[985.4,499.8],[990.2,492.1],[1041.5,473.1],[1043.2,465.6],[1052.9,449.1],[1079.6,439.3],[1098.2,438.7],[1133.5,427.8],[1157,411.8],[1200.8,391.4],[1229,389.3],[1257.2,387.2],[1263.4,402.7],[1259.6,403],[1242.8,407],[1231.3,411.1],[1210.3,411],[1189.3,410.9],[1161,412.8],[1133.4,419.3],[1094.6,420.5],[1055.8,421.7],[1048.4,414.4],[1051,422.3],[1061.6,433.8],[1061.6,433.8],[1054.2,445.2],[1054.2,445.2],[1069.7,449.8],[1092.3,446.5],[1115.1,450.5],[1137.2,449.9],[1159.4,457],[1181.6,464.1],[1198.2,462.9],[1202.8,466.1],[1209.7,467.1],[1243.4,462.5],[1254.3,453.4],[1240.3,464.4],[1240.3,464.4],[1231.2,472.7],[1249.8,466.9],[1235.6,467.8],[1232.9,469.9],[1221.8,470],[1213.5,460.1],[1201.7,457.8],[1176.1,458.2],[1176.1,458.2],[1150.5,458.6],[1167.4,453.3],[1166.2,448.8],[1148.7,457.2],[1185.2,452.9],[1210.2,447.4],[1214,453.8],[1227,465.8],[1242.5,469.3],[1263.6,472.8],[1284.7,476.3],[1257.9,472.6],[1249.6,467.9],[1248.4,459.9],[1219.7,459.2],[1191,458.5],[1199.3,445.7],[1207.6,432.9],[1182.6,425.1],[1147.5,422],[1138.3,418.3],[1152.3,415.3],[1146.6,418.8],[1129,431.5],[1123.3,441.2],[1123.3,441.2],[1117.1,446.8],[1117.1,446.8],[1100.9,454.2],[1100.9,454.2],[1085.6,457.3],[1092.9,463.7],[1092.9,463.7],[1115.8,466.4],[1115.8,466.4],[1112.4,473.9],[1112.4,473.9],[1104.1,480.2],[1104.1,480.2],[1096.1,481.6],[1090.6,470.2],[1086.6,461.3],[1077.4,457.7],[1062.4,452.5],[1062.4,452.5],[1062.2,458],[1074.3,452.3],[1057.5,447.4],[1044,444.6],[1034.6,443.1],[1044.2,440],[1044.7,445],[1063.4,514],[1087.9,581.6],[1112,669.4],[1120.4,750.8],[1118.6,834.7],[1121.1,906.1],[1117.8,976.7],[1093.6,1013.2],[1069.4,1049.9],[1027.6,1061.3]]","[0,0.151169218]","[0.151169218,0.151169218]","[-0.151169218,-0.151169218]","[-0.151169218,0]","[0,-0.151169218]","[0.151169218,-0.151169218]","[0,0]","[0.151169218,0]",0,1,1,1,1,4,Smartphone,5,1,13,7
