inst1_resp.keys,inst1_resp.rt,calibrationMouse.x,calibrationMouse.y,calibrationMouse.leftButton,calibrationMouse.midButton,calibrationMouse.rightButton,calibrationClick.x,calibrationClick.y,calibrationClick.leftButton,calibrationClick.midButton,calibrationClick.rightButton,trialsc.thisRepN,trialsc.thisTrialN,trialsc.thisN,trialsc.thisIndex,trialsc.ran,calibration_x,calibration_y,participant,session,date,expName,psychopyVersion,OS,frameRate,calibrationClick.clicked_name,ScreenRes_pixels,Camera_pixels,mouse_2.x,mouse_2.y,mouse_2.leftButton,mouse_2.midButton,mouse_2.rightButton,mouse_2.time,mouse_2.clicked_name,mouse.x,mouse.y,mouse.leftButton,mouse.midButton,mouse.rightButton,mouse.time,mouse.clicked_name,Choice,Trial,TrialDuration,MOUSE_GAZE,ET_GAZE,ET_GAZE_x_T,time,unixTime,ET_GAZE_NF,Loc_Option1_label,Loc_Option2_label,Loc_Cost_label,Loc_Qual_label,Loc_Option1_cost,Loc_Option2_cost,Loc_Option1_quality,Loc_Option2_quality,trials.thisRepN,trials.thisTrialN,trials.thisN,trials.thisIndex,trials.ran,Block,Device,cost1,qual1,cost2,qual2
space,3.7159,0.040625,0.3,1,0,0,0.319791667,0.32962963,1,0,0,0,0,0,17,1,0.33,0.33,17,001,2024-12-05_15h47.26.406,Attention_exp_legacy,2023.1.0,Win32,59.88023952,,,,,,,,,,,,,,,,,,,,,,,,,,,,,,,,,,,,,,,,,,,,,
,,,,,,,0.002083333,0.003703704,1,0,0,0,1,1,11,1,0,0,17,001,2024-12-05_15h47.26.406,Attention_exp_legacy,2023.1.0,Win32,59.88023952,calibration_square,,,,,,,,,,,,,,,,,,,,,,,,,,,,,,,,,,,,,,,,,,,,
,,,,,,,0.001041667,0.677777778,1,0,0,0,2,2,13,1,0,0.67,17,001,2024-12-05_15h47.26.406,Attention_exp_legacy,2023.1.0,Win32,59.88023952,calibration_square,,,,,,,,,,,,,,,,,,,,,,,,,,,,,,,,,,,,,,,,,,,,
,,,,,,,-0.327083333,-0.327777778,1,0,0,0,3,3,5,1,-0.33,-0.33,17,001,2024-12-05_15h47.26.406,Attention_exp_legacy,2023.1.0,Win32,59.88023952,calibration_square,,,,,,,,,,,,,,,,,,,,,,,,,,,,,,,,,,,,,,,,,,,,
,,,,,,,0.335416667,-0.672222222,1,0,0,0,4,4,14,1,0.33,-0.67,17,001,2024-12-05_15h47.26.406,Attention_exp_legacy,2023.1.0,Win32,59.88023952,calibration_square,,,,,,,,,,,,,,,,,,,,,,,,,,,,,,,,,,,,,,,,,,,,
,,,,,,,-0.3375,-0.007407407,1,0,0,0,5,5,6,1,-0.33,0,17,001,2024-12-05_15h47.26.406,Attention_exp_legacy,2023.1.0,Win32,59.88023952,calibration_square,,,,,,,,,,,,,,,,,,,,,,,,,,,,,,,,,,,,,,,,,,,,
,,,,,,,-0.329166667,0.338888889,1,0,0,0,6,6,7,1,-0.33,0.33,17,001,2024-12-05_15h47.26.406,Attention_exp_legacy,2023.1.0,Win32,59.88023952,calibration_square,,,,,,,,,,,,,,,,,,,,,,,,,,,,,,,,,,,,,,,,,,,,
,,,,,,,-0.332291667,0.664814815,1,0,0,0,7,7,8,1,-0.33,0.67,17,001,2024-12-05_15h47.26.406,Attention_exp_legacy,2023.1.0,Win32,59.88023952,calibration_square,,,,,,,,,,,,,,,,,,,,,,,,,,,,,,,,,,,,,,,,,,,,
,,,,,,,-0.008333333,-0.322222222,1,0,0,0,8,8,10,1,0,-0.33,17,001,2024-12-05_15h47.26.406,Attention_exp_legacy,2023.1.0,Win32,59.88023952,calibration_square,,,,,,,,,,,,,,,,,,,,,,,,,,,,,,,,,,,,,,,,,,,,
,,,,,,,-0.005208333,-0.668518519,1,0,0,0,9,9,9,1,0,-0.67,17,001,2024-12-05_15h47.26.406,Attention_exp_legacy,2023.1.0,Win32,59.88023952,calibration_square,,,,,,,,,,,,,,,,,,,,,,,,,,,,,,,,,,,,,,,,,,,,
,,,,,,,0.323958333,-0.003703704,1,0,0,0,10,10,16,1,0.33,0,17,001,2024-12-05_15h47.26.406,Attention_exp_legacy,2023.1.0,Win32,59.88023952,calibration_square,,,,,,,,,,,,,,,,,,,,,,,,,,,,,,,,,,,,,,,,,,,,
,,,,,,,0.663541667,-0.672222222,1,0,0,0,11,11,20,1,0.67,-0.67,17,001,2024-12-05_15h47.26.406,Attention_exp_legacy,2023.1.0,Win32,59.88023952,calibration_square,,,,,,,,,,,,,,,,,,,,,,,,,,,,,,,,,,,,,,,,,,,,
,,,,,,,0.333333333,-0.331481481,1,0,0,0,12,12,15,1,0.33,-0.33,17,001,2024-12-05_15h47.26.406,Attention_exp_legacy,2023.1.0,Win32,59.88023952,calibration_square,,,,,,,,,,,,,,,,,,,,,,,,,,,,,,,,,,,,,,,,,,,,
,,,,,,,-0.673958333,0.337037037,1,0,0,0,13,13,3,1,-0.67,0.33,17,001,2024-12-05_15h47.26.406,Attention_exp_legacy,2023.1.0,Win32,59.88023952,calibration_square,,,,,,,,,,,,,,,,,,,,,,,,,,,,,,,,,,,,,,,,,,,,
,,,,,,,0.669791667,0.677777778,1,0,0,0,14,14,19,1,0.67,0.67,17,001,2024-12-05_15h47.26.406,Attention_exp_legacy,2023.1.0,Win32,59.88023952,calibration_square,,,,,,,,,,,,,,,,,,,,,,,,,,,,,,,,,,,,,,,,,,,,
,,,,,,,-0.005208333,0.331481481,1,0,0,0,15,15,12,1,0,0.33,17,001,2024-12-05_15h47.26.406,Attention_exp_legacy,2023.1.0,Win32,59.88023952,calibration_square,,,,,,,,,,,,,,,,,,,,,,,,,,,,,,,,,,,,,,,,,,,,
,,,,,,,-0.676041667,-0.672222222,1,0,0,0,16,16,0,1,-0.67,-0.67,17,001,2024-12-05_15h47.26.406,Attention_exp_legacy,2023.1.0,Win32,59.88023952,calibration_square,,,,,,,,,,,,,,,,,,,,,,,,,,,,,,,,,,,,,,,,,,,,
,,,,,,,-0.671875,0.007407407,1,0,0,0,17,17,2,1,-0.67,0,17,001,2024-12-05_15h47.26.406,Attention_exp_legacy,2023.1.0,Win32,59.88023952,calibration_square,,,,,,,,,,,,,,,,,,,,,,,,,,,,,,,,,,,,,,,,,,,,
,,,,,,,-0.323958333,-0.677777778,1,0,0,0,18,18,4,1,-0.33,-0.67,17,001,2024-12-05_15h47.26.406,Attention_exp_legacy,2023.1.0,Win32,59.88023952,calibration_square,,,,,,,,,,,,,,,,,,,,,,,,,,,,,,,,,,,,,,,,,,,,
,,,,,,,0.33125,0.666666667,1,0,0,0,19,19,18,1,0.33,0.67,17,001,2024-12-05_15h47.26.406,Attention_exp_legacy,2023.1.0,Win32,59.88023952,calibration_square,,,,,,,,,,,,,,,,,,,,,,,,,,,,,,,,,,,,,,,,,,,,
,,,,,,,-0.679166667,-0.32962963,1,0,0,0,20,20,1,1,-0.67,-0.33,17,001,2024-12-05_15h47.26.406,Attention_exp_legacy,2023.1.0,Win32,59.88023952,calibration_square,,,,,,,,,,,,,,,,,,,,,,,,,,,,,,,,,,,,,,,,,,,,
,,,,,,,,,,,,,,,,,,,17,001,2024-12-05_15h47.26.406,Attention_exp_legacy,2023.1.0,Win32,59.88023952,,"[1920,1080]","[640,480]",[0.027083333333333334],[-0.5148148148148148],[1],[0],[0],[1.247699999988079],"[""StartButton""]",[0.175],[0.12962962962962962],[1],[0],[0],[5.151900000005959],"[""Option2_label""]",Option2_label,1,6.176,"[[0.08541666666666667,-0.2777777777777778],[0.09166666666666666,-0.2722222222222222],[0.09270833333333334,-0.2722222222222222],[0.09479166666666666,-0.26851851851851855],[0.096875,-0.26481481481481484],[0.10104166666666667,-0.25925925925925924],[0.10520833333333333,-0.2537037037037037],[0.109375,-0.24814814814814815],[0.115625,-0.24074074074074073],[0.12083333333333333,-0.23333333333333334],[0.128125,-0.22037037037037038],[0.13333333333333333,-0.2],[0.140625,-0.17037037037037037],[0.14479166666666668,-0.1537037037037037],[0.15,-0.13703703703703704],[0.15729166666666666,-0.11666666666666667],[0.1625,-0.1],[0.17083333333333334,-0.07592592592592592],[0.17291666666666666,-0.07407407407407407],[0.17708333333333334,-0.06666666666666667],[0.18229166666666666,-0.05925925925925926],[0.18333333333333332,-0.05925925925925926],[0.18333333333333332,-0.05925925925925926],[0.18333333333333332,-0.05925925925925926],[0.18333333333333332,-0.05925925925925926],[0.18333333333333332,-0.05925925925925926],[0.18333333333333332,-0.05925925925925926],[0.18333333333333332,-0.05925925925925926],[0.17395833333333333,-0.06296296296296296],[0.15625,-0.07407407407407407],[0.128125,-0.08333333333333333],[0.08333333333333333,-0.09444444444444444],[0.05625,-0.1037037037037037],[0.03333333333333333,-0.11666666666666667],[0.015625,-0.1259259259259259],[-0.0020833333333333333,-0.13518518518518519],[-0.017708333333333333,-0.14444444444444443],[-0.03125,-0.15],[-0.042708333333333334,-0.1537037037037037],[-0.04791666666666667,-0.1574074074074074],[-0.052083333333333336,-0.16296296296296298],[-0.05520833333333333,-0.16666666666666666],[-0.05625,-0.17037037037037037],[-0.05625,-0.17777777777777778],[-0.05625,-0.17962962962962964],[-0.05625,-0.18333333333333332],[-0.053125,-0.18703703703703703],[-0.046875,-0.18703703703703703],[-0.03854166666666667,-0.18703703703703703],[-0.029166666666666667,-0.18703703703703703],[-0.017708333333333333,-0.18703703703703703],[-0.004166666666666667,-0.17962962962962964],[0.005208333333333333,-0.17592592592592593],[0.013541666666666667,-0.17037037037037037],[0.015625,-0.16666666666666666],[0.017708333333333333,-0.16296296296296298],[0.017708333333333333,-0.16111111111111112],[0.017708333333333333,-0.15555555555555556],[0.017708333333333333,-0.15],[0.014583333333333334,-0.14074074074074075],[0.008333333333333333,-0.13148148148148148],[-0.0010416666666666667,-0.10925925925925926],[-0.003125,-0.1037037037037037],[-0.00625,-0.08888888888888889],[-0.009375,-0.07962962962962963],[-0.0125,-0.06111111111111111],[-0.0125,-0.05],[-0.0125,-0.04259259259259259],[-0.0125,-0.03518518518518519],[-0.0125,-0.02962962962962963],[-0.010416666666666666,-0.022222222222222223],[-0.008333333333333333,-0.018518518518518517],[-0.005208333333333333,-0.012962962962962963],[-0.0020833333333333333,-0.009259259259259259],[0.0020833333333333333,-0.007407407407407408],[0.00625,-0.007407407407407408],[0.010416666666666666,-0.003703703703703704],[0.015625,-0.001851851851851852],[0.01875,-0.001851851851851852],[0.021875,-0.001851851851851852],[0.025,-0.001851851851851852],[0.028125,-0.001851851851851852],[0.028125,-0.001851851851851852],[0.030208333333333334,-0.001851851851851852],[0.030208333333333334,-0.001851851851851852],[0.030208333333333334,-0.001851851851851852],[0.030208333333333334,-0.001851851851851852],[0.030208333333333334,-0.001851851851851852],[0.030208333333333334,-0.001851851851851852],[0.030208333333333334,-0.001851851851851852],[0.030208333333333334,-0.001851851851851852],[0.030208333333333334,-0.001851851851851852],[0.030208333333333334,-0.001851851851851852],[0.030208333333333334,-0.001851851851851852],[0.029166666666666667,-0.001851851851851852],[0.028125,-0.001851851851851852],[0.026041666666666668,-0.001851851851851852],[0.025,0],[0.025,0],[0.025,0],[0.025,0],[0.025,0],[0.025,0],[0.025,0],[0.025,0],[0.025,0],[0.025,0],[0.025,0],[0.025,0],[0.025,0],[0.025,0],[0.025,0],[0.025,0],[0.025,0],[0.025,0],[0.021875,0],[0.019791666666666666,0],[0.016666666666666666,0.001851851851851852],[0.014583333333333334,0.003703703703703704],[0.0125,0.003703703703703704],[0.010416666666666666,0.003703703703703704],[0.009375,0.005555555555555556],[0.007291666666666667,0.005555555555555556],[0.005208333333333333,0.007407407407407408],[0.005208333333333333,0.007407407407407408],[0.005208333333333333,0.007407407407407408],[0.005208333333333333,0.007407407407407408],[0.003125,0.009259259259259259],[0.003125,0.009259259259259259],[0.003125,0.009259259259259259],[0.003125,0.009259259259259259],[0.003125,0.009259259259259259],[0.003125,0.009259259259259259],[0.003125,0.009259259259259259],[0.003125,0.009259259259259259],[0.003125,0.009259259259259259],[0.003125,0.009259259259259259],[0.003125,0.009259259259259259],[0.003125,0.009259259259259259],[0.003125,0.009259259259259259],[0.003125,0.009259259259259259],[0.003125,0.009259259259259259],[0.003125,0.009259259259259259],[0.003125,0.009259259259259259],[0.003125,0.009259259259259259],[0.003125,0.009259259259259259],[0.003125,0.009259259259259259],[0.003125,0.009259259259259259],[0.003125,0.009259259259259259],[0.005208333333333333,0.009259259259259259],[0.007291666666666667,0.009259259259259259],[0.008333333333333333,0.007407407407407408],[0.010416666666666666,0.007407407407407408],[0.011458333333333333,0.007407407407407408],[0.011458333333333333,0.007407407407407408],[0.0125,0.007407407407407408],[0.013541666666666667,0.003703703703703704],[0.013541666666666667,0.003703703703703704],[0.014583333333333334,0.003703703703703704],[0.014583333333333334,0.003703703703703704],[0.015625,0.003703703703703704],[0.016666666666666666,0.003703703703703704],[0.020833333333333332,0.001851851851851852],[0.026041666666666668,0],[0.03854166666666667,-0.005555555555555556],[0.04895833333333333,-0.007407407407407408],[0.057291666666666664,-0.011111111111111112],[0.071875,-0.014814814814814815],[0.0875,-0.020370370370370372],[0.10208333333333333,-0.022222222222222223],[0.11875,-0.024074074074074074],[0.13541666666666666,-0.024074074074074074],[0.15208333333333332,-0.024074074074074074],[0.16666666666666666,-0.024074074074074074],[0.17916666666666667,-0.024074074074074074],[0.18854166666666666,-0.024074074074074074],[0.19270833333333334,-0.024074074074074074],[0.19583333333333333,-0.024074074074074074],[0.19895833333333332,-0.024074074074074074],[0.2,-0.024074074074074074],[0.20104166666666667,-0.024074074074074074],[0.20208333333333334,-0.022222222222222223],[0.20208333333333334,-0.022222222222222223],[0.20208333333333334,-0.022222222222222223],[0.20208333333333334,-0.022222222222222223],[0.20208333333333334,-0.022222222222222223],[0.20208333333333334,-0.022222222222222223],[0.20208333333333334,-0.022222222222222223],[0.20208333333333334,-0.022222222222222223],[0.20208333333333334,-0.022222222222222223],[0.20208333333333334,-0.022222222222222223],[0.19583333333333333,-0.022222222222222223],[0.18854166666666666,-0.018518518518518517],[0.18125,-0.012962962962962963],[0.17395833333333333,-0.011111111111111112],[0.16979166666666667,-0.007407407407407408],[0.165625,-0.003703703703703704],[0.16354166666666667,0],[0.16041666666666668,0],[0.159375,0],[0.15833333333333333,0.001851851851851852],[0.15625,0.003703703703703704],[0.15520833333333334,0.005555555555555556],[0.15520833333333334,0.005555555555555556],[0.15520833333333334,0.005555555555555556],[0.15520833333333334,0.005555555555555556],[0.15520833333333334,0.005555555555555556],[0.15416666666666667,0.005555555555555556],[0.15416666666666667,0.005555555555555556],[0.15416666666666667,0.005555555555555556],[0.15416666666666667,0.005555555555555556],[0.15416666666666667,0.005555555555555556],[0.15416666666666667,0.005555555555555556],[0.153125,0.005555555555555556],[0.15208333333333332,0.005555555555555556],[0.15,0.005555555555555556],[0.146875,0.007407407407407408],[0.14270833333333333,0.007407407407407408],[0.1375,0.007407407407407408],[0.13020833333333334,0.007407407407407408],[0.121875,0.007407407407407408],[0.1125,0.007407407407407408],[0.09895833333333333,0.007407407407407408],[0.084375,0.001851851851851852],[0.059375,-0.005555555555555556],[0.041666666666666664,-0.009259259259259259],[0.025,-0.014814814814814815],[0.00625,-0.018518518518518517],[-0.011458333333333333,-0.025925925925925925],[-0.029166666666666667,-0.02962962962962963],[-0.040625,-0.03148148148148148],[-0.052083333333333336,-0.03518518518518519],[-0.057291666666666664,-0.037037037037037035],[-0.06041666666666667,-0.03888888888888889],[-0.06041666666666667,-0.03888888888888889],[-0.0625,-0.03888888888888889],[-0.0625,-0.03888888888888889],[-0.0625,-0.03888888888888889],[-0.0625,-0.03888888888888889],[-0.0625,-0.03888888888888889],[-0.0625,-0.03888888888888889],[-0.058333333333333334,-0.040740740740740744],[-0.04583333333333333,-0.040740740740740744],[-0.023958333333333335,-0.040740740740740744],[0.0010416666666666667,-0.040740740740740744],[0.027083333333333334,-0.040740740740740744],[0.05416666666666667,-0.040740740740740744],[0.09270833333333334,-0.040740740740740744],[0.11666666666666667,-0.040740740740740744],[0.134375,-0.040740740740740744],[0.14791666666666667,-0.040740740740740744],[0.15625,-0.037037037037037035],[0.16145833333333334,-0.03333333333333333],[0.16458333333333333,-0.03333333333333333],[0.16458333333333333,-0.03148148148148148],[0.16458333333333333,-0.03148148148148148],[0.16458333333333333,-0.03148148148148148],[0.165625,-0.03148148148148148],[0.165625,-0.03148148148148148],[0.165625,-0.03148148148148148],[0.165625,-0.03148148148148148],[0.165625,-0.03148148148148148],[0.165625,-0.03148148148148148],[0.165625,-0.03148148148148148],[0.165625,-0.03148148148148148],[0.165625,-0.03148148148148148],[0.165625,-0.027777777777777776],[0.16041666666666668,-0.025925925925925925],[0.15208333333333332,-0.020370370370370372],[0.146875,-0.018518518518518517],[0.140625,-0.012962962962962963],[0.1375,-0.011111111111111112],[0.1375,-0.007407407407407408],[0.1375,-0.001851851851851852],[0.13854166666666667,0.007407407407407408],[0.14479166666666668,0.014814814814814815],[0.14895833333333333,0.022222222222222223],[0.15625,0.02962962962962963],[0.16354166666666667,0.03888888888888889],[0.171875,0.053703703703703705],[0.17604166666666668,0.06666666666666667],[0.18125,0.07777777777777778],[0.18229166666666666,0.08703703703703704],[0.18229166666666666,0.09074074074074075],[0.18229166666666666,0.09444444444444444],[0.18229166666666666,0.0962962962962963],[0.18229166666666666,0.09814814814814815],[0.18229166666666666,0.1],[0.18229166666666666,0.10185185185185185],[0.18229166666666666,0.10555555555555556],[0.18229166666666666,0.10555555555555556],[0.18125,0.10555555555555556],[0.18125,0.10555555555555556],[0.18020833333333333,0.10740740740740741],[0.17916666666666667,0.10925925925925926],[0.17708333333333334,0.1111111111111111],[0.17708333333333334,0.11296296296296296],[0.17708333333333334,0.11666666666666667],[0.17604166666666668,0.11851851851851852],[0.175,0.12222222222222222],[0.175,0.12222222222222222],[0.175,0.12407407407407407],[0.175,0.1259259259259259],[0.175,0.12777777777777777],[0.175,0.12777777777777777],[0.175,0.12962962962962962],[0.175,0.12962962962962962],[0.175,0.12962962962962962],[0.175,0.12962962962962962],[0.175,0.12962962962962962],[0.175,0.12962962962962962],[0.175,0.12962962962962962],[0.175,0.12962962962962962],[0.175,0.12962962962962962],[0.175,0.12962962962962962],[0.175,0.12962962962962962],[0.175,0.12962962962962962],[0.175,0.12962962962962962],[0.175,0.12962962962962962],[0.175,0.12962962962962962],[0.175,0.12962962962962962],[0.175,0.12962962962962962],[0.175,0.12962962962962962],[0.175,0.12962962962962962],[0.175,0.12962962962962962],[0.175,0.12962962962962962],[0.175,0.12962962962962962],[0.175,0.12962962962962962],[0.175,0.12962962962962962],[0.175,0.12962962962962962],[0.175,0.12962962962962962],[0.175,0.12962962962962962],[0.175,0.12962962962962962],[0.175,0.12962962962962962],[0.175,0.12962962962962962],[0.175,0.12962962962962962],[0.175,0.12962962962962962],[0.175,0.12962962962962962],[0.175,0.12962962962962962],[0.175,0.12962962962962962],[0.175,0.12962962962962962],[0.175,0.12962962962962962],[0.175,0.12962962962962962],[0.175,0.12962962962962962],[0.175,0.12962962962962962],[0.175,0.12962962962962962],[0.175,0.12962962962962962],[0.175,0.12962962962962962],[0.175,0.12962962962962962],[0.175,0.12962962962962962],[0.175,0.12962962962962962],[0.175,0.12962962962962962],[0.175,0.12962962962962962],[0.175,0.12962962962962962],[0.175,0.12962962962962962],[0.175,0.12962962962962962],[0.175,0.12777777777777777],[0.175,0.1259259259259259],[0.175,0.12222222222222222],[0.175,0.11666666666666667],[0.175,0.1111111111111111],[0.175,0.10740740740740741],[0.175,0.09814814814814815],[0.175,0.09074074074074075],[0.175,0.08703703703703704],[0.175,0.07407407407407407],[0.175,0.06666666666666667],[0.175,0.053703703703703705],[0.175,0.03333333333333333],[0.175,0.022222222222222223]]","[[0.0234375,0.3461111111111111],[0.0234375,0.3461111111111111],[0.01854166666666662,0.35462962962962963],[0.09854166666666657,0.38370370370370377],[0.10656249999999995,0.3472222222222222],[0.12156250000000005,0.35351851851851845],[0.12156250000000005,0.35351851851851845],[0.16770833333333332,0.3368518518518518],[0.15916666666666662,0.290925925925926],[0.1506249999999999,0.2449999999999999],[0.1462500000000001,0.24777777777777768],[0.18708333333333324,0.24240740740740738],[0.20822916666666677,0.23592592592592587],[0.21593749999999995,0.24740740740740744],[0.15854166666666672,0.2222222222222222],[0.1352083333333333,0.17629629629629637],[0.13354166666666673,0.14870370370370362],[0.1640625,0.16444444444444437],[0.1640625,0.16444444444444437],[0.24927083333333327,0.2094444444444445],[0.26197916666666665,0.2411111111111112],[0.2638541666666666,0.24759259259259267],[0.24291666666666673,0.25092592592592594],[0.2513541666666666,0.25851851851851854],[0.2493750000000001,0.2977777777777777],[0.2384375000000001,0.3253703703703705],[0.22864583333333333,0.3538888888888889],[0.21885416666666657,0.3824074074074074],[0.14208333333333342,0.37481481481481477],[0.08135416666666657,0.32111111111111107],[0.06604166666666664,0.2705555555555556],[0.0625,0.20333333333333325],[0.06302083333333333,0.2183333333333333],[0.049479166666666664,0.2270370370370371],[0.052291666666666715,0.1992592592592593],[0.08458333333333339,0.19314814814814807],[0.11593749999999996,0.2064814814814815],[0.1140625,0.21055555555555563],[0.10583333333333324,0.18333333333333332],[0.11447916666666676,0.22629629629629638],[0.1502083333333334,0.2794444444444444],[0.1492708333333333,0.3494444444444445],[0.1482291666666666,0.3307407407407408],[0.17927083333333324,0.3677777777777778],[0.1896874999999999,0.3961111111111111],[0.15166666666666656,0.36277777777777775],[0.09281249999999991,0.32444444444444454],[0.1131249999999999,0.3448148148148149],[0.078125,0.3177777777777778],[0.06604166666666664,0.2668518518518519],[0.03229166666666667,0.22092592592592583],[0.06156250000000003,0.19425925925925921],[0.051874999999999956,0.2064814814814815],[0.024166666666666715,0.16925925925925922],[0.003125,0.14074074074074075],[0.021979166666666692,0.15203703703703708],[0.021979166666666692,0.15203703703703708],[0.028645833333333332,0.16370370370370366],[0.03979166666666671,0.15314814814814823],[0.10135416666666662,0.1801851851851851],[0.10708333333333328,0.20703703703703696],[0.0834374999999999,0.1948148148148149],[0.02166666666666662,0.16314814814814818],[0.04364583333333331,0.1824074074074074],[0.065625,0.20166666666666663],[0.05270833333333336,0.18185185185185193],[0.03979166666666671,0.16203703703703703],[0.052187500000000026,0.12759259259259256],[0.04031250000000005,0.10629629629629625],[0.03697916666666667,0.08888888888888889],[0.03895833333333331,0.055000000000000084],[0.08156249999999995,0.04203703703703712],[0.09833333333333343,0.06611111111111119],[0.05260416666666667,0.02240740740740745],[0.041979166666666616,0.02370370370370362],[0.041875000000000044,0.015000000000000043],[0.014583333333333334,0.000925925925925926],[-0.002499999999999976,0.028888888888888933],[-0.036666666666666715,0.02092592592592584],[-0.051145833333333356,0.01314814814814819],[-0.11281249999999995,0.11833333333333329],[-0.15572916666666667,0.2418518518518519],[-0.10885416666666667,0.2588888888888888],[-0.0625,0.34685185185185174],[-0.051250000000000046,0.38981481481481484],[-0.013020833333333334,0.48481481481481475],[0.05239583333333329,0.5851851851851851],[0.050625000000000024,0.6092592592592593],[0.06114583333333338,0.6187037037037038],[0.04750000000000002,0.6331481481481481],[0.07572916666666671,0.5511111111111111],[0.13989583333333327,0.4131481481481482],[0.12625000000000006,0.369074074074074],[0.10958333333333338,0.29000000000000004],[0.059062500000000046,0.14425925925925923],[0.0234375,0.0485185185185186],[-0.03697916666666667,0.01055555555555564],[-0.030208333333333334,0.04888888888888885],[-0.05614583333333331,0.07462962962962955],[-0.10249999999999998,0.08000000000000008],[-0.16572916666666668,0.028703703703703703],[-0.27322916666666663,0.02814814814814823],[-0.2954166666666667,0.038703703703703664],[-0.34802083333333333,0.01518518518518527],[-0.33229166666666665,0.08518518518518518],[-0.3407291666666667,0.09351851851851851],[-0.32458333333333333,0.07222222222222222],[-0.32458333333333333,0.07222222222222222],[-0.29489583333333336,0.03981481481481482],[-0.29489583333333336,0.03981481481481482],[-0.25281250000000005,0.037037037037037035],[-0.18947916666666664,0.01722222222222214],[-0.1092708333333333,0.054074074074074156],[-0.016875000000000046,0.1081481481481481],[0.004062499999999977,0.12666666666666662],[0.004062499999999977,0.12666666666666662],[0.025520833333333333,0.13277777777777786],[0.025520833333333333,0.13277777777777786],[0.0125,0.11203703703703703],[0.0125,0.11203703703703703],[0.003958333333333286,0.11296296296296296],[0.003958333333333286,0.11296296296296296],[0.02322916666666662,0.1398148148148148],[0.02322916666666662,0.1398148148148148],[0.006562499999999953,0.11018518518518519],[0.006562499999999953,0.11018518518518519],[-0.013750000000000047,0.08055555555555556],[-0.013750000000000047,0.08055555555555556],[-0.002291666666666714,0.09703703703703699],[-0.002291666666666714,0.09703703703703699],[0.033749999999999974,0.12888888888888894],[0.057604166666666616,0.14351851851851852],[0.07104166666666671,0.1427777777777778],[0.12239583333333333,0.18592592592592588],[0.17374999999999996,0.22907407407407415],[0.2181250000000001,0.24351851851851852],[0.23489583333333333,0.20388888888888893],[0.25447916666666665,0.23870370370370367],[0.27666666666666656,0.26666666666666666],[0.2570833333333333,0.21796296296296305],[0.21604166666666677,0.18259259259259264],[0.175,0.14722222222222223],[0.13791666666666677,0.1368518518518518],[0.12781250000000005,0.1198148148148149],[0.1118750000000001,0.08629629629629634],[0.10166666666666657,0.07703703703703708],[0.10854166666666672,0.05222222222222231],[0.12833333333333338,0.024074074074074074],[0.1493750000000001,0.0016666666666666245],[0.18479166666666677,0.02111111111111107],[0.1953125,0.018518518518518517],[0.20583333333333323,0.01592592592592597],[0.21875,-0.007592592592592635],[0.18270833333333342,-0.013888888888888888],[0.1525000000000001,-0.003703703703703704],[0.11843750000000004,-0.011666666666666582],[0.0821875000000001,-0.006481481481481481],[0.06520833333333335,0.001851851851851852],[0.04593750000000003,0.007037037037036953],[0.019166666666666644,0.024629629629629547],[-0.00916666666666662,0.04388888888888897],[-0.03427083333333331,0.11148148148148157],[-0.03427083333333331,0.11148148148148157],[-0.05531250000000002,0.19037037037037027],[-0.05343749999999995,0.23407407407407405],[-0.08500000000000002,0.26888888888888896],[-0.044375000000000026,0.3042592592592592],[-0.01864583333333331,0.34203703703703714],[0.02385416666666664,0.37333333333333335],[0.03718750000000005,0.36999999999999994],[0.01416666666666669,0.38055555555555554],[0.03989583333333328,0.39444444444444443],[0.05249999999999998,0.2640740740740741],[0.10416666666666667,0.1492592592592593],[0.10302083333333342,0.0838888888888888],[0.1658333333333334,0.04388888888888897],[0.16302083333333334,-0.03222222222222218],[0.16020833333333329,-0.10833333333333334],[0.11052083333333323,-0.19166666666666668],[0.0821875000000001,-0.21092592592592588],[0.07333333333333343,-0.23870370370370367],[0.06791666666666671,-0.2940740740740741],[0.07468750000000005,-0.23499999999999996],[0.049374999999999974,-0.18944444444444447],[0.07156250000000004,-0.16592592592592598],[0.05135416666666662,-0.17703703703703708],[0.02520833333333338,-0.15166666666666662],[0.013229166666666714,-0.13222222222222219],[0.01875,-0.10574074074074079],[0.03312499999999995,-0.11129629629629634],[0.04364583333333331,-0.13537037037037042],[0.025312499999999953,-0.14351851851851852],[-0.009583333333333381,-0.12000000000000002],[-0.05145833333333331,-0.09851851851851849],[-0.11927083333333334,-0.11962962962962967],[-0.10260416666666666,-0.06185185185185181],[-0.0828125,-0.03092592592592601],[-0.07718750000000002,0.00592592592592601],[-0.05416666666666667,0.04314814814814806],[-0.03114583333333331,0.08037037037037033],[-0.03333333333333333,0.1175925925925926],[-0.0018749999999999527,0.15388888888888894],[0.06343749999999998,0.15],[0.12958333333333344,0.13185185185185194],[0.22406249999999991,0.13925925925925933],[0.25031249999999994,0.11481481481481481],[0.2734375,0.11722222222222214],[0.26229166666666665,0.12166666666666676],[0.2428124999999999,0.09870370370370361],[0.11500000000000009,0.06074074074074066],[0.03989583333333328,0.044444444444444446],[-0.0014583333333333095,0.06777777777777783],[-0.008229166666666643,0.10981481481481473],[-0.01583333333333338,0.16611111111111118],[-0.033854166666666664,0.16148148148148156],[-0.05625,0.127962962962963],[-0.075,0.11444444444444436],[-0.075,0.11444444444444436],[-0.06656249999999998,0.08722222222222227],[-0.07427083333333329,0.07888888888888893],[0.03312499999999995,0.07537037037037045],[0.115625,0.0764814814814814],[0.09427083333333333,0.1881481481481482],[0.016666666666666666,0.2294444444444444],[-0.028125,0.17925925925925917],[-0.05510416666666664,0.21222222222222226],[-0.07385416666666664,0.26518518518518525],[-0.09624999999999997,0.29814814814814816],[-0.07947916666666661,0.3453703703703704],[-0.07010416666666662,0.3907407407407407],[-0.09031250000000005,0.4264814814814814],[-0.03312499999999995,0.45777777777777784],[0.050833333333333286,0.3427777777777778],[0.12958333333333344,0.21648148148148144],[0.17552083333333332,0.1816666666666667],[0.190625,0.1757407407407407],[0.17520833333333338,0.18203703703703694],[0.15979166666666675,0.1883333333333334],[0.15979166666666675,0.1883333333333334],[0.1599999999999999,0.19203703703703712],[0.1599999999999999,0.19203703703703712],[0.17614583333333325,0.17759259259259255],[0.17614583333333325,0.17759259259259255],[0.22000000000000006,0.16629629629629622],[0.22000000000000006,0.16629629629629622],[0.18854166666666666,0.1388888888888889],[0.18854166666666666,0.1388888888888889],[0.17625000000000005,0.11611111111111119],[0.17625000000000005,0.11611111111111119],[0.15895833333333323,0.16203703703703703],[0.1571875000000001,0.18296296296296288],[0.15833333333333333,0.14870370370370362],[0.20458333333333342,0.08092592592592601],[0.20458333333333342,0.08092592592592601],[0.19979166666666662,0.008703703703703788],[0.1540625000000001,-0.07703703703703708],[0.10104166666666667,-0.13185185185185183],[0.034375,-0.1787037037037037],[0.005833333333333357,-0.1824074074074074],[-0.05385416666666672,-0.1911111111111111],[-0.07552083333333333,-0.22111111111111106],[-0.11270833333333338,-0.22611111111111115],[-0.11135416666666664,-0.19370370370370374],[-0.1328125,-0.15999999999999995],[-0.09812500000000005,-0.14833333333333337],[-0.0702083333333333,-0.12314814814814815],[-0.02677083333333338,-0.09314814814814817],[0.014791666666666713,-0.06259259259259262],[0.051979166666666646,-0.027222222222222307],[0.11083333333333342,0.005555555555555556],[0.12604166666666666,0.028888888888888933],[0.15510416666666677,0.07592592592592592],[0.14958333333333323,0.019259259259259216],[0.1544791666666666,0.003703703703703704],[0.15322916666666658,-0.011111111111111112],[0.15197916666666675,-0.025925925925925925],[0.14270833333333333,-0.020740740740740823],[0.14187500000000006,-0.04203703703703712],[0.13010416666666677,-0.09537037037037037],[0.12604166666666666,-0.12981481481481486],[0.13989583333333327,-0.1492592592592593],[0.13072916666666667,-0.20666666666666672],[0.1296875,-0.1962962962962963],[0.1165625000000001,-0.1925925925925926],[0.1365624999999999,-0.17462962962962966],[0.14208333333333342,-0.15851851851851856],[0.1203125,-0.21351851851851855],[0.10072916666666672,-0.2338888888888889],[0.12270833333333328,-0.205],[0.09197916666666663,-0.21962962962962967],[0.06520833333333335,-0.2190740740740741],[0.04760416666666671,-0.20425925925925928],[0.059791666666666646,-0.17962962962962964],[0.059687499999999956,-0.1868518518518518],[0.05489583333333338,-0.1853703703703704],[0.0546875,-0.18722222222222226],[0.08104166666666662,-0.17037037037037037],[0.10479166666666657,-0.13407407407407404],[0.0756249999999999,-0.1485185185185185],[0.09145833333333328,-0.1383333333333333],[0.1178124999999999,-0.16111111111111112],[0.1446875000000001,-0.15314814814814812],[0.1178124999999999,-0.18074074074074079],[0.17322916666666663,-0.18703703703703703],[0.19854166666666656,-0.1690740740740741],[0.225,-0.14388888888888887],[0.24291666666666673,-0.11444444444444446],[0.2404166666666666,-0.10092592592592593],[0.24927083333333327,-0.08592592592592588],[0.25812499999999994,-0.07092592592592595],[0.27291666666666664,0.01796296296296305],[0.28718750000000004,0.07611111111111116],[0.3146874999999999,0.1933333333333333],[0.3108333333333334,0.3562962962962963],[0.22020833333333342,0.43444444444444447],[0.14635416666666667,0.5255555555555554],[0.11145833333333334,0.6555555555555556],[0.11145833333333334,0.6555555555555556],[0.09468750000000009,0.7712962962962963],[0.09468750000000009,0.7712962962962963],[0.07197916666666657,0.7288888888888889],[0.08208333333333329,0.6988888888888889],[0.09052083333333343,0.6781481481481483],[0.09895833333333333,0.6574074074074074],[0.11281249999999995,0.5935185185185186],[0.0743750000000001,0.4522222222222223],[0.12541666666666676,0.3742592592592593],[0.2025000000000001,0.2522222222222223],[0.22708333333333333,0.1346296296296297],[0.27708333333333335,0.002777777777777778],[0.31270833333333337,0.022777777777777692],[0.2787499999999999,0.010740740740740657],[0.22604166666666667,-0.06666666666666667],[0.171875,-0.14629629629629629],[0.15770833333333342,-0.15499999999999997],[0.19020833333333323,-0.15759259259259265],[0.2029166666666666,-0.18759259259259262],[0.18447916666666658,-0.18648148148148147],[0.17625000000000005,-0.21500000000000005],[0.1474999999999999,-0.21851851851851853],[0.12041666666666657,-0.21740740740740735],[0.13083333333333325,-0.19518518518518516],[0.16531250000000006,-0.1742592592592593],[0.20125000000000004,-0.15111111111111114],[0.20864583333333328,-0.17222222222222222],[0.20791666666666658,-0.19796296296296292],[0.20062499999999991,-0.18740740740740738],[0.19041666666666662,-0.17888888888888893],[0.20572916666666666,-0.14425925925925923],[0.21729166666666658,-0.11314814814814819],[0.24749999999999991,-0.08037037037037033],[0.25281250000000005,-0.04537037037037037],[0.246875,-0.007962962962962878],[0.22614583333333324,0.04018518518518527],[0.20770833333333344,0.07407407407407407],[0.1896874999999999,0.08185185185185194],[0.19802083333333323,0.08074074074074078],[0.19041666666666662,0.07962962962962963],[0.19041666666666662,0.07962962962962963],[0.1618750000000001,0.007962962962962878],[0.1618750000000001,0.007962962962962878],[0.12177083333333343,-0.0014814814814813973],[0.08385416666666666,-0.023333333333333376],[0.09562499999999995,-0.045740740740740825],[0.07062499999999995,-0.075],[0.06041666666666667,-0.11500000000000005],[0.03697916666666667,-0.19759259259259257],[0.027083333333333334,-0.1962962962962963],[0.01593749999999995,-0.20259259259259255],[0.020729166666666642,-0.2088888888888889]]","[[0.0234375,0.3461111111111111,0.0002999999821184929],[0.0234375,0.3461111111111111,0.048199999988078446],[0.01854166666666662,0.35462962962962963,0.059400000005965126],[0.09854166666666657,0.38370370370370377,0.07609999999404238],[0.10656249999999995,0.3472222222222222,0.09269999998807776],[0.12156250000000005,0.35351851851851845,0.11319999998808328],[0.12156250000000005,0.35351851851851845,0.12599999999999767],[0.16770833333333332,0.3368518518518518,0.14300000000000068],[0.15916666666666662,0.290925925925926,0.15940000000595944],[0.1506249999999999,0.2449999999999999,0.17900000000000205],[0.1462500000000001,0.24777777777777768,0.19269999998807918],[0.18708333333333324,0.24240740740740738,0.20949999999999847],[0.20822916666666677,0.23592592592592587,0.22919999998808294],[0.21593749999999995,0.24740740740740744,0.24479999998212065],[0.15854166666666672,0.2222222222222222,0.2597999999821212],[0.1352083333333333,0.17629629629629637,0.2760999999940381],[0.13354166666666673,0.14870370370370362,0.29509999999404357],[0.1640625,0.16444444444444437,0.31129999998211844],[0.1640625,0.16444444444444437,0.32619999998807714],[0.24927083333333327,0.2094444444444445,0.34550000000000125],[0.26197916666666665,0.2411111111111112,0.3594000000059623],[0.2638541666666666,0.24759259259259267,0.37609999999403954],[0.24291666666666673,0.25092592592592594,0.3924999999999983],[0.2513541666666666,0.25851851851851854,0.40919999998808265],[0.2493750000000001,0.2977777777777777,0.42590000000596007],[0.2384375000000001,0.3253703703703705,0.4426999999880792],[0.22864583333333333,0.3538888888888889,0.4591999999880798],[0.21885416666666657,0.3824074074074074,0.4759999999999991],[0.14208333333333342,0.37481481481481477,0.4946999999880788],[0.08135416666666657,0.32111111111111107,0.5092999999821188],[0.06604166666666664,0.2705555555555556,0.5260999999940381],[0.0625,0.20333333333333325,0.5455999999940389],[0.06302083333333333,0.2183333333333333,0.5592999999821231],[0.049479166666666664,0.2270370370370371,0.5760000000000005],[0.052291666666666715,0.1992592592592593,0.5926999999880778],[0.08458333333333339,0.19314814814814807,0.612599999994039],[0.11593749999999996,0.2064814814814815,0.6264000000059582],[0.1140625,0.21055555555555563,0.6429000000059588],[0.10583333333333324,0.18333333333333332,0.6614000000059619],[0.11447916666666676,0.22629629629629638,0.6760999999940438],[0.1502083333333334,0.2794444444444444,0.6925999999940373],[0.1492708333333333,0.3494444444444445,0.7125999999940404],[0.1482291666666666,0.3307407407407408,0.72679999998212],[0.17927083333333324,0.3677777777777778,0.7430000000000021],[0.1896874999999999,0.3961111111111111,0.7615999999940399],[0.15166666666666656,0.36277777777777775,0.7760000000000034],[0.09281249999999991,0.32444444444444454,0.7926999999880806],[0.1131249999999999,0.3448148148148149,0.8124000000059581],[0.078125,0.3177777777777778,0.8284000000059635],[0.06604166666666664,0.2668518518518519,0.8434999999999988],[0.03229166666666667,0.22092592592592583,0.8615999999940414],[0.06156250000000003,0.19425925925925921,0.8760999999940395],[0.051874999999999956,0.2064814814814815,0.8927999999821168],[0.024166666666666715,0.16925925925925922,0.9125999999940433],[0.003125,0.14074074074074075,0.9267999999821228],[0.021979166666666692,0.15203703703703708,0.9429000000059631],[0.021979166666666692,0.15203703703703708,0.9592999999821217],[0.028645833333333332,0.16370370370370366,0.9792999999821177],[0.03979166666666671,0.15314814814814823,0.9955999999940417],[0.10135416666666662,0.1801851851851851,1.012400000005961],[0.10708333333333328,0.20703703703703696,1.031599999994043],[0.0834374999999999,0.1948148148148149,1.047099999994039],[0.02166666666666662,0.16314814814814818,1.0625],[0.04364583333333331,0.1824074074074074,1.076299999982119],[0.065625,0.20166666666666663,1.0950999999940407],[0.05270833333333336,0.18185185185185193,1.1096999999880808],[0.03979166666666671,0.16203703703703703,1.1261999999880814],[0.052187500000000026,0.12759259259259256,1.1464000000059613],[0.04031250000000005,0.10629629629629625,1.1615999999940385],[0.03697916666666667,0.08888888888888889,1.1775999999940439],[0.03895833333333331,0.055000000000000084,1.1926999999880792],[0.08156249999999995,0.04203703703703712,1.212900000005959],[0.09833333333333343,0.06611111111111119,1.2279000000059597],[0.05260416666666667,0.02240740740740745,1.243099999994044],[0.041979166666666616,0.02370370370370362,1.2616999999880818],[0.041875000000000044,0.015000000000000043,1.2760000000000034],[0.014583333333333334,0.000925925925925926,1.2926999999880806],[-0.002499999999999976,0.028888888888888933,1.3094000000059651],[-0.036666666666666715,0.02092592592592584,1.3284999999999982],[-0.051145833333333356,0.01314814814814819,1.3455000000000013],[-0.11281249999999995,0.11833333333333329,1.3596999999880808],[-0.15572916666666667,0.2418518518518519,1.3791999999880815],[-0.10885416666666667,0.2588888888888888,1.3952999999821216],[-0.0625,0.34685185185185174,1.4094000000059594],[-0.051250000000000046,0.38981481481481484,1.426000000000002],[-0.013020833333333334,0.48481481481481475,1.4430999999940397],[0.05239583333333329,0.5851851851851851,1.4592999999821217],[0.050625000000000024,0.6092592592592593,1.4757999999821223],[0.06114583333333338,0.6187037037037038,1.4926999999880834],[0.04750000000000002,0.6331481481481481,1.509199999988077],[0.07572916666666671,0.5511111111111111,1.5257999999821195],[0.13989583333333327,0.4131481481481482,1.5425999999940387],[0.12625000000000006,0.369074074074074,1.5591999999880812],[0.10958333333333338,0.29000000000000004,1.5760000000000005],[0.059062500000000046,0.14425925925925923,1.5950999999940407],[0.0234375,0.0485185185185186,1.6094000000059623],[-0.03697916666666667,0.01055555555555564,1.6259999999999977],[-0.030208333333333334,0.04888888888888885,1.6460999999940427],[-0.05614583333333331,0.07462962962962955,1.661199999988078],[-0.10249999999999998,0.08000000000000008,1.6762999999821204],[-0.16572916666666668,0.028703703703703703,1.6925999999940373],[-0.27322916666666663,0.02814814814814823,1.7091999999880798],[-0.2954166666666667,0.038703703703703664,1.7259000000059643],[-0.34802083333333333,0.01518518518518527,1.7426999999880834],[-0.33229166666666665,0.08518518518518518,1.7594000000059609],[-0.3407291666666667,0.09351851851851851,1.7764000000059639],[-0.32458333333333333,0.07222222222222222,1.7966999999880784],[-0.32458333333333333,0.07222222222222222,1.8129000000059605],[-0.29489583333333336,0.03981481481481482,1.8266999999880795],[-0.29489583333333336,0.03981481481481482,1.842599999994043],[-0.25281250000000005,0.037037037037037035,1.8592999999821203],[-0.18947916666666664,0.01722222222222214,1.8757999999821209],[-0.1092708333333333,0.054074074074074156,1.8925999999940402],[-0.016875000000000046,0.1081481481481481,1.9091999999880827],[0.004062499999999977,0.12666666666666662,1.926000000000002],[0.004062499999999977,0.12666666666666662,1.9450999999940422],[0.025520833333333333,0.13277777777777786,1.9592999999821217],[0.025520833333333333,0.13277777777777786,1.975999999999999],[0.0125,0.11203703703703703,1.9982999999821232],[0.0125,0.11203703703703703,2.0095999999940375],[0.003958333333333286,0.11296296296296296,2.02619999998808],[0.003958333333333286,0.11296296296296296,2.0520999999940415],[0.02322916666666662,0.1398148148148148,2.0595],[0.02322916666666662,0.1398148148148148,2.0760000000000005],[0.006562499999999953,0.11018518518518519,2.092599999994043],[0.006562499999999953,0.11018518518518519,2.1092999999821203],[-0.013750000000000047,0.08055555555555556,2.125900000005963],[-0.013750000000000047,0.08055555555555556,2.1524000000059615],[-0.002291666666666714,0.09703703703703699,2.1591999999880827],[-0.002291666666666714,0.09703703703703699,2.176099999994044],[0.033749999999999974,0.12888888888888894,2.1925000000000026],[0.057604166666666616,0.14351851851851852,2.20919999998808],[0.07104166666666671,0.1427777777777778,2.2259000000059643],[0.12239583333333333,0.18592592592592588,2.2429000000059602],[0.17374999999999996,0.22907407407407415,2.259199999988077],[0.2181250000000001,0.24351851851851852,2.2757999999821195],[0.23489583333333333,0.20388888888888893,2.292500000000004],[0.25447916666666665,0.23870370370370367,2.309299999982123],[0.27666666666666656,0.26666666666666666,2.3259000000059586],[0.2570833333333333,0.21796296296296305,2.3426999999880778],[0.21604166666666677,0.18259259259259264,2.3591999999880784],[0.175,0.14722222222222223,2.375900000005963],[0.13791666666666677,0.1368518518518518,2.3924999999999983],[0.12781250000000005,0.1198148148148149,2.4091999999880827],[0.1118750000000001,0.08629629629629634,2.42590000000596],[0.10166666666666657,0.07703703703703708,2.4425999999940373],[0.10854166666666672,0.05222222222222231,2.45919999998808],[0.12833333333333338,0.024074074074074074,2.4757999999821223],[0.1493750000000001,0.0016666666666666245,2.4925999999940416],[0.18479166666666677,0.02111111111111107,2.51159999999404],[0.1953125,0.018518518518518517,2.5260000000000034],[0.20583333333333323,0.01592592592592597,2.5429000000059645],[0.21875,-0.007592592592592635,2.563900000005958],[0.18270833333333342,-0.013888888888888888,2.5784000000059635],[0.1525000000000001,-0.003703703703703704,2.592500000000001],[0.11843750000000004,-0.011666666666666582,2.6092999999821203],[0.0821875000000001,-0.006481481481481481,2.6290999999940396],[0.06520833333333335,0.001851851851851852,2.644199999988082],[0.04593750000000003,0.007037037037036953,2.6592999999821174],[0.019166666666666644,0.024629629629629547,2.67590000000596],[-0.00916666666666662,0.04388888888888897,2.695099999994042],[-0.03427083333333331,0.11148148148148157,2.7094000000059637],[-0.03427083333333331,0.11148148148148157,2.725999999999999],[-0.05531250000000002,0.19037037037037027,2.746199999988079],[-0.05343749999999995,0.23407407407407405,2.7595999999940375],[-0.08500000000000002,0.26888888888888896,2.7760000000000034],[-0.044375000000000026,0.3042592592592592,2.7926999999880806],[-0.01864583333333331,0.34203703703703714,2.812400000005958],[0.02385416666666664,0.37333333333333335,2.8275999999940424],[0.03718750000000005,0.36999999999999994,2.8430999999940383],[0.01416666666666669,0.38055555555555554,2.8592999999821203],[0.03989583333333328,0.39444444444444443,2.8785000000000025],[0.05249999999999998,0.2640740740740741,2.892699999988082],[0.10416666666666667,0.1492592592592593,2.9092999999821174],[0.10302083333333342,0.0838888888888888,2.9286999999880834],[0.1658333333333334,0.04388888888888897,2.9432999999821163],[0.16302083333333334,-0.03222222222222218,2.9592999999821217],[0.16020833333333329,-0.10833333333333334,2.975999999999999],[0.11052083333333323,-0.19166666666666668,2.995299999982123],[0.0821875000000001,-0.21092592592592588,3.009799999982121],[0.07333333333333343,-0.23870370370370367,3.027900000005964],[0.06791666666666671,-0.2940740740740741,3.047099999994039],[0.07468750000000005,-0.23499999999999996,3.0627999999821185],[0.049374999999999974,-0.18944444444444447,3.0760000000000005],[0.07156250000000004,-0.16592592592592598,3.092599999994043],[0.05135416666666662,-0.17703703703703708,3.1091999999880784],[0.02520833333333338,-0.15166666666666662,3.125900000005963],[0.013229166666666714,-0.13222222222222219,3.14259999999404],[0.01875,-0.10574074074074079,3.1591999999880827],[0.03312499999999995,-0.11129629629629634,3.17590000000596],[0.04364583333333331,-0.13537037037037042,3.1925000000000026],[0.025312499999999953,-0.14351851851851852,3.2116999999880775],[-0.009583333333333381,-0.12000000000000002,3.226099999994041],[-0.05145833333333331,-0.09851851851851849,3.243000000000002],[-0.11927083333333334,-0.11962962962962967,3.262500000000003],[-0.10260416666666666,-0.06185185185185181,3.2760000000000034],[-0.0828125,-0.03092592592592601,3.2926999999880806],[-0.07718750000000002,0.00592592592592601,3.311799999982121],[-0.05416666666666667,0.04314814814814806,3.327699999988077],[-0.03114583333333331,0.08037037037037033,3.3429000000059617],[-0.03333333333333333,0.1175925925925926,3.36190000000596],[-0.0018749999999999527,0.15388888888888894,3.375900000005963],[0.06343749999999998,0.15,3.392699999988082],[0.12958333333333344,0.13185185185185194,3.4091999999880827],[0.22406249999999991,0.13925925925925933,3.42590000000596],[0.25031249999999994,0.11481481481481481,3.4431999999880816],[0.2734375,0.11722222222222214,3.45919999998808],[0.26229166666666665,0.12166666666666676,3.47829999998212],[0.2428124999999999,0.09870370370370361,3.493799999982123],[0.11500000000000009,0.06074074074074066,3.509199999988077],[0.03989583333333328,0.044444444444444446,3.526099999994038],[-0.0014583333333333095,0.06777777777777783,3.5425999999940387],[-0.008229166666666643,0.10981481481481473,3.5591999999880812],[-0.01583333333333338,0.16611111111111118,3.5790999999940425],[-0.033854166666666664,0.16148148148148156,3.5970000000000013],[-0.05625,0.127962962962963,3.612599999994039],[-0.075,0.11444444444444436,3.6314000000059607],[-0.075,0.11444444444444436,3.642799999982117],[-0.06656249999999998,0.08722222222222227,3.6592999999821174],[-0.07427083333333329,0.07888888888888893,3.676000000000002],[0.03312499999999995,0.07537037037037045,3.695900000005963],[0.115625,0.0764814814814814,3.7094000000059637],[0.09427083333333333,0.1881481481481482,3.725999999999999],[0.016666666666666666,0.2294444444444444,3.7455],[-0.028125,0.17925925925925917,3.7595000000000027],[-0.05510416666666664,0.21222222222222226,3.7760000000000034],[-0.07385416666666664,0.26518518518518525,3.7927999999821225],[-0.09624999999999997,0.29814814814814816,3.811799999982121],[-0.07947916666666661,0.3453703703703704,3.8282999999821214],[-0.07010416666666662,0.3907407407407407,3.845599999994043],[-0.09031250000000005,0.4264814814814814,3.8629999999999995],[-0.03312499999999995,0.45777777777777784,3.8760999999940395],[0.050833333333333286,0.3427777777777778,3.89259999999404],[0.12958333333333344,0.21648148148148144,3.9095000000000013],[0.17552083333333332,0.1816666666666667,3.92590000000596],[0.190625,0.1757407407407407,3.9461999999880817],[0.17520833333333338,0.18203703703703694,3.960599999994038],[0.15979166666666675,0.1883333333333334,3.976199999988083],[0.15979166666666675,0.1883333333333334,3.9924999999999997],[0.1599999999999999,0.19203703703703712,4.009199999988077],[0.1599999999999999,0.19203703703703712,4.0259000000059615],[0.17614583333333325,0.17759259259259255,4.047199999988081],[0.17614583333333325,0.17759259259259255,4.059400000005965],[0.22000000000000006,0.16629629629629622,4.0760000000000005],[0.22000000000000006,0.16629629629629622,4.092699999988078],[0.18854166666666666,0.1388888888888889,4.1139000000059625],[0.18854166666666666,0.1388888888888889,4.125900000005963],[0.17625000000000005,0.11611111111111119,4.142900000005959],[0.17625000000000005,0.11611111111111119,4.159299999982117],[0.15895833333333323,0.16203703703703703,4.17890000000596],[0.1571875000000001,0.18296296296296288,4.195199999988077],[0.15833333333333333,0.14870370370370362,4.210000000000001],[0.20458333333333342,0.08092592592592601,4.231000000000002],[0.20458333333333342,0.08092592592592601,4.2426999999880834],[0.19979166666666662,0.008703703703703788,4.259400000005961],[0.1540625000000001,-0.07703703703703708,4.2757999999821195],[0.10104166666666667,-0.13185185185185183,4.2942999999821225],[0.034375,-0.1787037037037037,4.311699999988079],[0.005833333333333357,-0.1824074074074074,4.325799999982117],[-0.05385416666666672,-0.1911111111111111,4.34279999998212],[-0.07552083333333333,-0.22111111111111106,4.359199999988078],[-0.11270833333333338,-0.22611111111111115,4.375799999982121],[-0.11135416666666664,-0.19370370370370374,4.392499999999998],[-0.1328125,-0.15999999999999995,4.409199999988083],[-0.09812500000000005,-0.14833333333333337,4.425799999982118],[-0.0702083333333333,-0.12314814814814815,4.442500000000003],[-0.02677083333333338,-0.09314814814814817,4.461599999994043],[0.014791666666666713,-0.06259259259259262,4.476199999988083],[0.051979166666666646,-0.027222222222222307,4.4926999999880834],[0.11083333333333342,0.005555555555555556,4.512400000005961],[0.12604166666666666,0.028888888888888933,4.5274000000059615],[0.15510416666666677,0.07592592592592592,4.5427999999821225],[0.14958333333333323,0.019259259259259216,4.561699999988079],[0.1544791666666666,0.003703703703703704,4.5760000000000005],[0.15322916666666658,-0.011111111111111112,4.592900000005962],[0.15197916666666675,-0.025925925925925925,4.609400000005962],[0.14270833333333333,-0.020740740740740823,4.628999999999998],[0.14187500000000006,-0.04203703703703712,4.645299999982122],[0.13010416666666677,-0.09537037037037037,4.6607999999821175],[0.12604166666666666,-0.12981481481481486,4.676000000000002],[0.13989583333333327,-0.1492592592592593,4.695799999982121],[0.13072916666666667,-0.20666666666666672,4.709699999988082],[0.1296875,-0.1962962962962963,4.725999999999999],[0.1165625000000001,-0.1925925925925926,4.747299999982118],[0.1365624999999999,-0.17462962962962966,4.762099999994042],[0.14208333333333342,-0.15851851851851856,4.776299999982122],[0.1203125,-0.21351851851851855,4.792699999988081],[0.10072916666666672,-0.2338888888888889,4.8125],[0.12270833333333328,-0.205,4.826599999994038],[0.09197916666666663,-0.21962962962962967,4.84279999998212],[0.06520833333333335,-0.2190740740740741,4.859199999988078],[0.04760416666666671,-0.20425925925925928,4.878299999982119],[0.059791666666666646,-0.17962962962962964,4.893900000005964],[0.059687499999999956,-0.1868518518518518,4.909299999982117],[0.05489583333333338,-0.1853703703703704,4.928699999988083],[0.0546875,-0.18722222222222226,4.944400000005963],[0.08104166666666662,-0.17037037037037037,4.959900000005959],[0.10479166666666657,-0.13407407407407404,4.978400000005962],[0.0756249999999999,-0.1485185185185185,4.99290000000596],[0.09145833333333328,-0.1383333333333333,5.009400000005961],[0.1178124999999999,-0.16111111111111112,5.0259000000059615],[0.1446875000000001,-0.15314814814814812,5.047799999982118],[0.1178124999999999,-0.18074074074074079,5.063299999982121],[0.17322916666666663,-0.18703703703703703,5.079000000000001],[0.19854166666666656,-0.1690740740740741,5.094000000000001],[0.225,-0.14388888888888887,5.11340000000596],[0.24291666666666673,-0.11444444444444446,5.1291999999880815],[0.2404166666666666,-0.10092592592592593,5.145099999994038],[0.24927083333333327,-0.08592592592592588,5.161000000000001],[0.25812499999999994,-0.07092592592592595,5.176199999988079],[0.27291666666666664,0.01796296296296305,5.192500000000003],[0.28718750000000004,0.07611111111111116,5.20919999998808],[0.3146874999999999,0.1933333333333333,5.225799999982122],[0.3108333333333334,0.3562962962962963,5.2425],[0.22020833333333342,0.43444444444444447,5.259099999994042],[0.14635416666666667,0.5255555555555554,5.2757999999821195],[0.11145833333333334,0.6555555555555556,5.296900000005962],[0.11145833333333334,0.6555555555555556,5.3142999999821185],[0.09468750000000009,0.7712962962962963,5.331799999982117],[0.09468750000000009,0.7712962962962963,5.342500000000001],[0.07197916666666657,0.7288888888888889,5.359099999994044],[0.08208333333333329,0.6988888888888889,5.375799999982121],[0.09052083333333343,0.6781481481481483,5.392499999999998],[0.09895833333333333,0.6574074074074074,5.409099999994041],[0.11281249999999995,0.5935185185185186,5.42590000000596],[0.0743750000000001,0.4522222222222223,5.442500000000003],[0.12541666666666676,0.3742592592592593,5.459099999994038],[0.2025000000000001,0.2522222222222223,5.475799999982122],[0.22708333333333333,0.1346296296296297,5.4925],[0.27708333333333335,0.002777777777777778,5.509199999988077],[0.31270833333333337,0.022777777777777692,5.5257999999821195],[0.2787499999999999,0.010740740740740657,5.542599999994039],[0.22604166666666667,-0.06666666666666667,5.559199999988081],[0.171875,-0.14629629629629629,5.575799999982117],[0.15770833333333342,-0.15499999999999997,5.592500000000001],[0.19020833333333323,-0.15759259259259265,5.609199999988078],[0.2029166666666666,-0.18759259259259262,5.625799999982121],[0.18447916666666658,-0.18648148148148147,5.642499999999998],[0.17625000000000005,-0.21500000000000005,5.659199999988083],[0.1474999999999999,-0.21851851851851853,5.675799999982118],[0.12041666666666657,-0.21740740740740735,5.692500000000003],[0.13083333333333325,-0.19518518518518516,5.711900000005961],[0.16531250000000006,-0.1742592592592593,5.725799999982122],[0.20125000000000004,-0.15111111111111114,5.7426999999880834],[0.20864583333333328,-0.17222222222222222,5.759099999994042],[0.20791666666666658,-0.19796296296296292,5.7759000000059615],[0.20062499999999991,-0.18740740740740738,5.792500000000004],[0.19041666666666662,-0.17888888888888893,5.809199999988081],[0.20572916666666666,-0.14425925925925923,5.825799999982117],[0.21729166666666658,-0.11314814814814819,5.842500000000001],[0.24749999999999991,-0.08037037037037033,5.859199999988078],[0.25281250000000005,-0.04537037037037037,5.875799999982121],[0.246875,-0.007962962962962878,5.892499999999998],[0.22614583333333324,0.04018518518518527,5.909099999994041],[0.20770833333333344,0.07407407407407407,5.925799999982118],[0.1896874999999999,0.08185185185185194,5.942900000005963],[0.19802083333333323,0.08074074074074078,5.961400000005959],[0.19041666666666662,0.07962962962962963,5.975900000005964],[0.19041666666666662,0.07962962962962963,5.992599999994042],[0.1618750000000001,0.007962962962962878,6.012299999982119],[0.1618750000000001,0.007962962962962878,6.026099999994038],[0.12177083333333343,-0.0014814814814813973,6.0429000000059645],[0.08385416666666666,-0.023333333333333376,6.064599999994037],[0.09562499999999995,-0.045740740740740825,6.08009999999404],[0.07062499999999995,-0.075,6.093099999994038],[0.06041666666666667,-0.11500000000000005,6.112900000005965],[0.03697916666666667,-0.19759259259259257,6.128],[0.027083333333333334,-0.1962962962962963,6.142799999982117],[0.01593749999999995,-0.20259259259259255,6.159299999982117],[0.020729166666666642,-0.2088888888888889,6.176000000000002]]","[0.0002999999821184929,0.048199999988078446,0.059400000005965126,0.07609999999404238,0.09269999998807776,0.11319999998808328,0.12599999999999767,0.14300000000000068,0.15940000000595944,0.17900000000000205,0.19269999998807918,0.20949999999999847,0.22919999998808294,0.24479999998212065,0.2597999999821212,0.2760999999940381,0.29509999999404357,0.31129999998211844,0.32619999998807714,0.34550000000000125,0.3594000000059623,0.37609999999403954,0.3924999999999983,0.40919999998808265,0.42590000000596007,0.4426999999880792,0.4591999999880798,0.4759999999999991,0.4946999999880788,0.5092999999821188,0.5260999999940381,0.5455999999940389,0.5592999999821231,0.5760000000000005,0.5926999999880778,0.612599999994039,0.6264000000059582,0.6429000000059588,0.6614000000059619,0.6760999999940438,0.6925999999940373,0.7125999999940404,0.72679999998212,0.7430000000000021,0.7615999999940399,0.7760000000000034,0.7926999999880806,0.8124000000059581,0.8284000000059635,0.8434999999999988,0.8615999999940414,0.8760999999940395,0.8927999999821168,0.9125999999940433,0.9267999999821228,0.9429000000059631,0.9592999999821217,0.9792999999821177,0.9955999999940417,1.012400000005961,1.031599999994043,1.047099999994039,1.0625,1.076299999982119,1.0950999999940407,1.1096999999880808,1.1261999999880814,1.1464000000059613,1.1615999999940385,1.1775999999940439,1.1926999999880792,1.212900000005959,1.2279000000059597,1.243099999994044,1.2616999999880818,1.2760000000000034,1.2926999999880806,1.3094000000059651,1.3284999999999982,1.3455000000000013,1.3596999999880808,1.3791999999880815,1.3952999999821216,1.4094000000059594,1.426000000000002,1.4430999999940397,1.4592999999821217,1.4757999999821223,1.4926999999880834,1.509199999988077,1.5257999999821195,1.5425999999940387,1.5591999999880812,1.5760000000000005,1.5950999999940407,1.6094000000059623,1.6259999999999977,1.6460999999940427,1.661199999988078,1.6762999999821204,1.6925999999940373,1.7091999999880798,1.7259000000059643,1.7426999999880834,1.7594000000059609,1.7764000000059639,1.7966999999880784,1.8129000000059605,1.8266999999880795,1.842599999994043,1.8592999999821203,1.8757999999821209,1.8925999999940402,1.9091999999880827,1.926000000000002,1.9450999999940422,1.9592999999821217,1.975999999999999,1.9982999999821232,2.0095999999940375,2.02619999998808,2.0520999999940415,2.0595,2.0760000000000005,2.092599999994043,2.1092999999821203,2.125900000005963,2.1524000000059615,2.1591999999880827,2.176099999994044,2.1925000000000026,2.20919999998808,2.2259000000059643,2.2429000000059602,2.259199999988077,2.2757999999821195,2.292500000000004,2.309299999982123,2.3259000000059586,2.3426999999880778,2.3591999999880784,2.375900000005963,2.3924999999999983,2.4091999999880827,2.42590000000596,2.4425999999940373,2.45919999998808,2.4757999999821223,2.4925999999940416,2.51159999999404,2.5260000000000034,2.5429000000059645,2.563900000005958,2.5784000000059635,2.592500000000001,2.6092999999821203,2.6290999999940396,2.644199999988082,2.6592999999821174,2.67590000000596,2.695099999994042,2.7094000000059637,2.725999999999999,2.746199999988079,2.7595999999940375,2.7760000000000034,2.7926999999880806,2.812400000005958,2.8275999999940424,2.8430999999940383,2.8592999999821203,2.8785000000000025,2.892699999988082,2.9092999999821174,2.9286999999880834,2.9432999999821163,2.9592999999821217,2.975999999999999,2.995299999982123,3.009799999982121,3.027900000005964,3.047099999994039,3.0627999999821185,3.0760000000000005,3.092599999994043,3.1091999999880784,3.125900000005963,3.14259999999404,3.1591999999880827,3.17590000000596,3.1925000000000026,3.2116999999880775,3.226099999994041,3.243000000000002,3.262500000000003,3.2760000000000034,3.2926999999880806,3.311799999982121,3.327699999988077,3.3429000000059617,3.36190000000596,3.375900000005963,3.392699999988082,3.4091999999880827,3.42590000000596,3.4431999999880816,3.45919999998808,3.47829999998212,3.493799999982123,3.509199999988077,3.526099999994038,3.5425999999940387,3.5591999999880812,3.5790999999940425,3.5970000000000013,3.612599999994039,3.6314000000059607,3.642799999982117,3.6592999999821174,3.676000000000002,3.695900000005963,3.7094000000059637,3.725999999999999,3.7455,3.7595000000000027,3.7760000000000034,3.7927999999821225,3.811799999982121,3.8282999999821214,3.845599999994043,3.8629999999999995,3.8760999999940395,3.89259999999404,3.9095000000000013,3.92590000000596,3.9461999999880817,3.960599999994038,3.976199999988083,3.9924999999999997,4.009199999988077,4.0259000000059615,4.047199999988081,4.059400000005965,4.0760000000000005,4.092699999988078,4.1139000000059625,4.125900000005963,4.142900000005959,4.159299999982117,4.17890000000596,4.195199999988077,4.210000000000001,4.231000000000002,4.2426999999880834,4.259400000005961,4.2757999999821195,4.2942999999821225,4.311699999988079,4.325799999982117,4.34279999998212,4.359199999988078,4.375799999982121,4.392499999999998,4.409199999988083,4.425799999982118,4.442500000000003,4.461599999994043,4.476199999988083,4.4926999999880834,4.512400000005961,4.5274000000059615,4.5427999999821225,4.561699999988079,4.5760000000000005,4.592900000005962,4.609400000005962,4.628999999999998,4.645299999982122,4.6607999999821175,4.676000000000002,4.695799999982121,4.709699999988082,4.725999999999999,4.747299999982118,4.762099999994042,4.776299999982122,4.792699999988081,4.8125,4.826599999994038,4.84279999998212,4.859199999988078,4.878299999982119,4.893900000005964,4.909299999982117,4.928699999988083,4.944400000005963,4.959900000005959,4.978400000005962,4.99290000000596,5.009400000005961,5.0259000000059615,5.047799999982118,5.063299999982121,5.079000000000001,5.094000000000001,5.11340000000596,5.1291999999880815,5.145099999994038,5.161000000000001,5.176199999988079,5.192500000000003,5.20919999998808,5.225799999982122,5.2425,5.259099999994042,5.2757999999821195,5.296900000005962,5.3142999999821185,5.331799999982117,5.342500000000001,5.359099999994044,5.375799999982121,5.392499999999998,5.409099999994041,5.42590000000596,5.442500000000003,5.459099999994038,5.475799999982122,5.4925,5.509199999988077,5.5257999999821195,5.542599999994039,5.559199999988081,5.575799999982117,5.592500000000001,5.609199999988078,5.625799999982121,5.642499999999998,5.659199999988083,5.675799999982118,5.692500000000003,5.711900000005961,5.725799999982122,5.7426999999880834,5.759099999994042,5.7759000000059615,5.792500000000004,5.809199999988081,5.825799999982117,5.842500000000001,5.859199999988078,5.875799999982121,5.892499999999998,5.909099999994041,5.925799999982118,5.942900000005963,5.961400000005959,5.975900000005964,5.992599999994042,6.012299999982119,6.026099999994038,6.0429000000059645,6.064599999994037,6.08009999999404,6.093099999994038,6.112900000005965,6.128,6.142799999982117,6.159299999982117,6.176000000000002]","[1733384893972,1733384894011,1733384894022,1733384894038,1733384894055,1733384894076,1733384894088,1733384894105,1733384894122,1733384894141,1733384894155,1733384894172,1733384894192,1733384894207,1733384894222,1733384894238,1733384894257,1733384894274,1733384894289,1733384894308,1733384894322,1733384894338,1733384894355,1733384894372,1733384894388,1733384894405,1733384894422,1733384894438,1733384894457,1733384894472,1733384894488,1733384894508,1733384894522,1733384894538,1733384894555,1733384894575,1733384894589,1733384894605,1733384894624,1733384894638,1733384894655,1733384894675,1733384894689,1733384894705,1733384894724,1733384894738,1733384894755,1733384894775,1733384894791,1733384894806,1733384894824,1733384894838,1733384894855,1733384894875,1733384894889,1733384894905,1733384894922,1733384894942,1733384894958,1733384894975,1733384894994,1733384895009,1733384895025,1733384895039,1733384895057,1733384895072,1733384895089,1733384895109,1733384895124,1733384895140,1733384895155,1733384895175,1733384895190,1733384895205,1733384895224,1733384895238,1733384895255,1733384895272,1733384895291,1733384895308,1733384895322,1733384895342,1733384895358,1733384895372,1733384895388,1733384895405,1733384895422,1733384895438,1733384895455,1733384895472,1733384895488,1733384895505,1733384895522,1733384895538,1733384895557,1733384895572,1733384895588,1733384895608,1733384895624,1733384895639,1733384895655,1733384895672,1733384895688,1733384895705,1733384895722,1733384895739,1733384895759,1733384895775,1733384895789,1733384895805,1733384895822,1733384895838,1733384895855,1733384895872,1733384895888,1733384895907,1733384895922,1733384895938,1733384895961,1733384895972,1733384895989,1733384896014,1733384896022,1733384896038,1733384896055,1733384896072,1733384896088,1733384896115,1733384896121,1733384896138,1733384896155,1733384896171,1733384896188,1733384896205,1733384896222,1733384896238,1733384896255,1733384896272,1733384896288,1733384896305,1733384896322,1733384896338,1733384896355,1733384896372,1733384896388,1733384896405,1733384896422,1733384896438,1733384896455,1733384896474,1733384896488,1733384896505,1733384896526,1733384896541,1733384896555,1733384896572,1733384896591,1733384896607,1733384896622,1733384896638,1733384896657,1733384896672,1733384896688,1733384896708,1733384896722,1733384896738,1733384896755,1733384896775,1733384896790,1733384896805,1733384896822,1733384896841,1733384896855,1733384896872,1733384896891,1733384896906,1733384896922,1733384896938,1733384896958,1733384896972,1733384896990,1733384897009,1733384897025,1733384897038,1733384897055,1733384897072,1733384897088,1733384897105,1733384897122,1733384897138,1733384897155,1733384897174,1733384897188,1733384897205,1733384897225,1733384897238,1733384897255,1733384897274,1733384897290,1733384897305,1733384897324,1733384897338,1733384897355,1733384897372,1733384897388,1733384897406,1733384897422,1733384897441,1733384897456,1733384897472,1733384897488,1733384897505,1733384897522,1733384897541,1733384897559,1733384897575,1733384897594,1733384897605,1733384897622,1733384897638,1733384897658,1733384897672,1733384897688,1733384897708,1733384897722,1733384897738,1733384897755,1733384897774,1733384897791,1733384897808,1733384897825,1733384897838,1733384897855,1733384897872,1733384897888,1733384897909,1733384897923,1733384897939,1733384897955,1733384897972,1733384897988,1733384898009,1733384898022,1733384898038,1733384898055,1733384898076,1733384898088,1733384898105,1733384898122,1733384898141,1733384898157,1733384898172,1733384898193,1733384898205,1733384898222,1733384898238,1733384898257,1733384898274,1733384898288,1733384898305,1733384898321,1733384898338,1733384898355,1733384898371,1733384898388,1733384898405,1733384898424,1733384898439,1733384898455,1733384898475,1733384898490,1733384898505,1733384898524,1733384898538,1733384898555,1733384898572,1733384898591,1733384898608,1733384898623,1733384898638,1733384898658,1733384898672,1733384898688,1733384898710,1733384898724,1733384898739,1733384898755,1733384898775,1733384898789,1733384898805,1733384898821,1733384898841,1733384898856,1733384898872,1733384898891,1733384898907,1733384898922,1733384898941,1733384898955,1733384898972,1733384898988,1733384899010,1733384899026,1733384899041,1733384899056,1733384899076,1733384899091,1733384899107,1733384899123,1733384899139,1733384899155,1733384899171,1733384899188,1733384899205,1733384899221,1733384899238,1733384899259,1733384899277,1733384899294,1733384899305,1733384899322,1733384899338,1733384899355,1733384899371,1733384899388,1733384899405,1733384899421,1733384899438,1733384899455,1733384899471,1733384899488,1733384899505,1733384899521,1733384899538,1733384899555,1733384899572,1733384899588,1733384899605,1733384899621,1733384899638,1733384899655,1733384899674,1733384899688,1733384899705,1733384899721,1733384899738,1733384899755,1733384899772,1733384899788,1733384899805,1733384899822,1733384899838,1733384899855,1733384899871,1733384899888,1733384899905,1733384899924,1733384899938,1733384899955,1733384899975,1733384899988,1733384900005,1733384900027,1733384900042,1733384900055,1733384900075,1733384900090,1733384900105,1733384900122,1733384900138]","[[982.5,726.9],[982.5,726.9],[977.8,731.5],[1054.6,747.2],[1062.3,727.5],[1076.7,730.9],[1076.7,730.9],[1121,721.9],[1112.8,697.1],[1104.6,672.3],[1100.4,673.8],[1139.6,670.9],[1159.9,667.4],[1167.3,673.6],[1112.2,660],[1089.8,635.2],[1088.2,620.3],[1117.5,628.8],[1117.5,628.8],[1199.3,653.1],[1211.5,670.2],[1213.3,673.7],[1193.2,675.5],[1201.3,679.6],[1199.4,700.8],[1188.9,715.7],[1179.5,731.1],[1170.1,746.5],[1096.4,742.4],[1038.1,713.4],[1023.4,686.1],[1020,649.8],[1020.5,657.9],[1007.5,662.6],[1010.2,647.6],[1041.2,644.3],[1071.3,651.5],[1069.5,653.7],[1061.6,639],[1069.9,662.2],[1104.2,690.9],[1103.3,728.7],[1102.3,718.6],[1132.1,738.6],[1142.1,753.9],[1105.6,735.9],[1049.1,715.2],[1068.6,726.2],[1035,711.6],[1023.4,684.1],[991,659.3],[1019.1,644.9],[1009.8,651.5],[983.2,631.4],[963,616],[981.1,622.1],[981.1,622.1],[987.5,628.4],[998.2,622.7],[1057.3,637.3],[1062.8,651.8],[1040.1,645.2],[980.8,628.1],[1001.9,638.5],[1023,648.9],[1010.6,638.2],[998.2,627.5],[1010.1,608.9],[998.7,597.4],[995.5,588],[997.4,569.7],[1038.3,562.7],[1054.4,575.7],[1010.5,552.1],[1000.3,552.8],[1000.2,548.1],[974,540.5],[957.6,555.6],[924.8,551.3],[910.9,547.1],[851.7,603.9],[810.5,670.6],[855.5,679.8],[900,727.3],[910.8,750.5],[947.5,801.8],[1010.3,856],[1008.6,869],[1018.7,874.1],[1005.6,881.9],[1032.7,837.6],[1094.3,763.1],[1081.2,739.3],[1065.2,696.6],[1016.7,617.9],[982.5,566.2],[924.5,545.7],[931,566.4],[906.1,580.3],[861.6,583.2],[800.9,555.5],[697.7,555.2],[676.4,560.9],[625.9,548.2],[641,586],[632.9,590.5],[648.4,579],[648.4,579],[676.9,561.5],[676.9,561.5],[717.3,560],[778.1,549.3],[855.1,569.2],[943.8,598.4],[963.9,608.4],[963.9,608.4],[984.5,611.7],[984.5,611.7],[972,600.5],[972,600.5],[963.8,601],[963.8,601],[982.3,615.5],[982.3,615.5],[966.3,599.5],[966.3,599.5],[946.8,583.5],[946.8,583.5],[957.8,592.4],[957.8,592.4],[992.4,609.6],[1015.3,617.5],[1028.2,617.1],[1077.5,640.4],[1126.8,663.7],[1169.4,671.5],[1185.5,650.1],[1204.3,668.9],[1225.6,684],[1206.8,657.7],[1167.4,638.6],[1128,619.5],[1092.4,613.9],[1082.7,604.7],[1067.4,586.6],[1057.6,581.6],[1064.2,568.2],[1083.2,553],[1103.4,540.9],[1137.4,551.4],[1147.5,550],[1157.6,548.6],[1170,535.9],[1135.4,532.5],[1106.4,538],[1073.7,533.7],[1038.9,536.5],[1022.6,541],[1004.1,543.8],[978.4,553.3],[951.2,563.7],[927.1,600.2],[927.1,600.2],[906.9,642.8],[908.7,666.4],[878.4,685.2],[917.4,704.3],[942.1,724.7],[982.9,741.6],[995.7,739.8],[973.6,745.5],[998.3,753],[1010.4,682.6],[1060,620.6],[1058.9,585.3],[1119.2,563.7],[1116.5,522.6],[1113.8,481.5],[1066.1,436.5],[1038.9,426.1],[1030.4,411.1],[1025.2,381.2],[1031.7,413.1],[1007.4,437.7],[1028.7,450.4],[1009.3,444.4],[984.2,458.1],[972.7,468.6],[978,482.9],[991.8,479.9],[1001.9,466.9],[984.3,462.5],[950.8,475.2],[910.6,486.8],[845.5,475.4],[861.5,506.6],[880.5,523.3],[885.9,543.2],[908,563.3],[930.1,583.4],[928,603.5],[958.2,623.1],[1020.9,621],[1084.4,611.2],[1175.1,615.2],[1200.3,602],[1222.5,603.3],[1211.8,605.7],[1193.1,593.3],[1070.4,572.8],[998.3,564],[958.6,576.6],[952.1,599.3],[944.8,629.7],[927.5,627.2],[906,609.1],[888,601.8],[888,601.8],[896.1,587.1],[888.7,582.6],[991.8,580.7],[1071,581.3],[1050.5,641.6],[976,663.9],[933,636.8],[907.1,654.6],[889.1,683.2],[867.6,701],[883.7,726.5],[892.7,751],[873.3,770.3],[928.2,787.2],[1008.8,725.1],[1084.4,656.9],[1128.5,638.1],[1143,634.9],[1128.2,638.3],[1113.4,641.7],[1113.4,641.7],[1113.6,643.7],[1113.6,643.7],[1129.1,635.9],[1129.1,635.9],[1171.2,629.8],[1171.2,629.8],[1141,615],[1141,615],[1129.2,602.7],[1129.2,602.7],[1112.6,627.5],[1110.9,638.8],[1112,620.3],[1156.4,583.7],[1156.4,583.7],[1151.8,544.7],[1107.9,498.4],[1057,468.8],[993,443.5],[965.6,441.5],[908.3,436.8],[887.5,420.6],[851.8,417.9],[853.1,435.4],[832.5,453.6],[865.8,459.9],[892.6,473.5],[934.3,489.7],[974.2,506.2],[1009.9,525.3],[1066.4,543],[1081,555.6],[1108.9,581],[1103.6,550.4],[1108.3,542],[1107.1,534],[1105.9,526],[1097,528.8],[1096.2,517.3],[1084.9,488.5],[1081,469.9],[1094.3,459.4],[1085.5,428.4],[1084.5,434],[1071.9,436],[1091.1,445.7],[1096.4,454.4],[1075.5,424.7],[1056.7,413.7],[1077.8,429.3],[1048.3,421.4],[1022.6,421.7],[1005.7,429.7],[1017.4,443],[1017.3,439.1],[1012.7,439.9],[1012.5,438.9],[1037.8,448],[1060.6,467.6],[1032.6,459.8],[1047.8,465.3],[1073.1,453],[1098.9,457.3],[1073.1,442.4],[1126.3,439],[1150.6,448.7],[1176,462.3],[1193.2,478.2],[1190.8,485.5],[1199.3,493.6],[1207.8,501.7],[1222,549.7],[1235.7,581.1],[1262.1,644.4],[1258.4,732.4],[1171.4,774.6],[1100.5,823.8],[1067,894],[1067,894],[1050.9,956.5],[1050.9,956.5],[1029.1,933.6],[1038.8,917.4],[1046.9,906.2],[1055,895],[1068.3,860.5],[1031.4,784.2],[1080.4,742.1],[1154.4,676.2],[1178,612.7],[1226,541.5],[1260.2,552.3],[1227.6,545.8],[1177,504],[1125,461],[1111.4,456.3],[1142.6,454.9],[1154.8,438.7],[1137.1,439.3],[1129.2,423.9],[1101.6,422],[1075.6,422.6],[1085.6,434.6],[1118.7,445.9],[1153.2,458.4],[1160.3,447],[1159.6,433.1],[1152.6,438.8],[1142.8,443.4],[1157.5,462.1],[1168.6,478.9],[1197.6,496.6],[1202.7,515.5],[1197,535.7],[1177.1,561.7],[1159.4,580],[1142.1,584.2],[1150.1,583.6],[1142.8,583],[1142.8,583],[1115.4,544.3],[1115.4,544.3],[1076.9,539.2],[1040.5,527.4],[1051.8,515.3],[1027.8,499.5],[1018,477.9],[995.5,433.3],[986,434],[975.3,430.6],[979.9,427.2]]","[0,0.151169218]","[0.151169218,0.151169218]","[-0.151169218,0]","[-0.151169218,-0.151169218]","[0,0]","[0.151169218,0]","[0,-0.151169218]","[0.151169218,-0.151169218]",0,0,0,0,1,4,Smartphone,11,5,13,9
