inst1_resp.keys,inst1_resp.rt,calibrationMouse.x,calibrationMouse.y,calibrationMouse.leftButton,calibrationMouse.midButton,calibrationMouse.rightButton,calibrationClick.x,calibrationClick.y,calibrationClick.leftButton,calibrationClick.midButton,calibrationClick.rightButton,calibrationClick.clicked_name,trialsc.thisRepN,trialsc.thisTrialN,trialsc.thisN,trialsc.thisIndex,trialsc.ran,calibration_x,calibration_y,participant,session,date,expName,psychopyVersion,OS,frameRate,ScreenRes_pixels,Camera_pixels,mouse_2.x,mouse_2.y,mouse_2.leftButton,mouse_2.midButton,mouse_2.rightButton,mouse_2.time,mouse_2.clicked_name,mouse.x,mouse.y,mouse.leftButton,mouse.midButton,mouse.rightButton,mouse.time,mouse.clicked_name,Choice,Trial,TrialDuration,MOUSE_GAZE,ET_GAZE,ET_GAZE_x_T,time,unixTime,ET_GAZE_NF,Loc_Option1_label,Loc_Option2_label,Loc_Cost_label,Loc_Qual_label,Loc_Option1_cost,Loc_Option2_cost,Loc_Option1_quality,Loc_Option2_quality,trials.thisRepN,trials.thisTrialN,trials.thisN,trials.thisIndex,trials.ran,Block,Device,cost1,qual1,cost2,qual2
space,3.8389,-0.036458333,0.198148148,1,0,0,-0.33125,0.32962963,1,0,0,calibration_square,0,0,0,7,1,-0.33,0.33,23,001,2024-12-05_15h52.12.059,Attention_exp_legacy,2023.1.0,Win32,59.88023952,,,,,,,,,,,,,,,,,,,,,,,,,,,,,,,,,,,,,,,,,,,,
,,,,,,,0.330208333,0.67037037,1,0,0,calibration_square,0,1,1,18,1,0.33,0.67,23,001,2024-12-05_15h52.12.059,Attention_exp_legacy,2023.1.0,Win32,59.88023952,,,,,,,,,,,,,,,,,,,,,,,,,,,,,,,,,,,,,,,,,,,,
,,,,,,,-0.66875,-0.005555556,1,0,0,calibration_square,0,2,2,2,1,-0.67,0,23,001,2024-12-05_15h52.12.059,Attention_exp_legacy,2023.1.0,Win32,59.88023952,,,,,,,,,,,,,,,,,,,,,,,,,,,,,,,,,,,,,,,,,,,,
,,,,,,,0.003125,0.67962963,1,0,0,calibration_square,0,3,3,13,1,0,0.67,23,001,2024-12-05_15h52.12.059,Attention_exp_legacy,2023.1.0,Win32,59.88023952,,,,,,,,,,,,,,,,,,,,,,,,,,,,,,,,,,,,,,,,,,,,
,,,,,,,-0.340625,-0.67037037,1,0,0,,0,4,4,4,1,-0.33,-0.67,23,001,2024-12-05_15h52.12.059,Attention_exp_legacy,2023.1.0,Win32,59.88023952,,,,,,,,,,,,,,,,,,,,,,,,,,,,,,,,,,,,,,,,,,,,
,,,,,,,-0.335416667,0.001851852,1,0,0,calibration_square,0,5,5,6,1,-0.33,0,23,001,2024-12-05_15h52.12.059,Attention_exp_legacy,2023.1.0,Win32,59.88023952,,,,,,,,,,,,,,,,,,,,,,,,,,,,,,,,,,,,,,,,,,,,
,,,,,,,0.676041667,0.664814815,1,0,0,calibration_square,0,6,6,19,1,0.67,0.67,23,001,2024-12-05_15h52.12.059,Attention_exp_legacy,2023.1.0,Win32,59.88023952,,,,,,,,,,,,,,,,,,,,,,,,,,,,,,,,,,,,,,,,,,,,
,,,,,,,0.33125,-0.338888889,1,0,0,calibration_square,0,7,7,15,1,0.33,-0.33,23,001,2024-12-05_15h52.12.059,Attention_exp_legacy,2023.1.0,Win32,59.88023952,,,,,,,,,,,,,,,,,,,,,,,,,,,,,,,,,,,,,,,,,,,,
,,,,,,,-0.673958333,0.331481481,1,0,0,calibration_square,0,8,8,3,1,-0.67,0.33,23,001,2024-12-05_15h52.12.059,Attention_exp_legacy,2023.1.0,Win32,59.88023952,,,,,,,,,,,,,,,,,,,,,,,,,,,,,,,,,,,,,,,,,,,,
,,,,,,,-0.004166667,0.335185185,1,0,0,calibration_square,0,9,9,12,1,0,0.33,23,001,2024-12-05_15h52.12.059,Attention_exp_legacy,2023.1.0,Win32,59.88023952,,,,,,,,,,,,,,,,,,,,,,,,,,,,,,,,,,,,,,,,,,,,
,,,,,,,0.336458333,-0.666666667,1,0,0,calibration_square,0,10,10,14,1,0.33,-0.67,23,001,2024-12-05_15h52.12.059,Attention_exp_legacy,2023.1.0,Win32,59.88023952,,,,,,,,,,,,,,,,,,,,,,,,,,,,,,,,,,,,,,,,,,,,
,,,,,,,0.326041667,-0.003703704,1,0,0,calibration_square,0,11,11,16,1,0.33,0,23,001,2024-12-05_15h52.12.059,Attention_exp_legacy,2023.1.0,Win32,59.88023952,,,,,,,,,,,,,,,,,,,,,,,,,,,,,,,,,,,,,,,,,,,,
,,,,,,,-0.666666667,-0.674074074,1,0,0,calibration_square,0,12,12,0,1,-0.67,-0.67,23,001,2024-12-05_15h52.12.059,Attention_exp_legacy,2023.1.0,Win32,59.88023952,,,,,,,,,,,,,,,,,,,,,,,,,,,,,,,,,,,,,,,,,,,,
,,,,,,,-0.675,-0.335185185,1,0,0,calibration_square,0,13,13,1,1,-0.67,-0.33,23,001,2024-12-05_15h52.12.059,Attention_exp_legacy,2023.1.0,Win32,59.88023952,,,,,,,,,,,,,,,,,,,,,,,,,,,,,,,,,,,,,,,,,,,,
,,,,,,,-0.330208333,0.675925926,1,0,0,calibration_square,0,14,14,8,1,-0.33,0.67,23,001,2024-12-05_15h52.12.059,Attention_exp_legacy,2023.1.0,Win32,59.88023952,,,,,,,,,,,,,,,,,,,,,,,,,,,,,,,,,,,,,,,,,,,,
,,,,,,,-0.330208333,-0.325925926,1,0,0,calibration_square,0,15,15,5,1,-0.33,-0.33,23,001,2024-12-05_15h52.12.059,Attention_exp_legacy,2023.1.0,Win32,59.88023952,,,,,,,,,,,,,,,,,,,,,,,,,,,,,,,,,,,,,,,,,,,,
,,,,,,,-0.001041667,-0.664814815,1,0,0,calibration_square,0,16,16,9,1,0,-0.67,23,001,2024-12-05_15h52.12.059,Attention_exp_legacy,2023.1.0,Win32,59.88023952,,,,,,,,,,,,,,,,,,,,,,,,,,,,,,,,,,,,,,,,,,,,
,,,,,,,0.675,-0.674074074,1,0,0,calibration_square,0,17,17,20,1,0.67,-0.67,23,001,2024-12-05_15h52.12.059,Attention_exp_legacy,2023.1.0,Win32,59.88023952,,,,,,,,,,,,,,,,,,,,,,,,,,,,,,,,,,,,,,,,,,,,
,,,,,,,-0.004166667,-0.331481481,1,0,0,calibration_square,0,18,18,10,1,0,-0.33,23,001,2024-12-05_15h52.12.059,Attention_exp_legacy,2023.1.0,Win32,59.88023952,,,,,,,,,,,,,,,,,,,,,,,,,,,,,,,,,,,,,,,,,,,,
,,,,,,,0.329166667,0.32962963,1,0,0,calibration_square,0,19,19,17,1,0.33,0.33,23,001,2024-12-05_15h52.12.059,Attention_exp_legacy,2023.1.0,Win32,59.88023952,,,,,,,,,,,,,,,,,,,,,,,,,,,,,,,,,,,,,,,,,,,,
,,,,,,,-0.010416667,0.003703704,1,0,0,,0,20,20,11,1,0,0,23,001,2024-12-05_15h52.12.059,Attention_exp_legacy,2023.1.0,Win32,59.88023952,,,,,,,,,,,,,,,,,,,,,,,,,,,,,,,,,,,,,,,,,,,,
,,,,,,,,,,,,,,,,,,,,23,001,2024-12-05_15h52.12.059,Attention_exp_legacy,2023.1.0,Win32,59.88023952,"[1920,1080]","[640,480]",[0.04375],[-0.48703703703703705],[1],[0],[0],[2.7437000000178813],"[""StartButton""]",[0.07916666666666666],[0.5037037037037037],[1],[0],[0],[3.404899999976159],"[""Option1_label""]",Option1_label,1,4.4138,"[[0.10729166666666666,-0.12222222222222222],[0.10729166666666666,-0.12222222222222222],[0.10729166666666666,-0.12222222222222222],[0.10729166666666666,-0.12222222222222222],[0.10729166666666666,-0.12222222222222222],[0.10729166666666666,-0.12222222222222222],[0.10729166666666666,-0.12222222222222222],[0.10729166666666666,-0.12222222222222222],[0.10729166666666666,-0.12222222222222222],[0.10729166666666666,-0.12222222222222222],[0.10729166666666666,-0.12222222222222222],[0.10729166666666666,-0.12222222222222222],[0.10729166666666666,-0.12222222222222222],[0.10729166666666666,-0.12222222222222222],[0.10729166666666666,-0.12222222222222222],[0.10729166666666666,-0.12222222222222222],[0.10729166666666666,-0.12222222222222222],[0.10729166666666666,-0.12222222222222222],[0.10729166666666666,-0.12222222222222222],[0.10729166666666666,-0.12222222222222222],[0.10729166666666666,-0.12222222222222222],[0.10729166666666666,-0.12222222222222222],[0.10729166666666666,-0.12222222222222222],[0.10729166666666666,-0.12222222222222222],[0.10729166666666666,-0.12222222222222222],[0.10729166666666666,-0.12222222222222222],[0.10729166666666666,-0.12222222222222222],[0.09895833333333333,-0.12222222222222222],[0.08020833333333334,-0.10185185185185185],[0.058333333333333334,-0.08148148148148149],[0.035416666666666666,-0.06481481481481481],[0.014583333333333334,-0.04814814814814815],[-0.0020833333333333333,-0.03518518518518519],[-0.016666666666666666,-0.025925925925925925],[-0.030208333333333334,-0.011111111111111112],[-0.042708333333333334,0.001851851851851852],[-0.05416666666666667,0.018518518518518517],[-0.06041666666666667,0.025925925925925925],[-0.06354166666666666,0.03148148148148148],[-0.06458333333333334,0.037037037037037035],[-0.06458333333333334,0.044444444444444446],[-0.06354166666666666,0.05185185185185185],[-0.05416666666666667,0.05925925925925926],[-0.035416666666666666,0.06851851851851852],[-0.00625,0.08148148148148149],[0.035416666666666666,0.09074074074074075],[0.10104166666666667,0.09444444444444444],[0.203125,0.09444444444444444],[0.23645833333333333,0.09444444444444444],[0.3072916666666667,0.09444444444444444],[0.4010416666666667,0.09444444444444444],[0.446875,0.09444444444444444],[0.47604166666666664,0.09444444444444444],[0.496875,0.08518518518518518],[0.5104166666666666,0.07962962962962963],[0.5197916666666667,0.07037037037037037],[0.5239583333333333,0.06666666666666667],[0.5260416666666666,0.06481481481481481],[0.528125,0.06296296296296296],[0.5291666666666667,0.06111111111111111],[0.5291666666666667,0.06111111111111111],[0.5291666666666667,0.06111111111111111],[0.5291666666666667,0.06111111111111111],[0.5291666666666667,0.06111111111111111],[0.5291666666666667,0.06111111111111111],[0.5291666666666667,0.06111111111111111],[0.5291666666666667,0.06111111111111111],[0.5291666666666667,0.06111111111111111],[0.5291666666666667,0.06111111111111111],[0.5291666666666667,0.06111111111111111],[0.5291666666666667,0.06111111111111111],[0.5291666666666667,0.06111111111111111],[0.5291666666666667,0.06111111111111111],[0.5291666666666667,0.05925925925925926],[0.53125,0.05185185185185185],[0.5333333333333333,0.044444444444444446],[0.5333333333333333,0.044444444444444446],[0.5614583333333333,0.027777777777777776],[0.553125,0.025925925925925925],[0.553125,0.025925925925925925],[0.553125,0.025925925925925925],[0.553125,0.025925925925925925],[0.553125,0.025925925925925925],[0.553125,0.025925925925925925],[0.553125,0.025925925925925925],[0.553125,0.025925925925925925],[0.553125,0.025925925925925925],[0.553125,0.025925925925925925],[0.553125,0.025925925925925925],[0.553125,0.025925925925925925],[0.553125,0.025925925925925925],[0.553125,0.025925925925925925],[0.553125,0.025925925925925925],[0.553125,0.025925925925925925],[0.553125,0.025925925925925925],[0.553125,0.025925925925925925],[0.553125,0.025925925925925925],[0.553125,0.025925925925925925],[0.553125,0.025925925925925925],[0.553125,0.025925925925925925],[0.553125,0.025925925925925925],[0.553125,0.025925925925925925],[0.553125,0.025925925925925925],[0.553125,0.025925925925925925],[0.553125,0.025925925925925925],[0.553125,0.025925925925925925],[0.553125,0.025925925925925925],[0.553125,0.025925925925925925],[0.553125,0.025925925925925925],[0.553125,0.025925925925925925],[0.553125,0.025925925925925925],[0.553125,0.025925925925925925],[0.553125,0.025925925925925925],[0.553125,0.025925925925925925],[0.553125,0.025925925925925925],[0.553125,0.025925925925925925],[0.553125,0.025925925925925925],[0.553125,0.025925925925925925],[0.553125,0.025925925925925925],[0.553125,0.025925925925925925],[0.55,0.025925925925925925],[0.5447916666666667,0.024074074074074074],[0.5333333333333333,0.024074074074074074],[0.5260416666666666,0.024074074074074074],[0.5177083333333333,0.024074074074074074],[0.5083333333333333,0.03148148148148148],[0.49895833333333334,0.04259259259259259],[0.49375,0.053703703703703705],[0.48333333333333334,0.06851851851851852],[0.475,0.07962962962962963],[0.4708333333333333,0.08888888888888889],[0.465625,0.1],[0.46145833333333336,0.10925925925925926],[0.459375,0.12037037037037036],[0.45625,0.13148148148148148],[0.45416666666666666,0.14629629629629629],[0.45416666666666666,0.15],[0.453125,0.1574074074074074],[0.453125,0.15925925925925927],[0.453125,0.16296296296296298],[0.453125,0.16666666666666666],[0.45208333333333334,0.1685185185185185],[0.45208333333333334,0.1685185185185185],[0.45208333333333334,0.17037037037037037],[0.45208333333333334,0.17037037037037037],[0.45208333333333334,0.17222222222222222],[0.45208333333333334,0.17407407407407408],[0.45208333333333334,0.17592592592592593],[0.45208333333333334,0.17592592592592593],[0.45208333333333334,0.17592592592592593],[0.45208333333333334,0.17592592592592593],[0.45208333333333334,0.17592592592592593],[0.45208333333333334,0.17592592592592593],[0.45208333333333334,0.17592592592592593],[0.45208333333333334,0.17962962962962964],[0.45208333333333334,0.18518518518518517],[0.45208333333333334,0.19814814814814816],[0.4479166666666667,0.21481481481481482],[0.42916666666666664,0.23703703703703705],[0.4114583333333333,0.2518518518518518],[0.38958333333333334,0.26481481481481484],[0.35833333333333334,0.27037037037037037],[0.30416666666666664,0.27037037037037037],[0.253125,0.27037037037037037],[0.21875,0.27037037037037037],[0.19270833333333334,0.27037037037037037],[0.17708333333333334,0.27037037037037037],[0.16770833333333332,0.2796296296296296],[0.16458333333333333,0.28703703703703703],[0.16354166666666667,0.29444444444444445],[0.16354166666666667,0.31666666666666665],[0.15729166666666666,0.37222222222222223],[0.14791666666666667,0.412962962962963],[0.1375,0.4444444444444444],[0.128125,0.4648148148148148],[0.121875,0.4759259259259259],[0.12083333333333333,0.4777777777777778],[0.11875,0.47962962962962963],[0.11458333333333333,0.48333333333333334],[0.11041666666666666,0.48518518518518516],[0.10208333333333333,0.4925925925925926],[0.09583333333333334,0.4925925925925926],[0.0875,0.4981481481481482],[0.08333333333333333,0.5],[0.08125,0.5018518518518519],[0.07916666666666666,0.5037037037037037],[0.07916666666666666,0.5037037037037037],[0.07916666666666666,0.5037037037037037],[0.07916666666666666,0.5037037037037037],[0.07916666666666666,0.5037037037037037],[0.07916666666666666,0.5037037037037037],[0.07916666666666666,0.5037037037037037],[0.07916666666666666,0.5037037037037037],[0.07916666666666666,0.5037037037037037],[0.07916666666666666,0.5037037037037037],[0.07916666666666666,0.5037037037037037],[0.07916666666666666,0.5037037037037037],[0.07916666666666666,0.5037037037037037],[0.07916666666666666,0.5037037037037037],[0.07916666666666666,0.5037037037037037],[0.07916666666666666,0.5037037037037037],[0.07916666666666666,0.5037037037037037],[0.07916666666666666,0.5037037037037037],[0.07916666666666666,0.5037037037037037],[0.07916666666666666,0.5037037037037037],[0.07916666666666666,0.5037037037037037],[0.07916666666666666,0.5037037037037037],[0.07916666666666666,0.5037037037037037],[0.07916666666666666,0.5037037037037037],[0.07916666666666666,0.5037037037037037],[0.07916666666666666,0.5037037037037037],[0.07916666666666666,0.5037037037037037],[0.07916666666666666,0.5037037037037037],[0.07916666666666666,0.5037037037037037],[0.07916666666666666,0.5037037037037037],[0.07916666666666666,0.5037037037037037],[0.07916666666666666,0.5037037037037037],[0.07916666666666666,0.5037037037037037],[0.07916666666666666,0.5037037037037037],[0.07916666666666666,0.5037037037037037],[0.07916666666666666,0.5037037037037037],[0.07916666666666666,0.5037037037037037],[0.07916666666666666,0.5037037037037037],[0.07916666666666666,0.5037037037037037],[0.07916666666666666,0.5037037037037037],[0.07916666666666666,0.5037037037037037],[0.07916666666666666,0.5037037037037037],[0.07916666666666666,0.5037037037037037],[0.07916666666666666,0.5037037037037037],[0.07916666666666666,0.5037037037037037],[0.07916666666666666,0.5037037037037037],[0.07916666666666666,0.5037037037037037],[0.07916666666666666,0.5037037037037037],[0.07916666666666666,0.5037037037037037],[0.07916666666666666,0.5037037037037037],[0.07916666666666666,0.5037037037037037],[0.07916666666666666,0.5037037037037037],[0.07916666666666666,0.5037037037037037],[0.07916666666666666,0.5037037037037037],[0.07916666666666666,0.5037037037037037],[0.07916666666666666,0.5037037037037037],[0.07916666666666666,0.5037037037037037],[0.07916666666666666,0.5037037037037037],[0.07916666666666666,0.5037037037037037],[0.07916666666666666,0.5037037037037037],[0.07916666666666666,0.5037037037037037],[0.07916666666666666,0.5037037037037037],[0.07916666666666666,0.5037037037037037],[0.07916666666666666,0.5037037037037037],[0.07916666666666666,0.5037037037037037],[0.07916666666666666,0.5037037037037037],[0.07916666666666666,0.5037037037037037],[0.07916666666666666,0.5037037037037037],[0.07916666666666666,0.5037037037037037],[0.07916666666666666,0.5037037037037037],[0.07916666666666666,0.5037037037037037],[0.07916666666666666,0.5037037037037037],[0.07916666666666666,0.5037037037037037],[0.07916666666666666,0.5037037037037037],[0.07916666666666666,0.5037037037037037],[0.07916666666666666,0.5037037037037037],[0.07916666666666666,0.5037037037037037],[0.07916666666666666,0.5037037037037037],[0.07916666666666666,0.5037037037037037],[0.07916666666666666,0.5037037037037037]]","[[-0.35354166666666664,0.342962962962963],[-0.35354166666666664,0.342962962962963],[-0.30739583333333337,0.3116666666666666],[-0.26322916666666674,0.27981481481481485],[-0.15885416666666666,0.19203703703703712],[-0.05447916666666662,0.10425925925925918],[-0.007187499999999976,0.012222222222222264],[0.04010416666666667,-0.07981481481481485],[0.08927083333333338,-0.10740740740740741],[0.11885416666666657,-0.08648148148148146],[0.16552083333333342,-0.05018518518518523],[0.21218750000000006,-0.013888888888888888],[0.23479166666666676,0.006666666666666709],[0.2582291666666668,0.019259259259259216],[0.26885416666666656,-0.018148148148148063],[0.2696875000000001,-0.05851851851851856],[0.29270833333333335,-0.11444444444444446],[0.3193749999999999,-0.1698148148148148],[0.31239583333333343,-0.26055555555555554],[0.2985416666666666,-0.327962962962963],[0.26229166666666665,-0.4262962962962963],[0.23791666666666675,-0.5348148148148149],[0.25927083333333345,-0.620925925925926],[0.28177083333333336,-0.6985185185185185],[0.28843750000000007,-0.7301851851851852],[0.30489583333333337,-0.758888888888889],[0.2868750000000001,-0.7705555555555555],[0.2652083333333332,-0.7827777777777778],[0.23104166666666662,-0.6516666666666666],[0.19916666666666671,-0.5475925925925925],[0.18624999999999994,-0.5142592592592592],[0.16145833333333334,-0.47074074074074074],[0.1703125,-0.46722222222222226],[0.17916666666666667,-0.4637037037037037],[0.1570833333333333,-0.43037037037037035],[0.1349999999999999,-0.397037037037037],[0.12291666666666666,-0.34092592592592597],[0.11083333333333342,-0.28481481481481485],[0.12364583333333339,-0.31666666666666665],[0.15166666666666656,-0.38981481481481484],[0.13333333333333333,-0.32611111111111113],[0.11500000000000009,-0.26240740740740737],[0.10656249999999995,-0.21444444444444447],[0.07625000000000005,-0.21240740740740738],[0.08177083333333333,-0.2735185185185185],[-0.0026041666666666665,-0.25407407407407406],[-0.0005208333333333333,-0.2603703703703704],[0.0015625,-0.26666666666666666],[0.0015625,-0.26666666666666666],[-0.02635416666666662,-0.1514814814814815],[-0.06291666666666665,-0.03185185185185194],[-0.06677083333333336,0.03722222222222227],[-0.029375000000000047,0.061666666666666585],[-0.029375000000000047,0.061666666666666585],[-0.035520833333333356,0.1418518518518519],[-0.035520833333333356,0.1418518518518519],[0.03270833333333331,0.2064814814814815],[0.03270833333333331,0.2064814814814815],[0.05385416666666672,0.30574074074074076],[0.05385416666666672,0.30574074074074076],[0.19166666666666668,0.3218518518518518],[0.23645833333333333,0.33833333333333343],[0.23645833333333333,0.33833333333333343],[0.2660416666666668,0.31074074074074065],[0.2660416666666668,0.31074074074074065],[0.3529166666666666,0.1772222222222223],[0.42510416666666656,0.049629629629629544],[0.49729166666666674,-0.07796296296296301],[0.5432291666666667,-0.10648148148148148],[0.5070833333333333,-0.15037037037037035],[0.4184375000000001,-0.13277777777777774],[0.37687499999999996,-0.14981481481481476],[0.3742708333333333,-0.20999999999999996],[0.3837500000000001,-0.27092592592592596],[0.33177083333333335,-0.17407407407407408],[0.21979166666666666,-0.11259259259259262],[0.13354166666666673,0.0551851851851851],[0.009895833333333333,0.2168518518518519],[-0.09270833333333334,0.24537037037037038],[-0.1282291666666667,0.28888888888888886],[-0.11749999999999995,0.3362962962962963],[-0.1296875,0.37759259259259254],[-0.23791666666666664,0.4348148148148147],[-0.35989583333333336,0.5003703703703705],[-0.3436458333333333,0.3677777777777778],[-0.28322916666666664,0.26703703703703713],[-0.19562499999999997,0.006296296296296254],[-0.09812500000000005,-0.24444444444444444],[-0.08999999999999998,-0.2561111111111111],[-0.06687500000000005,-0.26740740740740737],[-0.06687500000000005,-0.26740740740740737],[-0.04885416666666664,-0.29814814814814816],[0.06114583333333338,-0.46296296296296297],[0.2621875000000001,-0.5957407407407407],[0.48802083333333335,-0.7468518518518519],[0.6099999999999999,-0.8516666666666666],[0.6337500000000001,-0.8851851851851852],[0.7061458333333335,-0.9059259259259259],[0.7751041666666666,-0.8531481481481481],[0.8936458333333335,-0.9574074074074074],[0.9606250000000001,-1.0107407407407407],[1.0245833333333332,-1.08],[1.0298958333333335,-1.001111111111111],[1.00625,-0.9398148148148148],[0.8420833333333334,-0.847037037037037],[0.7202083333333335,-0.7161111111111111],[0.7253124999999999,-0.7294444444444445],[0.6369791666666667,-0.6709259259259259],[0.5546875,-0.6318518518518518],[0.4761458333333332,-0.596111111111111],[0.5121875,-0.6201851851851852],[0.5102083333333333,-0.6118518518518518],[0.4613541666666668,-0.6127777777777778],[0.3807291666666667,-0.5983333333333334],[0.40989583333333335,-0.602037037037037],[0.4390625,-0.6057407407407408],[0.47708333333333336,-0.6153703703703703],[0.5205208333333334,-0.6027777777777777],[0.6221875,-0.6950000000000001],[0.6814583333333334,-0.7709259259259259],[0.7193749999999999,-0.8005555555555556],[0.6830208333333334,-0.7298148148148148],[0.7208333333333333,-0.6724074074074075],[0.7369791666666666,-0.6166666666666667],[0.7615624999999999,-0.5914814814814814],[0.7861458333333334,-0.5662962962962963],[0.7684375,-0.5057407407407408],[0.7377083333333334,-0.4685185185185185],[0.6215625,-0.3131481481481482],[0.5510416666666667,-0.19981481481481478],[0.4078125,-0.08740740740740739],[0.3729166666666667,-0.11481481481481481],[0.34187500000000004,-0.15851851851851856],[0.3193749999999999,-0.1661111111111111],[0.28156249999999994,-0.1935185185185185],[0.26281249999999995,-0.19500000000000003],[0.22541666666666677,-0.1383333333333333],[0.19562499999999997,-0.08055555555555556],[0.1493750000000001,-0.0868518518518518],[0.15552083333333327,-0.06944444444444445],[0.19270833333333334,-0.08851851851851854],[0.20770833333333344,-0.07833333333333335],[0.19979166666666662,-0.05537037037037033],[0.20499999999999996,-0.0668518518518519],[0.20499999999999996,-0.0668518518518519],[0.19229166666666658,0.011296296296296339],[0.1712500000000001,0.013518518518518435],[0.15520833333333334,-0.016111111111111194],[0.15052083333333333,-0.03685185185185181],[0.21437499999999995,-0.06481481481481481],[0.24885416666666677,-0.102962962962963],[0.2833333333333333,-0.1411111111111111],[0.31791666666666674,-0.1801851851851852],[0.3338541666666667,-0.20111111111111116],[0.31062500000000004,-0.20166666666666663],[0.3551041666666668,-0.24537037037037038],[0.3676041666666668,-0.23740740740740737],[0.38010416666666674,-0.2294444444444444],[0.37614583333333323,-0.23851851851851855],[0.3696875000000001,-0.2577777777777778],[0.37177083333333344,-0.28407407407407403],[0.3394791666666668,-0.27925925925925926],[0.2951041666666666,-0.26425925925925925],[0.2507291666666667,-0.2492592592592593],[0.2724999999999999,-0.27611111111111114],[0.2955208333333334,-0.32981481481481484],[0.3272916666666667,-0.3594444444444445],[0.35906250000000006,-0.3890740740740741],[0.4271874999999999,-0.41648148148148145],[0.47760416666666666,-0.4192592592592592],[0.4357291666666666,-0.4316666666666667],[0.4353125000000001,-0.44074074074074077],[0.5113541666666668,-0.4551851851851852],[0.5873958333333335,-0.4696296296296297],[0.6247916666666666,-0.5342592592592592],[0.6247916666666666,-0.5342592592592592],[0.5967708333333335,-0.46277777777777773],[0.5976041666666667,-0.42240740740740745],[0.5728125000000001,-0.3957407407407407],[0.5132291666666667,-0.3183333333333333],[0.46072916666666663,-0.2675925925925926],[0.5023958333333333,-0.22907407407407404],[0.4788541666666667,-0.1794444444444444],[0.2930208333333333,-0.14351851851851852],[0.10718750000000009,-0.10759259259259263],[0.010104166666666714,-0.017592592592592594],[-0.022187499999999954,-0.06777777777777783],[-0.07718750000000002,-0.1037037037037037],[-0.10718749999999998,-0.12074074074074072],[-0.15104166666666666,-0.1735185185185185],[-0.18177083333333333,-0.2140740740740741],[-0.2491666666666667,-0.21351851851851855],[-0.2085416666666667,-0.27148148148148155],[-0.2085416666666667,-0.27148148148148155],[-0.06427083333333337,-0.32518518518518524],[0.04541666666666669,-0.3442592592592592],[0.11802083333333328,-0.33648148148148144],[0.11802083333333328,-0.33648148148148144],[0.16677083333333323,-0.2972222222222222],[0.16677083333333323,-0.2972222222222222],[0.18916666666666657,-0.2511111111111112],[0.18916666666666657,-0.2511111111111112],[0.3146874999999999,-0.26240740740740737],[0.3146874999999999,-0.26240740740740737],[0.37218749999999995,-0.26592592592592595],[0.37218749999999995,-0.26592592592592595],[0.5289583333333333,-0.24203703703703702],[0.5289583333333333,-0.24203703703703702],[0.5608333333333334,-0.23944444444444446],[0.5472916666666667,-0.24314814814814817],[0.5677083333333334,-0.2511111111111112],[0.5665625000000001,-0.26722222222222225],[0.5942708333333333,-0.29740740740740745],[0.5591666666666666,-0.3809259259259259],[0.5567708333333333,-0.4801851851851852],[0.45072916666666674,-0.5251851851851852],[0.42916666666666664,-0.5287037037037037],[0.40604166666666663,-0.5942592592592593],[0.3381249999999999,-0.5492592592592593],[0.2631249999999999,-0.465],[0.09718749999999995,-0.352962962962963],[-0.03145833333333338,-0.2683333333333333],[-0.17979166666666668,-0.1948148148148148],[-0.26531250000000006,-0.06796296296296295],[-0.37625000000000003,0.01703703703703712],[-0.4586458333333333,0.1111111111111111],[-0.5583333333333333,0.1492592592592593],[-0.7753125,0.21796296296296305],[-0.8029166666666666,0.18611111111111112],[-0.8279166666666666,0.13425925925925927],[-0.8442708333333333,0.12407407407407407],[-0.8523958333333332,0.11018518518518519],[-0.9047916666666667,0.05611111111111103],[-0.9710416666666667,-0.007592592592592635],[-0.8407291666666666,-0.07296296296296292],[-0.7011458333333334,-0.13796296296296295],[-0.5065625,-0.2351851851851852],[-0.3264583333333333,-0.28962962962962957],[-0.16604166666666664,-0.3327777777777778],[-0.0125,-0.3592592592592593],[0.1892708333333334,-0.4516666666666666],[0.3724999999999999,-0.48814814814814816],[0.5527083333333332,-0.5018518518518519],[0.7401041666666667,-0.5257407407407407],[0.7042708333333333,-0.5062962962962962],[0.6383333333333333,-0.47000000000000003],[0.5411458333333333,-0.4703703703703704],[0.46822916666666664,-0.534074074074074],[0.3529166666666666,-0.5396296296296296],[0.24447916666666672,-0.5618518518518518],[0.20239583333333327,-0.6672222222222223],[0.15104166666666666,-0.7146296296296296],[0.06812500000000009,-0.7161111111111111],[-0.008124999999999953,-0.6977777777777778],[-0.007708333333333309,-0.7127777777777777],[-0.03125,-0.6855555555555556],[-0.06062500000000005,-0.667962962962963],[-0.08020833333333334,-0.6257407407407407],[-0.04041666666666662,-0.6762962962962963],[-0.0006250000000000236,-0.7268518518518519],[-0.05625,-0.6601851851851852],[-0.04458333333333329,-0.6635185185185185],[-0.016145833333333335,-0.6592592592592592],[0.01229166666666662,-0.655],[0.022500000000000023,-0.6646296296296296]]","[[-0.35354166666666664,0.342962962962963,0.0001999999880837322],[-0.35354166666666664,0.342962962962963,0.03550000000000608],[-0.30739583333333337,0.3116666666666666,0.04550000000000409],[-0.26322916666666674,0.27981481481481485,0.06209999999403948],[-0.15885416666666666,0.19203703703703712,0.07879999998212384],[-0.05447916666666662,0.10425925925925918,0.09550000000000125],[-0.007187499999999976,0.012222222222222264,0.11209999999404374],[0.04010416666666667,-0.07981481481481485,0.128799999982121],[0.08927083333333338,-0.10740740740740741,0.14539999997616349],[0.11885416666666657,-0.08648148148148146,0.1620999999940409],[0.16552083333333342,-0.05018518518518523,0.1786999999880834],[0.21218750000000006,-0.013888888888888888,0.19539999997616064],[0.23479166666666676,0.006666666666666709,0.21209999999404516],[0.2582291666666668,0.019259259259259216,0.22879999998212242],[0.26885416666666656,-0.018148148148148063,0.2453999999761578],[0.2696875000000001,-0.05851851851851856,0.26200000000000045],[0.29270833333333335,-0.11444444444444446,0.2787999999821196],[0.3193749999999999,-0.1698148148148148,0.29539999997616206],[0.31239583333333343,-0.26055555555555554,0.3120999999940395],[0.2985416666666666,-0.327962962962963,0.32869999998808197],[0.26229166666666665,-0.4262962962962963,0.3453999999761592],[0.23791666666666675,-0.5348148148148149,0.36209999999404374],[0.25927083333333345,-0.620925925925926,0.378799999982121],[0.28177083333333336,-0.6985185185185185,0.3955000000000055],[0.28843750000000007,-0.7301851851851852,0.41529999998212475],[0.30489583333333337,-0.758888888888889,0.42889999997616],[0.2868750000000001,-0.7705555555555555,0.44809999999404226],[0.2652083333333332,-0.7827777777777778,0.46559999999404056],[0.23104166666666662,-0.6516666666666666,0.4792999999821177],[0.19916666666666671,-0.5475925925925925,0.49549999999999983],[0.18624999999999994,-0.5142592592592592,0.5121999999880842],[0.16145833333333334,-0.47074074074074074,0.5311999999880825],[0.1703125,-0.46722222222222226,0.5473999999761574],[0.17916666666666667,-0.4637037037037037,0.5630000000000024],[0.1570833333333333,-0.43037037037037035,0.5787999999821238],[0.1349999999999999,-0.397037037037037,0.597899999976164],[0.12291666666666666,-0.34092592592592597,0.6121999999880785],[0.11083333333333342,-0.28481481481481485,0.628799999982121],[0.12364583333333339,-0.31666666666666665,0.6490999999940428],[0.15166666666666656,-0.38981481481481484,0.6637999999821247],[0.13333333333333333,-0.32611111111111113,0.67889999997616],[0.11500000000000009,-0.26240740740740737,0.6955000000000027],[0.10656249999999995,-0.21444444444444447,0.7155000000000058],[0.07625000000000005,-0.21240740740740738,0.7293999999761596],[0.08177083333333333,-0.2735185185185185,0.7457999999821183],[-0.0026041666666666665,-0.25407407407407406,0.7650000000000006],[-0.0005208333333333333,-0.2603703703703704,0.779299999982122],[0.0015625,-0.26666666666666666,0.7987999999821227],[0.0015625,-0.26666666666666666,0.8161999999880791],[-0.02635416666666662,-0.1514814814814815,0.8292999999821191],[-0.06291666666666665,-0.03185185185185194,0.846399999976164],[-0.06677083333333336,0.03722222222222227,0.8655999999940391],[-0.029375000000000047,0.061666666666666585,0.8815000000000026],[-0.029375000000000047,0.061666666666666585,0.8955000000000055],[-0.035520833333333356,0.1418518518518519,0.9122999999821246],[-0.035520833333333356,0.1418518518518519,0.9352999999821208],[0.03270833333333331,0.2064814814814815,0.9455999999940445],[0.03270833333333331,0.2064814814814815,0.9621999999880799],[0.05385416666666672,0.30574074074074076,0.9864999999999995],[0.05385416666666672,0.30574074074074076,0.9954999999999998],[0.19166666666666668,0.3218518518518518,1.0120999999940423],[0.23645833333333333,0.33833333333333343,1.0333999999761616],[0.23645833333333333,0.33833333333333343,1.045500000000004],[0.2660416666666668,0.31074074074074065,1.0620999999940395],[0.2660416666666668,0.31074074074074065,1.078699999988082],[0.3529166666666666,0.1772222222222223,1.0953999999761592],[0.42510416666666656,0.049629629629629544,1.1120999999940437],[0.49729166666666674,-0.07796296296296301,1.1286999999880791],[0.5432291666666667,-0.10648148148148148,1.1455999999940403],[0.5070833333333333,-0.15037037037037035,1.162099999994041],[0.4184375000000001,-0.13277777777777774,1.1787999999821182],[0.37687499999999996,-0.14981481481481476,1.1955000000000027],[0.3742708333333333,-0.20999999999999996,1.2120999999940452],[0.3837500000000001,-0.27092592592592596,1.2312999999821201],[0.33177083333333335,-0.17407407407407408,1.2490000000000023],[0.21979166666666666,-0.11259259259259262,1.2640999999940448],[0.13354166666666673,0.0551851851851851,1.2787999999821196],[0.009895833333333333,0.2168518518518519,1.2980999999940437],[-0.09270833333333334,0.24537037037037038,1.314699999988079],[-0.1282291666666667,0.28888888888888886,1.3291999999880844],[-0.11749999999999995,0.3362962962962963,1.3455000000000013],[-0.1296875,0.37759259259259254,1.3620999999940437],[-0.23791666666666664,0.4348148148148147,1.3786999999880791],[-0.35989583333333336,0.5003703703703705,1.3953999999761635],[-0.3436458333333333,0.3677777777777778,1.412099999994041],[-0.28322916666666664,0.26703703703703713,1.4286999999880834],[-0.19562499999999997,0.006296296296296254,1.4455000000000027],[-0.09812500000000005,-0.24444444444444444,1.4620000000000033],[-0.08999999999999998,-0.2561111111111111,1.4787999999821224],[-0.06687500000000005,-0.26740740740740737,1.5025000000000048],[-0.06687500000000005,-0.26740740740740737,1.5121999999880842],[-0.04885416666666664,-0.29814814814814816,1.5286999999880848],[0.06114583333333338,-0.46296296296296297,1.545399999976162],[0.2621875000000001,-0.5957407407407407,1.5620999999940395],[0.48802083333333335,-0.7468518518518519,1.578699999988082],[0.6099999999999999,-0.8516666666666666,1.5952999999821245],[0.6337500000000001,-0.8851851851851852,1.6120999999940437],[0.7061458333333335,-0.9059259259259259,1.6286999999880791],[0.7751041666666666,-0.8531481481481481,1.6453999999761635],[0.8936458333333335,-0.9574074074074074,1.6620000000000061],[0.9606250000000001,-1.0107407407407407,1.6787999999821182],[1.0245833333333332,-1.08,1.6953999999761606],[1.0298958333333335,-1.001111111111111,1.7120999999940452],[1.00625,-0.9398148148148148,1.7287999999821224],[0.8420833333333334,-0.847037037037037,1.7453999999761578],[0.7202083333333335,-0.7161111111111111,1.7620000000000005],[0.7253124999999999,-0.7294444444444445,1.7786999999880848],[0.6369791666666667,-0.6709259259259259,1.795399999976162],[0.5546875,-0.6318518518518518,1.8120000000000047],[0.4761458333333332,-0.596111111111111,1.8287999999821238],[0.5121875,-0.6201851851851852,1.8455000000000013],[0.5102083333333333,-0.6118518518518518,1.8620999999940437],[0.4613541666666668,-0.6127777777777778,1.878799999982121],[0.3807291666666667,-0.5983333333333334,1.8953999999761635],[0.40989583333333335,-0.602037037037037,1.912099999994041],[0.4390625,-0.6057407407407408,1.9286999999880834],[0.47708333333333336,-0.6153703703703703,1.9462999999821236],[0.5205208333333334,-0.6027777777777777,1.9620000000000033],[0.6221875,-0.6950000000000001,1.9786999999880805],[0.6814583333333334,-0.7709259259259259,1.995299999982123],[0.7193749999999999,-0.8005555555555556,2.0143999999761633],[0.6830208333333334,-0.7298148148148148,2.0288999999761614],[0.7208333333333333,-0.6724074074074075,2.0463999999761597],[0.7369791666666666,-0.6166666666666667,2.0650999999940396],[0.7615624999999999,-0.5914814814814814,2.0811999999880797],[0.7861458333333334,-0.5662962962962963,2.0955000000000013],[0.7684375,-0.5057407407407408,2.1121999999880785],[0.7377083333333334,-0.4685185185185185,2.1322999999821235],[0.6215625,-0.3131481481481482,2.1483999999761636],[0.5510416666666667,-0.19981481481481478,2.164199999988085],[0.4078125,-0.08740740740740739,2.182000000000002],[0.3729166666666667,-0.11481481481481481,2.1965000000000003],[0.34187500000000004,-0.15851851851851856,2.21219999998808],[0.3193749999999999,-0.1661111111111111,2.228999999999999],[0.28156249999999994,-0.1935185185185185,2.248299999982123],[0.26281249999999995,-0.19500000000000003,2.2636999999880842],[0.22541666666666677,-0.1383333333333333,2.2788999999761614],[0.19562499999999997,-0.08055555555555556,2.295500000000004],[0.1493750000000001,-0.0868518518518518,2.314799999982121],[0.15552083333333327,-0.06944444444444445,2.3288999999761586],[0.19270833333333334,-0.08851851851851854,2.3457999999821197],[0.20770833333333344,-0.07833333333333335,2.365599999994039],[0.19979166666666662,-0.05537037037037033,2.378799999982121],[0.20499999999999996,-0.0668518518518519,2.3962999999821193],[0.20499999999999996,-0.0668518518518519,2.412099999994041],[0.19229166666666658,0.011296296296296339,2.4317999999821183],[0.1712500000000001,0.013518518518518435,2.447500000000005],[0.15520833333333334,-0.016111111111111194,2.46219999998808],[0.15052083333333333,-0.03685185185185181,2.4786999999880805],[0.21437499999999995,-0.06481481481481481,2.495399999976158],[0.24885416666666677,-0.102962962962963,2.5120999999940423],[0.2833333333333333,-0.1411111111111111,2.528699999988085],[0.31791666666666674,-0.1801851851851852,2.545500000000004],[0.3338541666666667,-0.20111111111111116,2.5620999999940395],[0.31062500000000004,-0.20166666666666663,2.581099999994045],[0.3551041666666668,-0.24537037037037038,2.5955000000000013],[0.3676041666666668,-0.23740740740740737,2.6121999999880785],[0.38010416666666674,-0.2294444444444444,2.6315000000000026],[0.37614583333333323,-0.23851851851851855,2.647500000000001],[0.3696875000000001,-0.2577777777777778,2.6621999999880828],[0.37177083333333344,-0.28407407407407403,2.681199999988081],[0.3394791666666668,-0.27925925925925926,2.697399999976163],[0.2951041666666666,-0.26425925925925925,2.71219999998808],[0.2507291666666667,-0.2492592592592593,2.7317999999821225],[0.2724999999999999,-0.27611111111111114,2.7472999999821184],[0.2955208333333334,-0.32981481481481484,2.762199999988084],[0.3272916666666667,-0.3594444444444445,2.7787999999821196],[0.35906250000000006,-0.3890740740740741,2.798399999976162],[0.4271874999999999,-0.41648148148148145,2.812299999982123],[0.47760416666666666,-0.4192592592592592,2.8288999999761586],[0.4357291666666666,-0.4316666666666667,2.8482999999821246],[0.4353125000000001,-0.44074074074074077,2.8638999999761623],[0.5113541666666668,-0.4551851851851852,2.878899999976163],[0.5873958333333335,-0.4696296296296297,2.8955000000000055],[0.6247916666666666,-0.5342592592592592,2.9145999999940386],[0.6247916666666666,-0.5342592592592592,2.928799999982118],[0.5967708333333335,-0.46277777777777773,2.9455999999940445],[0.5976041666666667,-0.42240740740740745,2.96219999998808],[0.5728125000000001,-0.3957407407407407,2.9825000000000017],[0.5132291666666667,-0.3183333333333333,2.9962999999821207],[0.46072916666666663,-0.2675925925925926,3.012199999988084],[0.5023958333333333,-0.22907407407407404,3.0290000000000035],[0.4788541666666667,-0.1794444444444444,3.050799999982118],[0.2930208333333333,-0.14351851851851852,3.0672999999821187],[0.10718750000000009,-0.10759259259259263,3.0827999999821216],[0.010104166666666714,-0.017592592592592594,3.100899999976164],[-0.022187499999999954,-0.06777777777777783,3.1159999999999997],[-0.07718750000000002,-0.1037037037037037,3.132599999994042],[-0.10718749999999998,-0.12074074074074072,3.149799999982122],[-0.15104166666666666,-0.1735185185185185,3.16579999998212],[-0.18177083333333333,-0.2140740740740741,3.1807999999821206],[-0.2491666666666667,-0.21351851851851855,3.1952999999821188],[-0.2085416666666667,-0.27148148148148155,3.2140999999940405],[-0.2085416666666667,-0.27148148148148155,3.2286999999880805],[-0.06427083333333337,-0.32518518518518524,3.245399999976158],[0.04541666666666669,-0.3442592592592592,3.2620000000000005],[0.11802083333333328,-0.33648148148148144,3.278699999988085],[0.11802083333333328,-0.33648148148148144,3.295399999976162],[0.16677083333333323,-0.2972222222222222,3.3120999999940395],[0.16677083333333323,-0.2972222222222222,3.328699999988082],[0.18916666666666657,-0.2511111111111112,3.3453999999761592],[0.18916666666666657,-0.2511111111111112,3.362000000000002],[0.3146874999999999,-0.26240740740740737,3.378799999982121],[0.3146874999999999,-0.26240740740740737,3.3955000000000055],[0.37218749999999995,-0.26592592592592595,3.4121999999880828],[0.37218749999999995,-0.26592592592592595,3.428799999982118],[0.5289583333333333,-0.24203703703703702,3.4453999999761606],[0.5289583333333333,-0.24203703703703702,3.462099999994045],[0.5608333333333334,-0.23944444444444446,3.4786999999880805],[0.5472916666666667,-0.24314814814814817,3.4988999999761603],[0.5677083333333334,-0.2511111111111112,3.514799999982124],[0.5665625000000001,-0.26722222222222225,3.52919999998808],[0.5942708333333333,-0.29740740740740745,3.5456999999880807],[0.5591666666666666,-0.3809259259259259,3.5636999999880814],[0.5567708333333333,-0.4801851851851852,3.578699999988082],[0.45072916666666674,-0.5251851851851852,3.5953999999761592],[0.42916666666666664,-0.5287037037037037,3.612000000000002],[0.40604166666666663,-0.5942592592592593,3.628799999982121],[0.3381249999999999,-0.5492592592592593,3.645699999988082],[0.2631249999999999,-0.465,3.662000000000006],[0.09718749999999995,-0.352962962962963,3.6786999999880834],[-0.03145833333333338,-0.2683333333333333,3.6952999999821188],[-0.17979166666666668,-0.1948148148148148,3.712299999982122],[-0.26531250000000006,-0.06796296296296295,3.7286999999880805],[-0.37625000000000003,0.01703703703703712,3.7485],[-0.4586458333333333,0.1111111111111111,3.76459999999404],[-0.5583333333333333,0.1492592592592593,3.778699999988085],[-0.7753125,0.21796296296296305,3.795399999976162],[-0.8029166666666666,0.18611111111111112,3.812299999982123],[-0.8279166666666666,0.13425925925925927,3.828699999988082],[-0.8442708333333333,0.12407407407407407,3.845599999994043],[-0.8523958333333332,0.11018518518518519,3.862000000000002],[-0.9047916666666667,0.05611111111111103,3.878699999988079],[-0.9710416666666667,-0.007592592592592635,3.8952999999821216],[-0.8407291666666666,-0.07296296296296292,3.912000000000006],[-0.7011458333333334,-0.13796296296296295,3.9286999999880834],[-0.5065625,-0.2351851851851852,3.9455000000000027],[-0.3264583333333333,-0.28962962962962957,3.9633999999761613],[-0.16604166666666664,-0.3327777777777778,3.9787999999821153],[-0.0125,-0.3592592592592593,3.995399999976158],[0.1892708333333334,-0.4516666666666666,4.0120000000000005],[0.3724999999999999,-0.48814814814814816,4.028699999988078],[0.5527083333333332,-0.5018518518518519,4.045799999982123],[0.7401041666666667,-0.5257407407407407,4.061999999999998],[0.7042708333333333,-0.5062962962962962,4.078699999988075],[0.6383333333333333,-0.47000000000000003,4.095299999982117],[0.5411458333333333,-0.4703703703703704,4.112000000000009],[0.46822916666666664,-0.534074074074074,4.128699999988086],[0.3529166666666666,-0.5396296296296296,4.145499999999998],[0.24447916666666672,-0.5618518518518518,4.162000000000006],[0.20239583333333327,-0.6672222222222223,4.178699999988083],[0.15104166666666666,-0.7146296296296296,4.195299999982126],[0.06812500000000009,-0.7161111111111111,4.212000000000003],[-0.008124999999999953,-0.6977777777777778,4.2286999999880805],[-0.007708333333333309,-0.7127777777777777,4.245399999976158],[-0.03125,-0.6855555555555556,4.2620000000000005],[-0.06062500000000005,-0.667962962962963,4.278699999988078],[-0.08020833333333334,-0.6257407407407407,4.29529999998212],[-0.04041666666666662,-0.6762962962962963,4.311999999999998],[-0.0006250000000000236,-0.7268518518518519,4.328699999988075],[-0.05625,-0.6601851851851852,4.345399999976166],[-0.04458333333333329,-0.6635185185185185,4.362000000000009],[-0.016145833333333335,-0.6592592592592592,4.378599999994037],[0.01229166666666662,-0.655,4.396299999982119],[0.022500000000000023,-0.6646296296296296,4.413799999982118]]","[0.0001999999880837322,0.03550000000000608,0.04550000000000409,0.06209999999403948,0.07879999998212384,0.09550000000000125,0.11209999999404374,0.128799999982121,0.14539999997616349,0.1620999999940409,0.1786999999880834,0.19539999997616064,0.21209999999404516,0.22879999998212242,0.2453999999761578,0.26200000000000045,0.2787999999821196,0.29539999997616206,0.3120999999940395,0.32869999998808197,0.3453999999761592,0.36209999999404374,0.378799999982121,0.3955000000000055,0.41529999998212475,0.42889999997616,0.44809999999404226,0.46559999999404056,0.4792999999821177,0.49549999999999983,0.5121999999880842,0.5311999999880825,0.5473999999761574,0.5630000000000024,0.5787999999821238,0.597899999976164,0.6121999999880785,0.628799999982121,0.6490999999940428,0.6637999999821247,0.67889999997616,0.6955000000000027,0.7155000000000058,0.7293999999761596,0.7457999999821183,0.7650000000000006,0.779299999982122,0.7987999999821227,0.8161999999880791,0.8292999999821191,0.846399999976164,0.8655999999940391,0.8815000000000026,0.8955000000000055,0.9122999999821246,0.9352999999821208,0.9455999999940445,0.9621999999880799,0.9864999999999995,0.9954999999999998,1.0120999999940423,1.0333999999761616,1.045500000000004,1.0620999999940395,1.078699999988082,1.0953999999761592,1.1120999999940437,1.1286999999880791,1.1455999999940403,1.162099999994041,1.1787999999821182,1.1955000000000027,1.2120999999940452,1.2312999999821201,1.2490000000000023,1.2640999999940448,1.2787999999821196,1.2980999999940437,1.314699999988079,1.3291999999880844,1.3455000000000013,1.3620999999940437,1.3786999999880791,1.3953999999761635,1.412099999994041,1.4286999999880834,1.4455000000000027,1.4620000000000033,1.4787999999821224,1.5025000000000048,1.5121999999880842,1.5286999999880848,1.545399999976162,1.5620999999940395,1.578699999988082,1.5952999999821245,1.6120999999940437,1.6286999999880791,1.6453999999761635,1.6620000000000061,1.6787999999821182,1.6953999999761606,1.7120999999940452,1.7287999999821224,1.7453999999761578,1.7620000000000005,1.7786999999880848,1.795399999976162,1.8120000000000047,1.8287999999821238,1.8455000000000013,1.8620999999940437,1.878799999982121,1.8953999999761635,1.912099999994041,1.9286999999880834,1.9462999999821236,1.9620000000000033,1.9786999999880805,1.995299999982123,2.0143999999761633,2.0288999999761614,2.0463999999761597,2.0650999999940396,2.0811999999880797,2.0955000000000013,2.1121999999880785,2.1322999999821235,2.1483999999761636,2.164199999988085,2.182000000000002,2.1965000000000003,2.21219999998808,2.228999999999999,2.248299999982123,2.2636999999880842,2.2788999999761614,2.295500000000004,2.314799999982121,2.3288999999761586,2.3457999999821197,2.365599999994039,2.378799999982121,2.3962999999821193,2.412099999994041,2.4317999999821183,2.447500000000005,2.46219999998808,2.4786999999880805,2.495399999976158,2.5120999999940423,2.528699999988085,2.545500000000004,2.5620999999940395,2.581099999994045,2.5955000000000013,2.6121999999880785,2.6315000000000026,2.647500000000001,2.6621999999880828,2.681199999988081,2.697399999976163,2.71219999998808,2.7317999999821225,2.7472999999821184,2.762199999988084,2.7787999999821196,2.798399999976162,2.812299999982123,2.8288999999761586,2.8482999999821246,2.8638999999761623,2.878899999976163,2.8955000000000055,2.9145999999940386,2.928799999982118,2.9455999999940445,2.96219999998808,2.9825000000000017,2.9962999999821207,3.012199999988084,3.0290000000000035,3.050799999982118,3.0672999999821187,3.0827999999821216,3.100899999976164,3.1159999999999997,3.132599999994042,3.149799999982122,3.16579999998212,3.1807999999821206,3.1952999999821188,3.2140999999940405,3.2286999999880805,3.245399999976158,3.2620000000000005,3.278699999988085,3.295399999976162,3.3120999999940395,3.328699999988082,3.3453999999761592,3.362000000000002,3.378799999982121,3.3955000000000055,3.4121999999880828,3.428799999982118,3.4453999999761606,3.462099999994045,3.4786999999880805,3.4988999999761603,3.514799999982124,3.52919999998808,3.5456999999880807,3.5636999999880814,3.578699999988082,3.5953999999761592,3.612000000000002,3.628799999982121,3.645699999988082,3.662000000000006,3.6786999999880834,3.6952999999821188,3.712299999982122,3.7286999999880805,3.7485,3.76459999999404,3.778699999988085,3.795399999976162,3.812299999982123,3.828699999988082,3.845599999994043,3.862000000000002,3.878699999988079,3.8952999999821216,3.912000000000006,3.9286999999880834,3.9455000000000027,3.9633999999761613,3.9787999999821153,3.995399999976158,4.0120000000000005,4.028699999988078,4.045799999982123,4.061999999999998,4.078699999988075,4.095299999982117,4.112000000000009,4.128699999988086,4.145499999999998,4.162000000000006,4.178699999988083,4.195299999982126,4.212000000000003,4.2286999999880805,4.245399999976158,4.2620000000000005,4.278699999988078,4.29529999998212,4.311999999999998,4.328699999988075,4.345399999976166,4.362000000000009,4.378599999994037,4.396299999982119,4.413799999982118]","[1733385183172,1733385183200,1733385183210,1733385183226,1733385183243,1733385183260,1733385183276,1733385183293,1733385183310,1733385183326,1733385183343,1733385183359,1733385183376,1733385183393,1733385183410,1733385183426,1733385183443,1733385183459,1733385183476,1733385183493,1733385183510,1733385183526,1733385183543,1733385183560,1733385183579,1733385183593,1733385183612,1733385183630,1733385183643,1733385183660,1733385183676,1733385183695,1733385183711,1733385183727,1733385183743,1733385183762,1733385183776,1733385183793,1733385183813,1733385183828,1733385183843,1733385183860,1733385183880,1733385183893,1733385183910,1733385183929,1733385183943,1733385183963,1733385183980,1733385183993,1733385184010,1733385184030,1733385184046,1733385184060,1733385184076,1733385184099,1733385184110,1733385184126,1733385184151,1733385184160,1733385184176,1733385184198,1733385184210,1733385184226,1733385184243,1733385184259,1733385184276,1733385184293,1733385184310,1733385184326,1733385184343,1733385184360,1733385184376,1733385184395,1733385184413,1733385184428,1733385184443,1733385184462,1733385184479,1733385184493,1733385184510,1733385184526,1733385184543,1733385184560,1733385184576,1733385184593,1733385184610,1733385184626,1733385184643,1733385184667,1733385184676,1733385184693,1733385184709,1733385184726,1733385184743,1733385184759,1733385184776,1733385184793,1733385184809,1733385184826,1733385184843,1733385184859,1733385184876,1733385184893,1733385184909,1733385184926,1733385184943,1733385184959,1733385184976,1733385184993,1733385185010,1733385185026,1733385185043,1733385185059,1733385185076,1733385185093,1733385185110,1733385185126,1733385185143,1733385185159,1733385185178,1733385185193,1733385185211,1733385185229,1733385185245,1733385185260,1733385185276,1733385185296,1733385185313,1733385185328,1733385185346,1733385185361,1733385185376,1733385185393,1733385185412,1733385185428,1733385185443,1733385185460,1733385185479,1733385185493,1733385185510,1733385185530,1733385185543,1733385185560,1733385185576,1733385185596,1733385185612,1733385185626,1733385185643,1733385185659,1733385185676,1733385185693,1733385185710,1733385185726,1733385185745,1733385185760,1733385185776,1733385185796,1733385185812,1733385185826,1733385185845,1733385185861,1733385185876,1733385185896,1733385185911,1733385185926,1733385185943,1733385185962,1733385185976,1733385185993,1733385186012,1733385186028,1733385186043,1733385186060,1733385186079,1733385186093,1733385186110,1733385186126,1733385186147,1733385186160,1733385186176,1733385186193,1733385186215,1733385186231,1733385186247,1733385186265,1733385186280,1733385186297,1733385186314,1733385186330,1733385186345,1733385186359,1733385186378,1733385186393,1733385186410,1733385186426,1733385186443,1733385186459,1733385186476,1733385186493,1733385186510,1733385186526,1733385186543,1733385186559,1733385186576,1733385186593,1733385186609,1733385186626,1733385186643,1733385186663,1733385186679,1733385186693,1733385186710,1733385186728,1733385186743,1733385186759,1733385186776,1733385186793,1733385186810,1733385186826,1733385186843,1733385186859,1733385186876,1733385186893,1733385186913,1733385186929,1733385186943,1733385186959,1733385186976,1733385186993,1733385187010,1733385187026,1733385187043,1733385187059,1733385187076,1733385187093,1733385187110,1733385187128,1733385187143,1733385187159,1733385187176,1733385187193,1733385187210,1733385187226,1733385187243,1733385187259,1733385187276,1733385187293,1733385187310,1733385187326,1733385187343,1733385187359,1733385187376,1733385187393,1733385187409,1733385187426,1733385187443,1733385187459,1733385187476,1733385187493,1733385187510,1733385187526,1733385187543,1733385187560,1733385187578]","[[620.6,725.2],[620.6,725.2],[664.9,708.3],[707.3,691.1],[807.5,643.7],[907.7,596.3],[953.1,546.6],[998.5,496.9],[1045.7,482],[1074.1,493.3],[1118.9,512.9],[1163.7,532.5],[1185.4,543.6],[1207.9,550.4],[1218.1,530.2],[1218.9,508.4],[1241,478.2],[1266.6,448.3],[1259.9,399.3],[1246.6,362.9],[1211.8,309.8],[1188.4,251.2],[1208.9,204.7],[1230.5,162.8],[1236.9,145.7],[1252.7,130.2],[1235.4,123.9],[1214.6,117.3],[1181.8,188.1],[1151.2,244.3],[1138.8,262.3],[1115,285.8],[1123.5,287.7],[1132,289.6],[1110.8,307.6],[1089.6,325.6],[1078,355.9],[1066.4,386.2],[1078.7,369],[1105.6,329.5],[1088,363.9],[1070.4,398.3],[1062.3,424.2],[1033.2,425.3],[1038.5,392.3],[957.5,402.8],[959.5,399.4],[961.5,396],[961.5,396],[934.7,458.2],[899.6,522.8],[895.9,560.1],[931.8,573.3],[931.8,573.3],[925.9,616.6],[925.9,616.6],[991.4,651.5],[991.4,651.5],[1011.7,705.1],[1011.7,705.1],[1144,713.8],[1187,722.7],[1187,722.7],[1215.4,707.8],[1215.4,707.8],[1298.8,635.7],[1368.1,566.8],[1437.4,497.9],[1481.5,482.5],[1446.8,458.8],[1361.7,468.3],[1321.8,459.1],[1319.3,426.6],[1328.4,393.7],[1278.5,446],[1171,479.2],[1088.2,569.8],[969.5,657.1],[871,672.5],[836.9,696],[847.2,721.6],[835.5,743.9],[731.6,774.8],[614.5,810.2],[630.1,738.6],[688.1,684.2],[772.2,543.4],[865.8,408],[873.6,401.7],[895.8,395.6],[895.8,395.6],[913.1,379],[1018.7,290],[1211.7,218.3],[1428.5,136.7],[1545.6,80.1],[1568.4,62],[1637.9,50.8],[1704.1,79.3],[1817.9,23],[1882.2,-5.8],[1943.6,-43.2],[1948.7,-0.6],[1926,32.5],[1768.4,82.6],[1651.4,153.3],[1656.3,146.1],[1571.5,177.7],[1492.5,198.8],[1417.1,218.1],[1451.7,205.1],[1449.8,209.6],[1402.9,209.1],[1325.5,216.9],[1353.5,214.9],[1381.5,212.9],[1418,207.7],[1459.7,214.5],[1557.3,164.7],[1614.2,123.7],[1650.6,107.7],[1615.7,145.9],[1652,176.9],[1667.5,207],[1691.1,220.6],[1714.7,234.2],[1697.7,266.9],[1668.2,287],[1556.7,370.9],[1489,432.1],[1351.5,492.8],[1318,478],[1288.2,454.4],[1266.6,450.3],[1230.3,435.5],[1212.3,434.7],[1176.4,465.3],[1147.8,496.5],[1103.4,493.1],[1109.3,502.5],[1145,492.2],[1159.4,497.7],[1151.8,510.1],[1156.8,503.9],[1156.8,503.9],[1144.6,546.1],[1124.4,547.3],[1109,531.3],[1104.5,520.1],[1165.8,505],[1198.9,484.4],[1232,463.8],[1265.2,442.7],[1280.5,431.4],[1258.2,431.1],[1300.9,407.5],[1312.9,411.8],[1324.9,416.1],[1321.1,411.2],[1314.9,400.8],[1316.9,386.6],[1285.9,389.2],[1243.3,397.3],[1200.7,405.4],[1221.6,390.9],[1243.7,361.9],[1274.2,345.9],[1304.7,329.9],[1370.1,315.1],[1418.5,313.6],[1378.3,306.9],[1377.9,302],[1450.9,294.2],[1523.9,286.4],[1559.8,251.5],[1559.8,251.5],[1532.9,290.1],[1533.7,311.9],[1509.9,326.3],[1452.7,368.1],[1402.3,395.5],[1442.3,416.3],[1419.7,443.1],[1241.3,462.5],[1062.9,481.9],[969.7,530.5],[938.7,503.4],[885.9,484],[857.1,474.8],[815,446.3],[785.5,424.4],[720.8,424.7],[759.8,393.4],[759.8,393.4],[898.3,364.4],[1003.6,354.1],[1073.3,358.3],[1073.3,358.3],[1120.1,379.5],[1120.1,379.5],[1141.6,404.4],[1141.6,404.4],[1262.1,398.3],[1262.1,398.3],[1317.3,396.4],[1317.3,396.4],[1467.8,409.3],[1467.8,409.3],[1498.4,410.7],[1485.4,408.7],[1505,404.4],[1503.9,395.7],[1530.5,379.4],[1496.8,334.3],[1494.5,280.7],[1392.7,256.4],[1372,254.5],[1349.8,219.1],[1284.6,243.4],[1212.6,288.9],[1053.3,349.4],[929.8,395.1],[787.4,434.8],[705.3,503.3],[598.8,549.2],[519.7,600],[424,620.6],[215.7,657.7],[189.2,640.5],[165.2,612.5],[149.5,607],[141.7,599.5],[91.4,570.3],[27.8,535.9],[152.9,500.6],[286.9,465.5],[473.7,413],[646.6,383.6],[800.6,360.3],[948,346],[1141.7,296.1],[1317.6,276.4],[1490.6,269],[1670.5,256.1],[1636.1,266.6],[1572.8,286.2],[1479.5,286],[1409.5,251.6],[1298.8,248.6],[1194.7,236.6],[1154.3,179.7],[1105,154.1],[1025.4,153.3],[952.2,163.2],[952.6,155.1],[930,169.8],[901.8,179.3],[883,202.1],[921.2,174.8],[959.4,147.5],[906,183.5],[917.2,181.7],[944.5,184],[971.8,186.3],[981.6,181.1]]","[0,0.5333]","[0.5333,0.5333]","[-0.5333,-0.5333]","[-0.5333,0]","[0,-0.5333]","[0.5333,-0.5333]","[0,0]","[0.5333,0]",0,0,0,0,1,3,Monitor,11,9,9,1
,,,,,,,,,,,,,,,,,,,,23,001,2024-12-05_15h52.12.059,Attention_exp_legacy,2023.1.0,Win32,59.88023952,,,,,,,,,,[0.04375],[0.5462962962962963],[1],[0],[0],[2.1824000000059556],"[""Option1_label""]",Option1_label,2,3.1997,"[[0.07916666666666666,0.5037037037037037],[0.07916666666666666,0.5037037037037037],[0.07916666666666666,0.5037037037037037],[0.07916666666666666,0.5037037037037037],[0.07916666666666666,0.5037037037037037],[0.07916666666666666,0.5037037037037037],[0.07916666666666666,0.5037037037037037],[0.07916666666666666,0.5037037037037037],[0.07916666666666666,0.5037037037037037],[0.07916666666666666,0.5037037037037037],[0.07916666666666666,0.5037037037037037],[0.07916666666666666,0.5037037037037037],[0.07916666666666666,0.5037037037037037],[0.07916666666666666,0.5037037037037037],[0.07916666666666666,0.5037037037037037],[0.07916666666666666,0.5037037037037037],[0.07916666666666666,0.5037037037037037],[0.07916666666666666,0.5037037037037037],[0.07916666666666666,0.5037037037037037],[0.07916666666666666,0.5037037037037037],[0.07916666666666666,0.5037037037037037],[0.07916666666666666,0.5037037037037037],[0.07916666666666666,0.5037037037037037],[0.07916666666666666,0.5037037037037037],[0.07916666666666666,0.5037037037037037],[0.07916666666666666,0.5037037037037037],[0.07916666666666666,0.5037037037037037],[0.07916666666666666,0.5037037037037037],[0.07916666666666666,0.5037037037037037],[0.07916666666666666,0.5037037037037037],[0.07916666666666666,0.5037037037037037],[0.07916666666666666,0.5037037037037037],[0.07916666666666666,0.5037037037037037],[0.07916666666666666,0.5037037037037037],[0.07916666666666666,0.5037037037037037],[0.07916666666666666,0.5037037037037037],[0.07916666666666666,0.5037037037037037],[0.07916666666666666,0.5037037037037037],[0.07916666666666666,0.5037037037037037],[0.07916666666666666,0.5037037037037037],[0.07916666666666666,0.5037037037037037],[0.07916666666666666,0.5037037037037037],[0.07916666666666666,0.5037037037037037],[0.07916666666666666,0.5037037037037037],[0.07916666666666666,0.5037037037037037],[0.07916666666666666,0.5037037037037037],[0.07916666666666666,0.5037037037037037],[0.07916666666666666,0.5037037037037037],[0.07916666666666666,0.5037037037037037],[0.07916666666666666,0.5037037037037037],[0.07916666666666666,0.5037037037037037],[0.07916666666666666,0.5037037037037037],[0.07916666666666666,0.5037037037037037],[0.07916666666666666,0.5037037037037037],[0.07916666666666666,0.5037037037037037],[0.07916666666666666,0.5037037037037037],[0.07916666666666666,0.5037037037037037],[0.07916666666666666,0.5037037037037037],[0.07916666666666666,0.5037037037037037],[0.07916666666666666,0.5037037037037037],[0.07916666666666666,0.5037037037037037],[0.07916666666666666,0.5037037037037037],[0.07916666666666666,0.5037037037037037],[0.07916666666666666,0.5037037037037037],[0.07916666666666666,0.5037037037037037],[0.07916666666666666,0.5037037037037037],[0.07916666666666666,0.5037037037037037],[0.07916666666666666,0.5037037037037037],[0.07916666666666666,0.5037037037037037],[0.07916666666666666,0.5037037037037037],[0.07916666666666666,0.5037037037037037],[0.07916666666666666,0.5037037037037037],[0.07916666666666666,0.5037037037037037],[0.07916666666666666,0.5037037037037037],[0.07916666666666666,0.5037037037037037],[0.07916666666666666,0.5037037037037037],[0.07916666666666666,0.5037037037037037],[0.07916666666666666,0.5037037037037037],[0.07916666666666666,0.5037037037037037],[0.07916666666666666,0.5037037037037037],[0.07916666666666666,0.5037037037037037],[0.07916666666666666,0.5037037037037037],[0.07916666666666666,0.5037037037037037],[0.07916666666666666,0.5037037037037037],[0.07916666666666666,0.5037037037037037],[0.07916666666666666,0.5037037037037037],[0.07916666666666666,0.5037037037037037],[0.07916666666666666,0.5037037037037037],[0.07916666666666666,0.5037037037037037],[0.07916666666666666,0.5037037037037037],[0.07916666666666666,0.5037037037037037],[0.07916666666666666,0.5037037037037037],[0.07916666666666666,0.5037037037037037],[0.07916666666666666,0.5037037037037037],[0.07916666666666666,0.5037037037037037],[0.07916666666666666,0.5074074074074074],[0.075,0.512962962962963],[0.065625,0.5259259259259259],[0.058333333333333334,0.5314814814814814],[0.05520833333333333,0.5351851851851852],[0.052083333333333336,0.5388888888888889],[0.05,0.5407407407407407],[0.04895833333333333,0.5425925925925926],[0.04583333333333333,0.5444444444444444],[0.04479166666666667,0.5462962962962963],[0.04479166666666667,0.5462962962962963],[0.04375,0.5462962962962963],[0.04375,0.5462962962962963],[0.04375,0.5462962962962963],[0.04375,0.5462962962962963],[0.04375,0.5462962962962963],[0.04375,0.5462962962962963],[0.04375,0.5462962962962963],[0.04375,0.5462962962962963],[0.04375,0.5462962962962963],[0.04375,0.5462962962962963],[0.04375,0.5462962962962963],[0.04375,0.5462962962962963],[0.04375,0.5462962962962963],[0.04375,0.5462962962962963],[0.04375,0.5462962962962963],[0.04375,0.5462962962962963],[0.04375,0.5462962962962963],[0.04375,0.5462962962962963],[0.04375,0.5462962962962963],[0.04375,0.5462962962962963],[0.04375,0.5462962962962963],[0.04375,0.5462962962962963],[0.04375,0.5462962962962963],[0.04375,0.5462962962962963],[0.04375,0.5462962962962963],[0.04375,0.5462962962962963],[0.04375,0.5462962962962963],[0.04375,0.5462962962962963],[0.04375,0.5462962962962963],[0.04375,0.5462962962962963],[0.04375,0.5462962962962963],[0.04375,0.5462962962962963],[0.04375,0.5462962962962963],[0.04375,0.5462962962962963],[0.04375,0.5462962962962963],[0.04375,0.5462962962962963],[0.04375,0.5462962962962963],[0.04375,0.5462962962962963],[0.04375,0.5462962962962963],[0.04375,0.5462962962962963],[0.04375,0.5462962962962963],[0.04375,0.5462962962962963],[0.04375,0.5462962962962963],[0.04375,0.5462962962962963],[0.04375,0.5462962962962963],[0.04375,0.5462962962962963],[0.04375,0.5462962962962963],[0.04375,0.5462962962962963],[0.04375,0.5462962962962963],[0.04375,0.5462962962962963],[0.04375,0.5462962962962963],[0.04375,0.5462962962962963],[0.04375,0.5462962962962963],[0.04375,0.5462962962962963],[0.04375,0.5462962962962963],[0.04375,0.5462962962962963],[0.04375,0.5462962962962963],[0.04375,0.5462962962962963],[0.04375,0.5462962962962963],[0.04375,0.5462962962962963],[0.04375,0.5462962962962963],[0.04375,0.5462962962962963],[0.04375,0.5462962962962963],[0.04375,0.5462962962962963],[0.04375,0.5462962962962963],[0.04375,0.5462962962962963],[0.04375,0.5462962962962963],[0.04375,0.5462962962962963],[0.04375,0.5462962962962963],[0.04375,0.5462962962962963],[0.04375,0.5462962962962963],[0.04375,0.5462962962962963],[0.04375,0.5462962962962963],[0.04375,0.5462962962962963],[0.04375,0.5462962962962963],[0.04375,0.5462962962962963],[0.04375,0.5462962962962963],[0.04375,0.5462962962962963],[0.04375,0.5462962962962963],[0.04375,0.5462962962962963],[0.04375,0.5462962962962963],[0.04375,0.5462962962962963],[0.04375,0.5462962962962963],[0.04375,0.5462962962962963],[0.04375,0.5462962962962963],[0.04375,0.5462962962962963],[0.04375,0.5462962962962963]]","[[-0.13333333333333333,-0.30092592592592593],[-0.17770833333333336,-0.33259259259259266],[-0.17770833333333336,-0.33259259259259266],[-0.16499999999999998,-0.3096296296296296],[-0.18406250000000005,-0.30574074074074076],[-0.2217708333333333,-0.26370370370370366],[-0.25906250000000003,-0.25629629629629624],[-0.3102083333333333,-0.3287037037037037],[-0.3372916666666666,-0.3403703703703704],[-0.36437499999999995,-0.3520370370370371],[-0.3754166666666666,-0.37703703703703706],[-0.3389583333333333,-0.40666666666666673],[-0.2577083333333333,-0.40666666666666673],[-0.2522916666666667,-0.4625925925925926],[-0.20177083333333337,-0.5094444444444445],[-0.17708333333333334,-0.5531481481481482],[-0.13614583333333338,-0.5931481481481482],[-0.07250000000000002,-0.5548148148148149],[-0.027083333333333334,-0.5603703703703704],[0.051979166666666646,-0.5735185185185185],[0.12572916666666673,-0.6051851851851852],[0.1430208333333333,-0.5951851851851852],[0.1603125000000001,-0.5851851851851851],[0.21916666666666676,-0.6466666666666666],[0.2783333333333334,-0.7014814814814815],[0.35437500000000005,-0.695925925925926],[0.41416666666666657,-0.6940740740740741],[0.42197916666666657,-0.692037037037037],[0.4575000000000001,-0.674074074074074],[0.45625,-0.7072222222222222],[0.46031250000000007,-0.7218518518518519],[0.4609375,-0.7625925925925926],[0.4820833333333333,-0.8137037037037037],[0.4396874999999999,-0.7625925925925926],[0.39697916666666655,-0.7181481481481482],[0.3298958333333334,-0.635],[0.26281249999999995,-0.5518518518518518],[0.20479166666666657,-0.4572222222222222],[0.11906249999999995,-0.3785185185185185],[0.08093750000000005,-0.33370370370370367],[-0.00614583333333331,-0.2831481481481481],[-0.10499999999999995,-0.22148148148148153],[-0.24125000000000002,-0.14888888888888885],[-0.34395833333333337,-0.09388888888888887],[-0.4466666666666666,-0.03888888888888889],[-0.5452083333333333,-0.0940740740740741],[-0.6304166666666667,-0.1537037037037037],[-0.7159375,-0.19740740740740745],[-0.8014583333333333,-0.24111111111111108],[-0.8895833333333333,-0.2235185185185185],[-0.9269791666666667,-0.19703703703703698],[-0.9922916666666667,-0.18592592592592588],[-1.0407291666666667,-0.17537037037037034],[-1.0615625,-0.18777777777777774],[-1.0844791666666667,-0.18611111111111112],[-1.09,-0.18333333333333332],[-1.1208333333333333,-0.18481481481481485],[-1.1172916666666666,-0.21240740740740738],[-1.11375,-0.24000000000000005],[-1.11375,-0.24000000000000005],[-1.1623958333333335,-0.24648148148148152],[-1.1883333333333332,-0.23851851851851855],[-1.1795833333333334,-0.2322222222222222],[-1.16375,-0.2462962962962963],[-1.1683333333333332,-0.2492592592592593],[-1.1444791666666667,-0.27388888888888885],[-1.1088541666666667,-0.2916666666666667],[-1.0809375,-0.29740740740740745],[-1.0530208333333333,-0.3031481481481481],[-1.0273958333333333,-0.3020370370370371],[-0.9914583333333333,-0.29074074074074074],[-0.959375,-0.35555555555555557],[-0.9415625,-0.3983333333333334],[-0.8385416666666666,-0.4727777777777778],[-0.7355208333333334,-0.5472222222222223],[-0.6337499999999999,-0.5992592592592593],[-0.5359375,-0.6481481481481481],[-0.3803125,-0.6646296296296296],[-0.2530208333333333,-0.7037037037037037],[-0.12718750000000004,-0.767962962962963],[-0.004479166666666619,-0.8140740740740741],[0.09760416666666671,-0.8131481481481482],[0.21395833333333342,-0.8342592592592593],[0.21572916666666658,-0.7677777777777778],[0.2133333333333333,-0.6988888888888889],[0.18270833333333342,-0.6466666666666666],[0.1560416666666666,-0.5975925925925926],[0.11624999999999991,-0.6112962962962963],[0.10479166666666657,-0.6024074074074074],[0.1118750000000001,-0.5492592592592593],[0.10260416666666666,-0.4714814814814815],[0.1056250000000001,-0.4735185185185185],[0.11927083333333334,-0.47481481481481475],[0.14406249999999995,-0.49444444444444446],[0.16479166666666673,-0.52],[0.16916666666666677,-0.542037037037037],[0.15812499999999996,-0.5066666666666667],[0.13510416666666672,-0.4638888888888889],[0.11208333333333324,-0.42111111111111105],[0.13770833333333338,-0.517962962962963],[0.17770833333333325,-0.5285185185185185],[0.20541666666666672,-0.45925925925925926],[0.21489583333333329,-0.47259259259259256],[0.23552083333333323,-0.5031481481481481],[0.21041666666666667,-0.5477777777777778],[0.20479166666666657,-0.5940740740740741],[0.21458333333333332,-0.6977777777777778],[0.20656249999999995,-0.7566666666666667],[0.21802083333333327,-0.9035185185185185],[0.12447916666666667,-0.8833333333333333],[0.03604166666666669,-0.9922222222222221],[0.002395833333333286,-1.0877777777777777],[-0.030312500000000023,-1.124074074074074],[-0.07947916666666661,-1.122037037037037],[-0.07947916666666661,-1.122037037037037],[-0.058437500000000024,-1.156111111111111],[-0.042499999999999954,-1.1281481481481481],[-0.04479166666666667,-1.0625925925925925],[-0.011354166666666643,-1.0618518518518518],[-0.0171875,-0.9664814814814814],[0.041770833333333354,-0.9261111111111111],[0.07354166666666657,-0.8596296296296296],[0.06312500000000003,-0.7957407407407407],[0.10416666666666667,-0.741111111111111],[0.1616666666666667,-0.7248148148148148],[0.1502083333333334,-0.6990740740740741],[0.15291666666666662,-0.6944444444444444],[0.17145833333333324,-0.7175925925925926],[0.07916666666666666,-0.6966666666666667],[0.006666666666666643,-0.6824074074074075],[-0.0890625,-0.6664814814814815],[-0.08364583333333328,-0.6511111111111112],[-0.13729166666666662,-0.6587037037037037],[-0.20958333333333337,-0.6992592592592592],[-0.28187500000000004,-0.7398148148148148],[-0.28322916666666664,-0.6888888888888889],[-0.28322916666666664,-0.6888888888888889],[-0.30489583333333337,-0.6794444444444444],[-0.30489583333333337,-0.6794444444444444],[-0.31875,-0.7090740740740741],[-0.31875,-0.7090740740740741],[-0.31124999999999997,-0.6640740740740741],[-0.2560416666666666,-0.6512962962962963],[-0.2560416666666666,-0.6512962962962963],[-0.1929166666666667,-0.654074074074074],[-0.1929166666666667,-0.654074074074074],[-0.21385416666666662,-0.6911111111111111],[-0.22999999999999995,-0.7094444444444444],[-0.22999999999999995,-0.7094444444444444],[-0.2469791666666667,-0.6461111111111111],[-0.2639583333333333,-0.5827777777777777],[-0.3095833333333334,-0.5812962962962962],[-0.26114583333333335,-0.6544444444444444],[-0.26114583333333335,-0.6544444444444444],[-0.2673958333333334,-0.6414814814814814],[-0.2091666666666666,-0.7433333333333333],[-0.20666666666666664,-0.8111111111111111],[-0.20281250000000003,-0.772037037037037],[-0.18885416666666663,-0.7242592592592593],[-0.03250000000000005,-0.7887037037037037],[0.09854166666666657,-0.87],[0.16687500000000005,-0.9153703703703704],[0.25052083333333336,-0.9362962962962963],[0.24854166666666658,-0.8557407407407408],[0.29583333333333334,-0.832037037037037],[0.3078125,-0.7664814814814814],[0.37645833333333345,-0.7266666666666666],[0.46937499999999993,-0.8007407407407408],[0.5622916666666666,-0.8748148148148148],[0.4773958333333333,-0.7874074074074073],[0.39249999999999996,-0.7],[0.4322916666666667,-0.6005555555555556],[0.4671875,-0.5109259259259259],[0.4423958333333334,-0.4837037037037037],[0.4176041666666668,-0.4564814814814815],[0.4083333333333333,-0.38055555555555554],[0.3798958333333334,-0.3940740740740741],[0.2943749999999999,-0.43037037037037035],[0.20885416666666667,-0.4666666666666667],[0.19458333333333327,-0.49907407407407406],[0.1803124999999999,-0.5314814814814814],[0.07895833333333328,-0.6233333333333334],[-0.03322916666666664,-0.6809259259259259],[-0.06364583333333336,-0.7337037037037036],[-0.09406249999999995,-0.7864814814814814],[-0.12916666666666668,-0.8820370370370371],[-0.19375,-0.8642592592592593],[-0.23166666666666663,-0.7862962962962964],[-0.2695833333333333,-0.7083333333333334],[-0.296875,-0.6890740740740741],[-0.3241666666666667,-0.6698148148148148],[-0.31197916666666664,-0.6525925925925925],[-0.2889583333333333,-0.6696296296296297]]","[[-0.13333333333333333,-0.30092592592592593,0.00009999999403476068],[-0.17770833333333336,-0.33259259259259266,0.01659999999404249],[-0.17770833333333336,-0.33259259259259266,0.03300000000000125],[-0.16499999999999998,-0.3096296296296296,0.04959999999404374],[-0.18406250000000005,-0.30574074074074076,0.06909999999403738],[-0.2217708333333333,-0.26370370370370366,0.08299999999999841],[-0.25906250000000003,-0.25629629629629624,0.09979999998212463],[-0.3102083333333333,-0.3287037037037037,0.11629999998211815],[-0.3372916666666666,-0.3403703703703704,0.13299999999999557],[-0.36437499999999995,-0.3520370370370371,0.1497999999821218],[-0.3754166666666666,-0.37703703703703706,0.1662999999821153],[-0.3389583333333333,-0.40666666666666673,0.18300000000000693],[-0.2577083333333333,-0.40666666666666673,0.1996999999880842],[-0.2522916666666667,-0.4625925925925926,0.21629999998211247],[-0.20177083333333337,-0.5094444444444445,0.2330000000000041],[-0.17708333333333334,-0.5531481481481482,0.24959999999404658],[-0.13614583333333338,-0.5931481481481482,0.2663999999761586],[-0.07250000000000002,-0.5548148148148149,0.28300000000000125],[-0.027083333333333334,-0.5603703703703704,0.29959999999404374],[0.051979166666666646,-0.5735185185185185,0.31639999997615575],[0.12572916666666673,-0.6051851851851852,0.3329999999999984],[0.1430208333333333,-0.5951851851851852,0.3495999999940409],[0.1603125000000001,-0.5851851851851851,0.36629999998211815],[0.21916666666666676,-0.6466666666666666,0.38299999999999557],[0.2783333333333334,-0.7014814814814815,0.3996999999880728],[0.35437500000000005,-0.695925925925926,0.41800000000000637],[0.41416666666666657,-0.6940740740740741,0.4330999999940417],[0.42197916666666657,-0.692037037037037,0.4495999999940352],[0.4575000000000001,-0.674074074074074,0.46629999998211247],[0.45625,-0.7072222222222222,0.4830000000000041],[0.46031250000000007,-0.7218518518518519,0.49969999998808134],[0.4609375,-0.7625925925925926,0.5167999999821262],[0.4820833333333333,-0.8137037037037037,0.5330000000000013],[0.4396874999999999,-0.7625925925925926,0.5496999999880785],[0.39697916666666655,-0.7181481481481482,0.566299999982121],[0.3298958333333334,-0.635,0.5829999999999984],[0.26281249999999995,-0.5518518518518518,0.5996999999880757],[0.20479166666666657,-0.4572222222222222,0.6170999999940392],[0.11906249999999995,-0.3785185185185185,0.6361999999880794],[0.08093750000000005,-0.33370370370370367,0.6508999999761613],[-0.00614583333333331,-0.2831481481481481,0.6663999999761643],[-0.10499999999999995,-0.22148148148148153,0.6830999999940417],[-0.24125000000000002,-0.14888888888888885,0.6996999999880842],[-0.34395833333333337,-0.09388888888888887,0.7162999999821125],[-0.4466666666666666,-0.03888888888888889,0.732899999976155],[-0.5452083333333333,-0.0940740740740741,0.7496999999880813],[-0.6304166666666667,-0.1537037037037037,0.7662999999821238],[-0.7159375,-0.19740740740740745,0.7828999999761521],[-0.8014583333333333,-0.24111111111111108,0.7996999999880785],[-0.8895833333333333,-0.2235185185185185,0.8163999999761558],[-0.9269791666666667,-0.19703703703703698,0.8335999999940356],[-0.9922916666666667,-0.18592592592592588,0.8496999999880757],[-1.0407291666666667,-0.17537037037037034,0.8662999999821182],[-1.0615625,-0.18777777777777774,0.8842999999821188],[-1.0844791666666667,-0.18611111111111112,0.9000000000000057],[-1.09,-0.18333333333333332,0.9163999999761643],[-1.1208333333333333,-0.18481481481481485,0.9337999999821136],[-1.1172916666666666,-0.21240740740740738,0.9495999999940352],[-1.11375,-0.24000000000000005,0.9665999999940453],[-1.11375,-0.24000000000000005,0.9830000000000041],[-1.1623958333333335,-0.24648148148148152,0.9997999999821161],[-1.1883333333333332,-0.23851851851851855,1.0163999999761586],[-1.1795833333333334,-0.2322222222222222,1.0330000000000013],[-1.16375,-0.2462962962962963,1.0495999999940437],[-1.1683333333333332,-0.2492592592592593,1.066299999982121],[-1.1444791666666667,-0.27388888888888885,1.0829999999999984],[-1.1088541666666667,-0.2916666666666667,1.099599999994041],[-1.0809375,-0.29740740740740745,1.116500000000002],[-1.0530208333333333,-0.3031481481481481,1.1328999999761606],[-1.0273958333333333,-0.3020370370370371,1.1496999999880728],[-0.9914583333333333,-0.29074074074074074,1.1663999999761643],[-0.959375,-0.35555555555555557,1.1828999999761578],[-0.9415625,-0.3983333333333334,1.1996999999880842],[-0.8385416666666666,-0.4727777777777778,1.2164999999999964],[-0.7355208333333334,-0.5472222222222223,1.233000000000004],[-0.6337499999999999,-0.5992592592592593,1.2495999999940466],[-0.5359375,-0.6481481481481481,1.2662999999821238],[-0.3803125,-0.6646296296296296,1.2830000000000013],[-0.2530208333333333,-0.7037037037037037,1.2997999999821133],[-0.12718750000000004,-0.767962962962963,1.3163999999761558],[-0.004479166666666619,-0.8140740740740741,1.3330999999940332],[0.09760416666666671,-0.8131481481481482,1.3496999999880757],[0.21395833333333342,-0.8342592592592593,1.3662999999821182],[0.21572916666666658,-0.7677777777777778,1.3830999999940445],[0.2133333333333333,-0.6988888888888889,1.3996999999880728],[0.18270833333333342,-0.6466666666666666,1.4162999999821153],[0.1560416666666666,-0.5975925925925926,1.433000000000007],[0.11624999999999991,-0.6112962962962963,1.4495999999940352],[0.10479166666666657,-0.6024074074074074,1.4662999999821125],[0.1118750000000001,-0.5492592592592593,1.483000000000004],[0.10260416666666666,-0.4714814814814815,1.4995999999940466],[0.1056250000000001,-0.4735185185185185,1.5170999999940449],[0.11927083333333334,-0.47481481481481475,1.5330000000000013],[0.14406249999999995,-0.49444444444444446,1.5495999999940437],[0.16479166666666673,-0.52,1.566299999982121],[0.16916666666666677,-0.542037037037037,1.585599999994045],[0.15812499999999996,-0.5066666666666667,1.5996999999880757],[0.13510416666666672,-0.4638888888888889,1.6170999999940392],[0.11208333333333324,-0.42111111111111105,1.6360999999940447],[0.13770833333333338,-0.517962962962963,1.651899999976152],[0.17770833333333325,-0.5285185185185185,1.66729999998212],[0.20541666666666672,-0.45925925925925926,1.6861999999880766],[0.21489583333333329,-0.47259259259259256,1.7028999999761538],[0.23552083333333323,-0.5031481481481481,1.718199999988073],[0.21041666666666667,-0.5477777777777778,1.733000000000004],[0.20479166666666657,-0.5940740740740741,1.7495999999940466],[0.21458333333333332,-0.6977777777777778,1.7688999999761563],[0.20656249999999995,-0.7566666666666667,1.7828999999761521],[0.21802083333333327,-0.9035185185185185,1.7996999999880785],[0.12447916666666667,-0.8833333333333333,1.8165000000000049],[0.03604166666666669,-0.9922222222222221,1.8329999999999984],[0.002395833333333286,-1.0877777777777777,1.849599999994041],[-0.030312500000000023,-1.124074074074074,1.8703999999761578],[-0.07947916666666661,-1.122037037037037,1.8855000000000075],[-0.07947916666666661,-1.122037037037037,1.8996999999880728],[-0.058437500000000024,-1.156111111111111,1.9162999999821153],[-0.042499999999999954,-1.1281481481481481,1.9344999999999999],[-0.04479166666666667,-1.0625925925925925,1.9500000000000028],[-0.011354166666666643,-1.0618518518518518,1.9694999999999965],[-0.0171875,-0.9664814814814814,1.9853999999761527],[0.041770833333333354,-0.9261111111111111,2],[0.07354166666666657,-0.8596296296296296,2.0178999999761658],[0.06312500000000003,-0.7957407407407407,2.032899999976152],[0.10416666666666667,-0.741111111111111,2.0495999999940437],[0.1616666666666667,-0.7248148148148148,2.0683999999761653],[0.1502083333333334,-0.6990740740740741,2.0828999999761635],[0.15291666666666662,-0.6944444444444444,2.100199999988078],[0.17145833333333324,-0.7175925925925926,2.1198999999761554],[0.07916666666666666,-0.6966666666666667,2.1361999999880794],[0.006666666666666643,-0.6824074074074075,2.149699999988073],[-0.0890625,-0.6664814814814815,2.1662999999821153],[-0.08364583333333328,-0.6511111111111112,2.1837999999821136],[-0.13729166666666662,-0.6587037037037037,2.199699999988084],[-0.20958333333333337,-0.6992592592592592,2.2170999999940335],[-0.28187500000000004,-0.7398148148148148,2.235099999994034],[-0.28322916666666664,-0.6888888888888889,2.249799999982116],[-0.28322916666666664,-0.6888888888888889,2.266299999982124],[-0.30489583333333337,-0.6794444444444444,2.2830000000000013],[-0.30489583333333337,-0.6794444444444444,2.2996999999880785],[-0.31875,-0.7090740740740741,2.316299999982121],[-0.31875,-0.7090740740740741,2.334099999994038],[-0.31124999999999997,-0.6640740740740741,2.349599999994041],[-0.2560416666666666,-0.6512962962962963,2.372],[-0.2560416666666666,-0.6512962962962963,2.3829999999999956],[-0.1929166666666667,-0.654074074074074,2.399599999994038],[-0.1929166666666667,-0.654074074074074,2.4162999999821153],[-0.21385416666666662,-0.6911111111111111,2.433000000000007],[-0.22999999999999995,-0.7094444444444444,2.4569999999999936],[-0.22999999999999995,-0.7094444444444444,2.4662999999821125],[-0.2469791666666667,-0.6461111111111111,2.483000000000004],[-0.2639583333333333,-0.5827777777777777,2.5008999999761485],[-0.3095833333333334,-0.5812962962962962,2.5172999999821073],[-0.26114583333333335,-0.6544444444444444,2.5379999999999896],[-0.26114583333333335,-0.6544444444444444,2.5559999999999903],[-0.2673958333333334,-0.6414814814814814,2.5702999999821188],[-0.2091666666666666,-0.7433333333333333,2.585299999982105],[-0.20666666666666664,-0.8111111111111111,2.5996999999880686],[-0.20281250000000003,-0.772037037037037,2.616299999982111],[-0.18885416666666663,-0.7242592592592593,2.6329999999999885],[-0.03250000000000005,-0.7887037037037037,2.649599999994031],[0.09854166666666657,-0.87,2.666299999982108],[0.16687500000000005,-0.9153703703703704,2.683],[0.25052083333333336,-0.9362962962962963,2.699699999988077],[0.24854166666666658,-0.8557407407407408,2.7163999999761543],[0.29583333333333334,-0.832037037037037,2.732999999999997],[0.3078125,-0.7664814814814814,2.7495999999940395],[0.37645833333333345,-0.7266666666666666,2.7662999999821167],[0.46937499999999993,-0.8007407407407408,2.782999999999994],[0.5622916666666666,-0.8748148148148148,2.7996999999880714],[0.4773958333333333,-0.7874074074074073,2.816299999982114],[0.39249999999999996,-0.7,2.8328999999761564],[0.4322916666666667,-0.6005555555555556,2.8496999999880686],[0.4671875,-0.5109259259259259,2.866299999982111],[0.4423958333333334,-0.4837037037037037,2.8829999999999885],[0.4176041666666668,-0.4564814814814815,2.8996999999880657],[0.4083333333333333,-0.38055555555555554,2.916399999976157],[0.3798958333333334,-0.3940740740740741,2.9328999999761507],[0.2943749999999999,-0.43037037037037035,2.949599999994028],[0.20885416666666667,-0.4666666666666667,2.9663999999761543],[0.19458333333333327,-0.49907407407407406,2.984599999994039],[0.1803124999999999,-0.5314814814814814,3.0008999999761485],[0.07895833333333328,-0.6233333333333334,3.018399999976147],[-0.03322916666666664,-0.6809259259259259,3.032999999999994],[-0.06364583333333336,-0.7337037037037036,3.0495999999940366],[-0.09406249999999995,-0.7864814814814814,3.0663999999761486],[-0.12916666666666668,-0.8820370370370371,3.0829999999999913],[-0.19375,-0.8642592592592593,3.099599999994034],[-0.23166666666666663,-0.7862962962962964,3.116399999976146],[-0.2695833333333333,-0.7083333333333334,3.1329999999999885],[-0.296875,-0.6890740740740741,3.1496999999880657],[-0.3241666666666667,-0.6698148148148148,3.166299999982108],[-0.31197916666666664,-0.6525925925925925,3.1830999999940346],[-0.2889583333333333,-0.6696296296296297,3.199699999988077]]","[0.00009999999403476068,0.01659999999404249,0.03300000000000125,0.04959999999404374,0.06909999999403738,0.08299999999999841,0.09979999998212463,0.11629999998211815,0.13299999999999557,0.1497999999821218,0.1662999999821153,0.18300000000000693,0.1996999999880842,0.21629999998211247,0.2330000000000041,0.24959999999404658,0.2663999999761586,0.28300000000000125,0.29959999999404374,0.31639999997615575,0.3329999999999984,0.3495999999940409,0.36629999998211815,0.38299999999999557,0.3996999999880728,0.41800000000000637,0.4330999999940417,0.4495999999940352,0.46629999998211247,0.4830000000000041,0.49969999998808134,0.5167999999821262,0.5330000000000013,0.5496999999880785,0.566299999982121,0.5829999999999984,0.5996999999880757,0.6170999999940392,0.6361999999880794,0.6508999999761613,0.6663999999761643,0.6830999999940417,0.6996999999880842,0.7162999999821125,0.732899999976155,0.7496999999880813,0.7662999999821238,0.7828999999761521,0.7996999999880785,0.8163999999761558,0.8335999999940356,0.8496999999880757,0.8662999999821182,0.8842999999821188,0.9000000000000057,0.9163999999761643,0.9337999999821136,0.9495999999940352,0.9665999999940453,0.9830000000000041,0.9997999999821161,1.0163999999761586,1.0330000000000013,1.0495999999940437,1.066299999982121,1.0829999999999984,1.099599999994041,1.116500000000002,1.1328999999761606,1.1496999999880728,1.1663999999761643,1.1828999999761578,1.1996999999880842,1.2164999999999964,1.233000000000004,1.2495999999940466,1.2662999999821238,1.2830000000000013,1.2997999999821133,1.3163999999761558,1.3330999999940332,1.3496999999880757,1.3662999999821182,1.3830999999940445,1.3996999999880728,1.4162999999821153,1.433000000000007,1.4495999999940352,1.4662999999821125,1.483000000000004,1.4995999999940466,1.5170999999940449,1.5330000000000013,1.5495999999940437,1.566299999982121,1.585599999994045,1.5996999999880757,1.6170999999940392,1.6360999999940447,1.651899999976152,1.66729999998212,1.6861999999880766,1.7028999999761538,1.718199999988073,1.733000000000004,1.7495999999940466,1.7688999999761563,1.7828999999761521,1.7996999999880785,1.8165000000000049,1.8329999999999984,1.849599999994041,1.8703999999761578,1.8855000000000075,1.8996999999880728,1.9162999999821153,1.9344999999999999,1.9500000000000028,1.9694999999999965,1.9853999999761527,2,2.0178999999761658,2.032899999976152,2.0495999999940437,2.0683999999761653,2.0828999999761635,2.100199999988078,2.1198999999761554,2.1361999999880794,2.149699999988073,2.1662999999821153,2.1837999999821136,2.199699999988084,2.2170999999940335,2.235099999994034,2.249799999982116,2.266299999982124,2.2830000000000013,2.2996999999880785,2.316299999982121,2.334099999994038,2.349599999994041,2.372,2.3829999999999956,2.399599999994038,2.4162999999821153,2.433000000000007,2.4569999999999936,2.4662999999821125,2.483000000000004,2.5008999999761485,2.5172999999821073,2.5379999999999896,2.5559999999999903,2.5702999999821188,2.585299999982105,2.5996999999880686,2.616299999982111,2.6329999999999885,2.649599999994031,2.666299999982108,2.683,2.699699999988077,2.7163999999761543,2.732999999999997,2.7495999999940395,2.7662999999821167,2.782999999999994,2.7996999999880714,2.816299999982114,2.8328999999761564,2.8496999999880686,2.866299999982111,2.8829999999999885,2.8996999999880657,2.916399999976157,2.9328999999761507,2.949599999994028,2.9663999999761543,2.984599999994039,3.0008999999761485,3.018399999976147,3.032999999999994,3.0495999999940366,3.0663999999761486,3.0829999999999913,3.099599999994034,3.116399999976146,3.1329999999999885,3.1496999999880657,3.166299999982108,3.1830999999940346,3.199699999988077]","[1733385188594,1733385188610,1733385188626,1733385188643,1733385188662,1733385188676,1733385188693,1733385188709,1733385188726,1733385188743,1733385188759,1733385188776,1733385188793,1733385188809,1733385188826,1733385188843,1733385188859,1733385188876,1733385188893,1733385188910,1733385188926,1733385188943,1733385188959,1733385188976,1733385188993,1733385189011,1733385189026,1733385189043,1733385189059,1733385189076,1733385189093,1733385189110,1733385189126,1733385189143,1733385189159,1733385189176,1733385189193,1733385189210,1733385189229,1733385189244,1733385189259,1733385189276,1733385189293,1733385189309,1733385189326,1733385189343,1733385189359,1733385189376,1733385189393,1733385189409,1733385189427,1733385189443,1733385189459,1733385189477,1733385189493,1733385189509,1733385189527,1733385189543,1733385189560,1733385189576,1733385189593,1733385189609,1733385189626,1733385189643,1733385189659,1733385189676,1733385189693,1733385189710,1733385189726,1733385189743,1733385189759,1733385189776,1733385189793,1733385189809,1733385189826,1733385189843,1733385189859,1733385189876,1733385189893,1733385189909,1733385189926,1733385189943,1733385189959,1733385189976,1733385189993,1733385190009,1733385190026,1733385190043,1733385190059,1733385190076,1733385190093,1733385190110,1733385190126,1733385190143,1733385190159,1733385190179,1733385190193,1733385190210,1733385190229,1733385190245,1733385190260,1733385190279,1733385190296,1733385190311,1733385190326,1733385190343,1733385190362,1733385190376,1733385190393,1733385190410,1733385190426,1733385190443,1733385190463,1733385190479,1733385190493,1733385190509,1733385190528,1733385190543,1733385190563,1733385190578,1733385190593,1733385190611,1733385190626,1733385190643,1733385190662,1733385190676,1733385190693,1733385190713,1733385190729,1733385190743,1733385190759,1733385190777,1733385190793,1733385190810,1733385190828,1733385190843,1733385190859,1733385190876,1733385190893,1733385190909,1733385190927,1733385190943,1733385190965,1733385190976,1733385190993,1733385191009,1733385191026,1733385191050,1733385191059,1733385191076,1733385191094,1733385191110,1733385191131,1733385191149,1733385191163,1733385191178,1733385191193,1733385191209,1733385191226,1733385191243,1733385191259,1733385191276,1733385191293,1733385191309,1733385191326,1733385191343,1733385191359,1733385191376,1733385191393,1733385191409,1733385191426,1733385191443,1733385191459,1733385191476,1733385191493,1733385191509,1733385191526,1733385191543,1733385191559,1733385191578,1733385191594,1733385191612,1733385191626,1733385191643,1733385191659,1733385191676,1733385191693,1733385191710,1733385191726,1733385191743,1733385191759,1733385191776,1733385191793]","[[832,377.5],[789.4,360.4],[789.4,360.4],[801.6,372.8],[783.3,374.9],[747.1,397.6],[711.3,401.6],[662.2,362.5],[636.2,356.2],[610.2,349.9],[599.6,336.4],[634.6,320.4],[712.6,320.4],[717.8,290.2],[766.3,264.9],[790,241.3],[829.3,219.7],[890.4,240.4],[934,237.4],[1009.9,230.3],[1080.7,213.2],[1097.3,218.6],[1113.9,224],[1170.4,190.8],[1227.2,161.2],[1300.2,164.2],[1357.6,165.2],[1365.1,166.3],[1399.2,176],[1398,158.1],[1401.9,150.2],[1402.5,128.2],[1422.8,100.6],[1382.1,128.2],[1341.1,152.2],[1276.7,197.1],[1212.3,242],[1156.6,293.1],[1074.3,335.6],[1037.7,359.8],[954.1,387.1],[859.2,420.4],[728.4,459.6],[629.8,489.3],[531.2,519],[436.6,489.2],[354.8,457],[272.7,433.4],[190.6,409.8],[106,419.3],[70.1,433.6],[7.4,439.6],[-39.1,445.3],[-59.1,438.6],[-81.1,439.5],[-86.4,441],[-116,440.2],[-112.6,425.3],[-109.2,410.4],[-109.2,410.4],[-155.9,406.9],[-180.8,411.2],[-172.4,414.6],[-157.2,407],[-161.6,405.4],[-138.7,392.1],[-104.5,382.5],[-77.7,379.4],[-50.9,376.3],[-26.3,376.9],[8.2,383],[39,348],[56.1,324.9],[155,284.7],[253.9,244.5],[351.6,216.4],[445.5,190],[594.9,181.1],[717.1,160],[837.9,125.3],[955.7,100.4],[1053.7,100.9],[1165.4,89.5],[1167.1,125.4],[1164.8,162.6],[1135.4,190.8],[1109.8,217.3],[1071.6,209.9],[1060.6,214.7],[1067.4,243.4],[1058.5,285.4],[1061.4,284.3],[1074.5,283.6],[1098.3,273],[1118.2,259.2],[1122.4,247.3],[1111.8,266.4],[1089.7,289.5],[1067.6,312.6],[1092.2,260.3],[1130.6,254.6],[1157.2,292],[1166.3,284.8],[1186.1,268.3],[1162,244.2],[1156.6,219.2],[1166,163.2],[1158.3,131.4],[1169.3,52.1],[1079.5,63],[994.6,4.2],[962.3,-47.4],[930.9,-67],[883.7,-65.9],[883.7,-65.9],[903.9,-84.3],[919.2,-69.2],[917,-33.8],[949.1,-33.4],[943.5,18.1],[1000.1,39.9],[1030.6,75.8],[1020.6,110.3],[1060,139.8],[1115.2,148.6],[1104.2,162.5],[1106.8,165],[1124.6,152.5],[1036,163.8],[966.4,171.5],[874.5,180.1],[879.7,188.4],[828.2,184.3],[758.8,162.4],[689.4,140.5],[688.1,168],[688.1,168],[667.3,173.1],[667.3,173.1],[654,157.1],[654,157.1],[661.2,181.4],[714.2,188.3],[714.2,188.3],[774.8,186.8],[774.8,186.8],[754.7,166.8],[739.2,156.9],[739.2,156.9],[722.9,191.1],[706.6,225.3],[662.8,226.1],[709.3,186.6],[709.3,186.6],[703.3,193.6],[759.2,138.6],[761.6,102],[765.3,123.1],[778.7,148.9],[928.8,114.1],[1054.6,70.2],[1120.2,45.7],[1200.5,34.4],[1198.6,77.9],[1244,90.7],[1255.5,126.1],[1321.4,147.6],[1410.6,107.6],[1499.8,67.6],[1418.3,114.8],[1336.8,162],[1375,215.7],[1408.5,264.1],[1384.7,278.8],[1360.9,293.5],[1352,334.5],[1324.7,327.2],[1242.6,307.6],[1160.5,288],[1146.8,270.5],[1133.1,253],[1035.8,203.4],[928.1,172.3],[898.9,143.8],[869.7,115.3],[836,63.7],[774,73.3],[737.6,115.4],[701.2,157.5],[675,167.9],[648.8,178.3],[660.5,187.6],[682.6,178.4]]","[0,0.5333]","[0.5333,0.5333]","[-0.5333,-0.5333]","[-0.5333,0]","[0,-0.5333]","[0.5333,-0.5333]","[0,0]","[0.5333,0]",0,1,1,1,1,3,Monitor,5,5,13,7
