inst1_resp.keys,inst1_resp.rt,calibrationMouse.x,calibrationMouse.y,calibrationMouse.leftButton,calibrationMouse.midButton,calibrationMouse.rightButton,calibrationClick.x,calibrationClick.y,calibrationClick.leftButton,calibrationClick.midButton,calibrationClick.rightButton,trialsc.thisRepN,trialsc.thisTrialN,trialsc.thisN,trialsc.thisIndex,trialsc.ran,calibration_x,calibration_y,participant,session,date,expName,psychopyVersion,OS,frameRate,calibrationClick.clicked_name,ScreenRes_pixels,Camera_pixels,mouse_2.x,mouse_2.y,mouse_2.leftButton,mouse_2.midButton,mouse_2.rightButton,mouse_2.time,mouse_2.clicked_name,mouse.x,mouse.y,mouse.leftButton,mouse.midButton,mouse.rightButton,mouse.time,mouse.clicked_name,Choice,Trial,TrialDuration,MOUSE_GAZE,ET_GAZE,ET_GAZE_x_T,time,unixTime,ET_GAZE_NF,Loc_Option1_label,Loc_Option2_label,Loc_Cost_label,Loc_Qual_label,Loc_Option1_cost,Loc_Option2_cost,Loc_Option1_quality,Loc_Option2_quality,trials.thisRepN,trials.thisTrialN,trials.thisN,trials.thisIndex,trials.ran,Block,Device,cost1,qual1,cost2,qual2
space,3.0996,-0.157291667,-0.327777778,1,0,0,0.344791667,-0.322222222,1,0,0,0,0,0,15,1,0.33,-0.33,25,001,2024-11-28_14h45.00.312,Attention_exp_legacy,2023.1.0,Win32,60.24096386,,,,,,,,,,,,,,,,,,,,,,,,,,,,,,,,,,,,,,,,,,,,,
,,,,,,,0.002083333,0.67962963,1,0,0,0,1,1,13,1,0,0.67,25,001,2024-11-28_14h45.00.312,Attention_exp_legacy,2023.1.0,Win32,60.24096386,calibration_square,,,,,,,,,,,,,,,,,,,,,,,,,,,,,,,,,,,,,,,,,,,,
,,,,,,,-0.334375,0.661111111,1,0,0,0,2,2,8,1,-0.33,0.67,25,001,2024-11-28_14h45.00.312,Attention_exp_legacy,2023.1.0,Win32,60.24096386,calibration_square,,,,,,,,,,,,,,,,,,,,,,,,,,,,,,,,,,,,,,,,,,,,
,,,,,,,-0.31875,0.003703704,1,0,0,0,3,3,6,1,-0.33,0,25,001,2024-11-28_14h45.00.312,Attention_exp_legacy,2023.1.0,Win32,60.24096386,,,,,,,,,,,,,,,,,,,,,,,,,,,,,,,,,,,,,,,,,,,,,
,,,,,,,0.010416667,-0.324074074,1,0,0,0,4,4,10,1,0,-0.33,25,001,2024-11-28_14h45.00.312,Attention_exp_legacy,2023.1.0,Win32,60.24096386,,,,,,,,,,,,,,,,,,,,,,,,,,,,,,,,,,,,,,,,,,,,,
,,,,,,,0.008333333,0.331481481,1,0,0,0,5,5,12,1,0,0.33,25,001,2024-11-28_14h45.00.312,Attention_exp_legacy,2023.1.0,Win32,60.24096386,calibration_square,,,,,,,,,,,,,,,,,,,,,,,,,,,,,,,,,,,,,,,,,,,,
,,,,,,,0.327083333,0.674074074,1,0,0,0,6,6,18,1,0.33,0.67,25,001,2024-11-28_14h45.00.312,Attention_exp_legacy,2023.1.0,Win32,60.24096386,calibration_square,,,,,,,,,,,,,,,,,,,,,,,,,,,,,,,,,,,,,,,,,,,,
,,,,,,,-0.321875,-0.32962963,1,0,0,0,7,7,5,1,-0.33,-0.33,25,001,2024-11-28_14h45.00.312,Attention_exp_legacy,2023.1.0,Win32,60.24096386,calibration_square,,,,,,,,,,,,,,,,,,,,,,,,,,,,,,,,,,,,,,,,,,,,
,,,,,,,-0.667708333,-0.325925926,1,0,0,0,8,8,1,1,-0.67,-0.33,25,001,2024-11-28_14h45.00.312,Attention_exp_legacy,2023.1.0,Win32,60.24096386,calibration_square,,,,,,,,,,,,,,,,,,,,,,,,,,,,,,,,,,,,,,,,,,,,
,,,,,,,-0.672916667,0.018518519,1,0,0,0,9,9,2,1,-0.67,0,25,001,2024-11-28_14h45.00.312,Attention_exp_legacy,2023.1.0,Win32,60.24096386,,,,,,,,,,,,,,,,,,,,,,,,,,,,,,,,,,,,,,,,,,,,,
,,,,,,,-0.671875,0.335185185,1,0,0,0,10,10,3,1,-0.67,0.33,25,001,2024-11-28_14h45.00.312,Attention_exp_legacy,2023.1.0,Win32,60.24096386,calibration_square,,,,,,,,,,,,,,,,,,,,,,,,,,,,,,,,,,,,,,,,,,,,
,,,,,,,-0.676041667,-0.675925926,1,0,0,0,11,11,0,1,-0.67,-0.67,25,001,2024-11-28_14h45.00.312,Attention_exp_legacy,2023.1.0,Win32,60.24096386,calibration_square,,,,,,,,,,,,,,,,,,,,,,,,,,,,,,,,,,,,,,,,,,,,
,,,,,,,0.665625,0.664814815,1,0,0,0,12,12,19,1,0.67,0.67,25,001,2024-11-28_14h45.00.312,Attention_exp_legacy,2023.1.0,Win32,60.24096386,calibration_square,,,,,,,,,,,,,,,,,,,,,,,,,,,,,,,,,,,,,,,,,,,,
,,,,,,,0.33125,0.327777778,1,0,0,0,13,13,17,1,0.33,0.33,25,001,2024-11-28_14h45.00.312,Attention_exp_legacy,2023.1.0,Win32,60.24096386,calibration_square,,,,,,,,,,,,,,,,,,,,,,,,,,,,,,,,,,,,,,,,,,,,
,,,,,,,0.666666667,-0.685185185,1,0,0,0,14,14,20,1,0.67,-0.67,25,001,2024-11-28_14h45.00.312,Attention_exp_legacy,2023.1.0,Win32,60.24096386,,,,,,,,,,,,,,,,,,,,,,,,,,,,,,,,,,,,,,,,,,,,,
,,,,,,,-0.319791667,0.338888889,1,0,0,0,15,15,7,1,-0.33,0.33,25,001,2024-11-28_14h45.00.312,Attention_exp_legacy,2023.1.0,Win32,60.24096386,,,,,,,,,,,,,,,,,,,,,,,,,,,,,,,,,,,,,,,,,,,,,
,,,,,,,0.003125,-0.001851852,1,0,0,0,16,16,11,1,0,0,25,001,2024-11-28_14h45.00.312,Attention_exp_legacy,2023.1.0,Win32,60.24096386,calibration_square,,,,,,,,,,,,,,,,,,,,,,,,,,,,,,,,,,,,,,,,,,,,
,,,,,,,-0.002083333,-0.661111111,1,0,0,0,17,17,9,1,0,-0.67,25,001,2024-11-28_14h45.00.312,Attention_exp_legacy,2023.1.0,Win32,60.24096386,calibration_square,,,,,,,,,,,,,,,,,,,,,,,,,,,,,,,,,,,,,,,,,,,,
,,,,,,,0.321875,-0.67962963,1,0,0,0,18,18,14,1,0.33,-0.67,25,001,2024-11-28_14h45.00.312,Attention_exp_legacy,2023.1.0,Win32,60.24096386,calibration_square,,,,,,,,,,,,,,,,,,,,,,,,,,,,,,,,,,,,,,,,,,,,
,,,,,,,-0.329166667,-0.672222222,1,0,0,0,19,19,4,1,-0.33,-0.67,25,001,2024-11-28_14h45.00.312,Attention_exp_legacy,2023.1.0,Win32,60.24096386,calibration_square,,,,,,,,,,,,,,,,,,,,,,,,,,,,,,,,,,,,,,,,,,,,
,,,,,,,0.325,0.007407407,1,0,0,0,20,20,16,1,0.33,0,25,001,2024-11-28_14h45.00.312,Attention_exp_legacy,2023.1.0,Win32,60.24096386,calibration_square,,,,,,,,,,,,,,,,,,,,,,,,,,,,,,,,,,,,,,,,,,,,
,,,,,,,,,,,,,,,,,,,25,001,2024-11-28_14h45.00.312,Attention_exp_legacy,2023.1.0,Win32,60.24096386,,"[1920,1080]","[640,480]",[0.019791666666666666],[-0.5111111111111111],[1],[0],[0],[4.080800000011919],"[""StartButton""]",[0.521875],[0.48148148148148145],[1],[0],[0],[3.754699999988077],"[""Option2_label""]",Option2_label,1,4.7782,"[[0.034375,-0.17962962962962964],[0.034375,-0.17962962962962964],[0.034375,-0.17962962962962964],[0.034375,-0.17962962962962964],[0.034375,-0.17962962962962964],[0.034375,-0.17962962962962964],[0.034375,-0.17962962962962964],[0.034375,-0.17962962962962964],[0.034375,-0.17962962962962964],[0.034375,-0.17962962962962964],[0.034375,-0.17962962962962964],[0.034375,-0.17962962962962964],[0.034375,-0.17962962962962964],[0.034375,-0.17962962962962964],[0.034375,-0.17962962962962964],[0.034375,-0.17962962962962964],[0.034375,-0.17962962962962964],[0.034375,-0.17962962962962964],[0.034375,-0.17962962962962964],[0.034375,-0.17962962962962964],[0.034375,-0.17407407407407408],[0.034375,-0.16666666666666666],[0.03125,-0.15925925925925927],[0.029166666666666667,-0.1537037037037037],[0.020833333333333332,-0.14629629629629629],[0.011458333333333333,-0.1388888888888889],[-0.004166666666666667,-0.13148148148148148],[-0.022916666666666665,-0.1259259259259259],[-0.057291666666666664,-0.1111111111111111],[-0.06875,-0.10925925925925926],[-0.09479166666666666,-0.10555555555555556],[-0.12291666666666666,-0.08888888888888889],[-0.140625,-0.08518518518518518],[-0.16041666666666668,-0.07777777777777778],[-0.17708333333333334,-0.06111111111111111],[-0.18854166666666666,-0.046296296296296294],[-0.19270833333333334,-0.03888888888888889],[-0.19583333333333333,-0.025925925925925925],[-0.19583333333333333,-0.007407407407407408],[-0.19583333333333333,0.011111111111111112],[-0.19583333333333333,0.022222222222222223],[-0.1875,0.04814814814814815],[-0.17395833333333333,0.06481481481481481],[-0.16458333333333333,0.07592592592592592],[-0.14375,0.09259259259259259],[-0.1375,0.09444444444444444],[-0.134375,0.09814814814814815],[-0.134375,0.09814814814814815],[-0.134375,0.09814814814814815],[-0.134375,0.09814814814814815],[-0.13854166666666667,0.0962962962962963],[-0.15416666666666667,0.08888888888888889],[-0.18125,0.07777777777777778],[-0.21875,0.06851851851851852],[-0.2760416666666667,0.05],[-0.33541666666666664,0.03518518518518519],[-0.4041666666666667,0.012962962962962963],[-0.4583333333333333,-0.001851851851851852],[-0.49895833333333334,-0.014814814814814815],[-0.5375,-0.025925925925925925],[-0.565625,-0.037037037037037035],[-0.5854166666666667,-0.040740740740740744],[-0.5947916666666667,-0.046296296296296294],[-0.5989583333333334,-0.046296296296296294],[-0.5989583333333334,-0.046296296296296294],[-0.5989583333333334,-0.046296296296296294],[-0.5989583333333334,-0.046296296296296294],[-0.5989583333333334,-0.046296296296296294],[-0.5989583333333334,-0.046296296296296294],[-0.5989583333333334,-0.046296296296296294],[-0.5989583333333334,-0.046296296296296294],[-0.5989583333333334,-0.046296296296296294],[-0.5989583333333334,-0.046296296296296294],[-0.5989583333333334,-0.046296296296296294],[-0.596875,-0.046296296296296294],[-0.58125,-0.046296296296296294],[-0.5604166666666667,-0.04814814814814815],[-0.5291666666666667,-0.05],[-0.48020833333333335,-0.06481481481481481],[-0.42604166666666665,-0.07777777777777778],[-0.35104166666666664,-0.09444444444444444],[-0.3104166666666667,-0.10740740740740741],[-0.278125,-0.11851851851851852],[-0.2552083333333333,-0.13518518518518519],[-0.234375,-0.15],[-0.215625,-0.1648148148148148],[-0.19375,-0.17962962962962964],[-0.16666666666666666,-0.19444444444444445],[-0.1375,-0.20185185185185187],[-0.10729166666666666,-0.2111111111111111],[-0.071875,-0.21666666666666667],[-0.03125,-0.22777777777777777],[0.03333333333333333,-0.2351851851851852],[0.08020833333333334,-0.24259259259259258],[0.13125,-0.24259259259259258],[0.18020833333333333,-0.24259259259259258],[0.23541666666666666,-0.23703703703703705],[0.2791666666666667,-0.22407407407407406],[0.328125,-0.1962962962962963],[0.37395833333333334,-0.17037037037037037],[0.42291666666666666,-0.1425925925925926],[0.4666666666666667,-0.11666666666666667],[0.4947916666666667,-0.09259259259259259],[0.5177083333333333,-0.06666666666666667],[0.5447916666666667,-0.024074074074074074],[0.5541666666666667,0.001851851851851852],[0.5583333333333333,0.025925925925925925],[0.5583333333333333,0.04814814814814815],[0.5583333333333333,0.07222222222222222],[0.553125,0.08888888888888889],[0.540625,0.10740740740740741],[0.5229166666666667,0.12222222222222222],[0.4947916666666667,0.14074074074074075],[0.484375,0.14444444444444443],[0.4708333333333333,0.1537037037037037],[0.459375,0.15555555555555556],[0.44583333333333336,0.15925925925925927],[0.434375,0.16296296296296298],[0.41875,0.16296296296296298],[0.40520833333333334,0.16296296296296298],[0.39166666666666666,0.16296296296296298],[0.3802083333333333,0.16296296296296298],[0.3697916666666667,0.16296296296296298],[0.3625,0.16296296296296298],[0.35625,0.16296296296296298],[0.35208333333333336,0.16296296296296298],[0.35104166666666664,0.16296296296296298],[0.35,0.16296296296296298],[0.3489583333333333,0.16296296296296298],[0.3489583333333333,0.16296296296296298],[0.3489583333333333,0.16296296296296298],[0.34791666666666665,0.16296296296296298],[0.34791666666666665,0.16296296296296298],[0.34791666666666665,0.16296296296296298],[0.34791666666666665,0.16296296296296298],[0.34791666666666665,0.16296296296296298],[0.34791666666666665,0.16296296296296298],[0.34791666666666665,0.16296296296296298],[0.34791666666666665,0.16296296296296298],[0.34791666666666665,0.16296296296296298],[0.34791666666666665,0.16296296296296298],[0.34791666666666665,0.16296296296296298],[0.34791666666666665,0.16296296296296298],[0.3458333333333333,0.16296296296296298],[0.34479166666666666,0.16296296296296298],[0.3416666666666667,0.16111111111111112],[0.3416666666666667,0.16111111111111112],[0.3375,0.15925925925925927],[0.3333333333333333,0.1574074074074074],[0.3302083333333333,0.15555555555555556],[0.328125,0.15555555555555556],[0.32708333333333334,0.15555555555555556],[0.32708333333333334,0.15555555555555556],[0.32708333333333334,0.15555555555555556],[0.32708333333333334,0.15555555555555556],[0.32708333333333334,0.15555555555555556],[0.32708333333333334,0.15555555555555556],[0.32708333333333334,0.15555555555555556],[0.32708333333333334,0.15555555555555556],[0.32708333333333334,0.15555555555555556],[0.32708333333333334,0.15555555555555556],[0.32916666666666666,0.16296296296296298],[0.3416666666666667,0.1962962962962963],[0.36041666666666666,0.2351851851851852],[0.3958333333333333,0.3055555555555556],[0.41875,0.3388888888888889],[0.44479166666666664,0.37222222222222223],[0.4625,0.3962962962962963],[0.48125,0.4203703703703704],[0.496875,0.43703703703703706],[0.5072916666666667,0.45185185185185184],[0.5125,0.46111111111111114],[0.5177083333333333,0.4722222222222222],[0.5197916666666667,0.4759259259259259],[0.5208333333333334,0.4777777777777778],[0.521875,0.47962962962962963],[0.521875,0.47962962962962963],[0.521875,0.47962962962962963],[0.521875,0.47962962962962963],[0.521875,0.47962962962962963],[0.521875,0.47962962962962963],[0.521875,0.47962962962962963],[0.521875,0.47962962962962963],[0.521875,0.47962962962962963],[0.521875,0.47962962962962963],[0.521875,0.47962962962962963],[0.521875,0.47962962962962963],[0.521875,0.47962962962962963],[0.521875,0.47962962962962963],[0.521875,0.47962962962962963],[0.521875,0.47962962962962963],[0.521875,0.47962962962962963],[0.521875,0.47962962962962963],[0.521875,0.47962962962962963],[0.521875,0.47962962962962963],[0.521875,0.47962962962962963],[0.521875,0.47962962962962963],[0.521875,0.47962962962962963],[0.521875,0.47962962962962963],[0.521875,0.47962962962962963],[0.521875,0.47962962962962963],[0.521875,0.48148148148148145],[0.521875,0.48148148148148145],[0.521875,0.48148148148148145],[0.521875,0.48148148148148145],[0.521875,0.48148148148148145],[0.521875,0.48148148148148145],[0.521875,0.48148148148148145],[0.521875,0.48148148148148145],[0.521875,0.48148148148148145],[0.521875,0.48148148148148145],[0.521875,0.48148148148148145],[0.521875,0.48148148148148145],[0.521875,0.48148148148148145],[0.521875,0.48148148148148145],[0.521875,0.48148148148148145],[0.521875,0.48148148148148145],[0.521875,0.48148148148148145],[0.521875,0.48148148148148145],[0.521875,0.48148148148148145],[0.521875,0.48148148148148145],[0.521875,0.48148148148148145],[0.521875,0.48148148148148145],[0.521875,0.48148148148148145],[0.521875,0.48148148148148145],[0.521875,0.48148148148148145],[0.521875,0.48148148148148145],[0.521875,0.48148148148148145],[0.521875,0.48148148148148145],[0.521875,0.48148148148148145],[0.521875,0.48148148148148145],[0.521875,0.48148148148148145],[0.521875,0.48148148148148145],[0.521875,0.48148148148148145],[0.521875,0.48148148148148145],[0.521875,0.48148148148148145],[0.521875,0.48148148148148145],[0.521875,0.48148148148148145],[0.521875,0.48148148148148145],[0.521875,0.48148148148148145],[0.521875,0.48148148148148145],[0.521875,0.48148148148148145],[0.521875,0.48148148148148145],[0.521875,0.48148148148148145],[0.521875,0.48148148148148145],[0.521875,0.48148148148148145],[0.521875,0.48148148148148145],[0.521875,0.48148148148148145],[0.521875,0.48148148148148145],[0.521875,0.48148148148148145],[0.521875,0.48148148148148145],[0.521875,0.48148148148148145],[0.521875,0.48148148148148145],[0.521875,0.48148148148148145],[0.521875,0.48148148148148145],[0.521875,0.48148148148148145],[0.521875,0.48148148148148145],[0.521875,0.48148148148148145],[0.521875,0.48148148148148145],[0.521875,0.48148148148148145],[0.521875,0.48148148148148145],[0.521875,0.48148148148148145],[0.521875,0.48148148148148145],[0.521875,0.48148148148148145],[0.521875,0.48148148148148145],[0.521875,0.48148148148148145],[0.521875,0.48148148148148145],[0.521875,0.48148148148148145],[0.521875,0.48148148148148145],[0.521875,0.48148148148148145],[0.521875,0.48148148148148145],[0.521875,0.48148148148148145],[0.521875,0.48148148148148145],[0.521875,0.48148148148148145],[0.5197916666666667,0.48148148148148145],[0.51875,0.48148148148148145],[0.5166666666666667,0.48148148148148145],[0.515625,0.48148148148148145],[0.5135416666666667,0.48148148148148145],[0.5135416666666667,0.48148148148148145],[0.5135416666666667,0.48148148148148145],[0.5135416666666667,0.48148148148148145],[0.5135416666666667,0.48148148148148145],[0.5135416666666667,0.48148148148148145],[0.5135416666666667,0.48148148148148145],[0.5135416666666667,0.48148148148148145],[0.5135416666666667,0.48148148148148145]]","[[0.02833333333333338,0.05537037037037033],[0.02833333333333338,0.05537037037037033],[0.02833333333333338,0.05537037037037033],[0.014479166666666644,0.0816666666666667],[0.005729166666666666,0.1227777777777777],[-0.0012500000000000473,0.13351851851851856],[0.006979166666666714,0.14814814814814814],[0.005520833333333286,0.1479629629629629],[0.007187499999999976,0.14333333333333328],[0.00927083333333331,0.102962962962963],[0.03302083333333338,0.07907407407407416],[0.04604166666666672,0.03462962962962971],[0.03312499999999995,0.0257407407407407],[0.03937499999999995,0.007962962962962878],[0.04041666666666662,-0.03296296296296288],[0.03687499999999998,-0.032037037037036954],[0.03822916666666672,-0.024629629629629547],[0.03822916666666672,-0.042407407407407366],[0.05145833333333331,-0.0727777777777778],[0.06666666666666667,-0.0868518518518518],[0.03833333333333329,-0.07592592592592592],[0.035000000000000024,-0.03814814814814819],[0.043124999999999976,0.014814814814814815],[0.021979166666666692,0.052407407407407326],[0.022187499999999954,0.04222222222222214],[-0.03104166666666662,0.07037037037037037],[-0.03104166666666662,0.07037037037037037],[-0.07208333333333337,0.07111111111111107],[-0.1248958333333333,0.08759259259259251],[-0.1248958333333333,0.08759259259259251],[-0.17833333333333337,0.10722222222222218],[-0.2404166666666666,0.1264814814814814],[-0.2869791666666667,0.14981481481481476],[-0.3329166666666667,0.13537037037037042],[-0.3329166666666667,0.13537037037037042],[-0.3686458333333333,0.06962962962962967],[-0.3686458333333333,0.06962962962962967],[-0.3858333333333333,0.01518518518518527],[-0.3764583333333333,-0.013333333333333417],[-0.31364583333333335,-0.0801851851851852],[-0.25843750000000004,-0.10666666666666672],[-0.2241666666666667,-0.1264814814814815],[-0.18135416666666668,-0.1581481481481481],[-0.12989583333333338,-0.18944444444444447],[-0.06625000000000002,-0.24259259259259258],[-0.03927083333333338,-0.2737037037037037],[-0.022500000000000023,-0.2535185185185185],[0.003541666666666643,-0.2212962962962963],[-0.008333333333333333,-0.18629629629629635],[-0.06510416666666667,-0.11074074074074076],[-0.12364583333333339,-0.04740740740740745],[-0.1532291666666667,-0.013888888888888888],[-0.2039583333333333,0.04092592592592597],[-0.2514583333333333,0.053703703703703705],[-0.286875,0.09833333333333337],[-0.3272916666666667,0.10833333333333334],[-0.36770833333333336,0.11833333333333329],[-0.37833333333333335,0.09888888888888885],[-0.3889583333333333,0.0794444444444444],[-0.3811458333333333,0.047037037037036995],[-0.3771875,0.0007407407407406986],[-0.3554166666666667,-0.04888888888888885],[-0.3625,-0.06166666666666669],[-0.37614583333333335,-0.04611111111111107],[-0.4013541666666666,-0.05722222222222218],[-0.39375,-0.07592592592592592],[-0.3770833333333333,-0.0801851851851852],[-0.3770833333333333,-0.0801851851851852],[-0.4040625,-0.062407407407407384],[-0.4040625,-0.062407407407407384],[-0.44989583333333333,-0.057777777777777754],[-0.44989583333333333,-0.057777777777777754],[-0.4327083333333333,-0.08888888888888889],[-0.4327083333333333,-0.08888888888888889],[-0.3616666666666667,-0.09981481481481477],[-0.3616666666666667,-0.09981481481481477],[-0.35041666666666665,-0.08870370370370366],[-0.35041666666666665,-0.08870370370370366],[-0.3265625,-0.11648148148148144],[-0.3102083333333333,-0.10648148148148148],[-0.30625,-0.07370370370370373],[-0.2811458333333333,-0.04277777777777782],[-0.26510416666666664,-0.02629629629629638],[-0.2454166666666667,-0.06444444444444447],[-0.20687500000000003,-0.08944444444444447],[-0.21135416666666665,-0.044999999999999915],[-0.2835416666666667,0.03796296296296296],[-0.31,0.10962962962962972],[-0.30270833333333336,0.11722222222222214],[-0.28458333333333335,0.1007407407407407],[-0.225,0.07351851851851861],[-0.225,0.07351851851851861],[-0.22708333333333333,0.06666666666666667],[-0.25125000000000003,0.07222222222222222],[-0.25125000000000003,0.07222222222222222],[-0.22489583333333332,0.1381481481481482],[-0.16208333333333336,0.13722222222222227],[-0.10614583333333331,0.13833333333333342],[-0.035625000000000046,0.0962962962962963],[0.046875,0.05740740740740741],[0.1118750000000001,0.08462962962962971],[0.18364583333333329,0.07351851851851861],[0.21385416666666662,0.09759259259259268],[0.2867708333333333,0.10129629629629638],[0.38177083333333334,0.09259259259259259],[0.428125,0.09574074074074082],[0.428125,0.09574074074074082],[0.42822916666666655,0.15148148148148138],[0.4579166666666666,0.12518518518518523],[0.4345833333333334,0.11277777777777774],[0.3554166666666667,0.11999999999999991],[0.27625000000000005,0.12722222222222232],[0.24562499999999995,0.14388888888888898],[0.21510416666666668,0.1361111111111111],[0.17302083333333323,0.14518518518518514],[0.1712500000000001,0.12018518518518514],[0.15145833333333342,0.07833333333333325],[0.1414583333333333,0.0507407407407407],[0.12406249999999991,0.04018518518518527],[0.14479166666666668,0.0012962962962963806],[0.209375,-0.060370370370370414],[0.1805208333333333,-0.09962962962962965],[0.20239583333333327,-0.11962962962962967],[0.16937499999999991,-0.1537037037037037],[0.14572916666666677,-0.20277777777777778],[0.11614583333333334,-0.21222222222222226],[0.0990624999999999,-0.22240740740740744],[0.08520833333333329,-0.2227777777777778],[0.0625,-0.22148148148148153],[0.07645833333333343,-0.23203703703703707],[0.09041666666666662,-0.24259259259259258],[0.175,-0.2690740740740741],[0.17114583333333327,-0.27037037037037037],[0.22218749999999995,-0.25759259259259265],[0.24270833333333333,-0.21777777777777782],[0.22885416666666672,-0.18351851851851855],[0.2169791666666666,-0.1618518518518518],[0.20656249999999995,-0.1255555555555556],[0.16145833333333334,-0.09814814814814815],[0.09770833333333329,-0.04611111111111107],[0.0609375,-0.0031481481481482323],[0.04697916666666669,0.03333333333333333],[0.015416666666666618,0.054259259259259174],[0.10854166666666672,0.07962962962962963],[0.12802083333333342,0.06462962962962959],[0.19812500000000005,0.036666666666666584],[0.2771874999999999,0.05740740740740741],[0.31302083333333336,0.017407407407407365],[0.3712500000000001,-0.011111111111111112],[0.4275000000000001,-0.053148148148148125],[0.46062500000000006,-0.08722222222222227],[0.5416666666666666,-0.09685185185185187],[0.6044791666666666,-0.11425925925925924],[0.5883333333333333,-0.10944444444444448],[0.6763541666666666,-0.09129629629629632],[0.7055208333333333,-0.07166666666666664],[0.7051041666666668,-0.10722222222222218],[0.7648958333333333,-0.11296296296296296],[0.8291666666666667,-0.10629629629629625],[0.8954166666666665,-0.08611111111111111],[0.9431250000000001,-0.09962962962962965],[0.9429166666666667,-0.13759259259259263],[0.9427083333333334,-0.14370370370370375],[0.8967708333333334,-0.1764814814814815],[0.8196875000000001,-0.24166666666666667],[0.7563541666666665,-0.2735185185185185],[0.7116666666666667,-0.2862962962962963],[0.6797916666666666,-0.2881481481481482],[0.6280208333333335,-0.3183333333333333],[0.6017708333333334,-0.3124074074074074],[0.5902083333333332,-0.27166666666666667],[0.5421875,-0.2683333333333333],[0.5282291666666665,-0.2942592592592592],[0.5307291666666667,-0.28962962962962957],[0.5461458333333333,-0.2651851851851852],[0.5743750000000001,-0.26370370370370366],[0.6026041666666667,-0.26222222222222225],[0.5932291666666667,-0.2616666666666667],[0.6115624999999999,-0.2477777777777778],[0.5998958333333334,-0.23407407407407405],[0.5882291666666667,-0.22037037037037038],[0.6515625,-0.13907407407407413],[0.6080208333333333,-0.05907407407407403],[0.58875,-0.01962962962962967],[0.6034375,0.032777777777777864],[0.5752083333333334,0.06185185185185181],[0.5430208333333333,0.12685185185185185],[0.5123958333333334,0.1737037037037036],[0.48760416666666656,0.19962962962962955],[0.47239583333333335,0.18629629629629635],[0.4571875000000001,0.17296296296296293],[0.39989583333333345,0.152962962962963],[0.39989583333333345,0.152962962962963],[0.40989583333333335,0.1301851851851851],[0.3706249999999999,0.08444444444444449],[0.31916666666666677,0.06407407407407412],[0.2955208333333334,0.05259259259259255],[0.30020833333333335,-0.025],[0.3064583333333334,-0.08796296296296297],[0.3064583333333334,-0.08796296296296297],[0.2921875,-0.1022222222222222],[0.2921875,-0.1022222222222222],[0.253125,-0.06129629629629634],[0.253125,-0.06129629629629634],[0.20322916666666657,0.006481481481481481],[0.20322916666666657,0.006481481481481481],[0.14614583333333328,0.0544444444444444],[0.14614583333333328,0.0544444444444444],[0.1068749999999999,0.08351851851851856],[0.1068749999999999,0.08351851851851856],[0.0640625,0.1544444444444444],[0.0640625,0.1544444444444444],[0.04593750000000003,0.18000000000000008],[0.04593750000000003,0.18000000000000008],[0.0067708333333333336,0.2222222222222222],[-0.03812500000000003,0.306111111111111],[-0.08020833333333334,0.3787037037037037],[-0.0953125,0.452962962962963],[-0.0907291666666667,0.47537037037037044],[-0.07104166666666671,0.46111111111111114],[-0.040625,0.44314814814814807],[-0.013125000000000024,0.4351851851851852],[0.03802083333333333,0.41740740740740734],[0.05770833333333331,0.4335185185185186],[0.08677083333333328,0.4601851851851852],[0.11500000000000009,0.45500000000000007],[0.13624999999999995,0.4794444444444444],[0.12062499999999995,0.4729629629629629],[0.07479166666666662,0.4685185185185185],[0.024687500000000046,0.47388888888888886],[-0.03208333333333328,0.4646296296296296],[-0.07999999999999995,0.4735185185185186],[-0.13624999999999995,0.494074074074074],[-0.1892708333333334,0.5003703703703705],[-0.1877083333333334,0.4233333333333334],[-0.2033333333333334,0.3655555555555555],[-0.1851041666666667,0.2759259259259259],[-0.14229166666666668,0.18777777777777774],[-0.06927083333333334,0.09759259259259268],[0.030520833333333285,-0.025370370370370456],[0.13614583333333338,-0.12759259259259256],[0.24833333333333343,-0.2494444444444444],[0.3572916666666667,-0.38203703703703706],[0.4680208333333333,-0.5153703703703704],[0.5326041666666667,-0.5770370370370371],[0.5326041666666667,-0.5770370370370371],[0.6085416666666668,-0.6451851851851852],[0.6085416666666668,-0.6451851851851852],[0.6587500000000001,-0.705925925925926],[0.6998958333333334,-0.754074074074074],[0.7335416666666668,-0.7953703703703704],[0.7267708333333334,-0.7894444444444445],[0.7194791666666667,-0.7914814814814815],[0.6916666666666667,-0.7675925925925926],[0.6685416666666666,-0.720925925925926],[0.6521874999999999,-0.6816666666666668],[0.6393749999999999,-0.6344444444444445],[0.6145833333333334,-0.5796296296296296],[0.5867708333333332,-0.4883333333333333],[0.5626041666666666,-0.4383333333333333],[0.5247916666666667,-0.3942592592592592],[0.5006249999999999,-0.3646296296296296],[0.5006249999999999,-0.3646296296296296],[0.48552083333333323,-0.3181481481481482],[0.4952083333333334,-0.27166666666666667],[0.5008333333333332,-0.25407407407407406],[0.49895833333333334,-0.2577777777777778],[0.5182291666666666,-0.3042592592592593],[0.5375,-0.3507407407407407],[0.5382291666666668,-0.41444444444444445],[0.5443749999999999,-0.4494444444444444],[0.5634375000000001,-0.4787037037037037],[0.5634375000000001,-0.4787037037037037],[0.5825,-0.507962962962963],[0.5779166666666666,-0.5312962962962963],[0.5936458333333334,-0.6012962962962963],[0.5931250000000001,-0.6346296296296297],[0.6234375,-0.6905555555555555],[0.5985416666666665,-0.6696296296296297],[0.5736458333333334,-0.6487037037037037],[0.5792708333333333,-0.6496296296296297],[0.5848958333333333,-0.6505555555555556],[0.5879166666666668,-0.6431481481481481],[0.5909375,-0.6357407407407407],[0.6052083333333333,-0.6298148148148148],[0.5883333333333333,-0.5835185185185185],[0.5870833333333333,-0.5677777777777778]]","[[0.02833333333333338,0.05537037037037033,0.00019999998807662678],[0.02833333333333338,0.05537037037037033,0.03859999999404096],[0.02833333333333338,0.05537037037037033,0.04490000000595984],[0.014479166666666644,0.0816666666666667,0.06159999999403709],[0.005729166666666666,0.1227777777777777,0.08179999998211684],[-0.0012500000000000473,0.13351851851851856,0.09619999998808026],[0.006979166666666714,0.14814814814814814,0.11159999999404135],[0.005520833333333286,0.1479629629629629,0.12819999998807674],[0.007187499999999976,0.14333333333333328,0.14490000000596126],[0.00927083333333331,0.102962962962963,0.1615999999940385],[0.03302083333333338,0.07907407407407416,0.1795999999940392],[0.04604166666666672,0.03462962962962971,0.19500000000000028],[0.03312499999999995,0.0257407407407407,0.2120000000000033],[0.03937499999999995,0.007962962962962878,0.22850000000000392],[0.04041666666666662,-0.03296296296296288,0.24490000000596268],[0.03687499999999998,-0.032037037037036954,0.26159999999403993],[0.03822916666666672,-0.024629629629629547,0.2795999999940406],[0.03822916666666672,-0.042407407407407366,0.29490000000595984],[0.05145833333333331,-0.0727777777777778,0.3115999999940371],[0.06666666666666667,-0.0868518518518518,0.3285999999940401],[0.03833333333333329,-0.07592592592592592,0.3477999999821222],[0.035000000000000024,-0.03814814814814819,0.361799999982118],[0.043124999999999976,0.014814814814814815,0.37979999998211866],[0.021979166666666692,0.052407407407407326,0.3950999999940379],[0.022187499999999954,0.04222222222222214,0.41409999999404334],[-0.03104166666666662,0.07037037037037037,0.4284000000059649],[-0.03104166666666662,0.07037037037037037,0.44509999999404215],[-0.07208333333333337,0.07111111111111107,0.46519999998808004],[-0.1248958333333333,0.08759259259259251,0.4810999999940435],[-0.1248958333333333,0.08759259259259251,0.4951999999880812],[-0.17833333333333337,0.10722222222222218,0.5150000000000006],[-0.2404166666666666,0.1264814814814814,0.5315999999940431],[-0.2869791666666667,0.14981481481481476,0.5489999999999995],[-0.3329166666666667,0.13537037037037042,0.570999999999998],[-0.3329166666666667,0.13537037037037042,0.5879000000059591],[-0.3686458333333333,0.06962962962962967,0.6047999999821201],[-0.3686458333333333,0.06962962962962967,0.6116999999880832],[-0.3858333333333333,0.01518518518518527,0.6310999999940421],[-0.3764583333333333,-0.013333333333333417,0.6450999999940379],[-0.31364583333333335,-0.0801851851851852,0.6617999999821222],[-0.25843750000000004,-0.10666666666666672,0.6805000000000021],[-0.2241666666666667,-0.1264814814814815,0.6980999999940423],[-0.18135416666666668,-0.1581481481481481,0.7130999999940428],[-0.12989583333333338,-0.18944444444444447,0.7285000000000039],[-0.06625000000000002,-0.24259259259259258,0.7469999999999999],[-0.03927083333333338,-0.2737037037037037,0.7616999999880818],[-0.022500000000000023,-0.2535185185185185,0.7785000000000011],[0.003541666666666643,-0.2212962962962963,0.7949000000059598],[-0.008333333333333333,-0.18629629629629635,0.8115999999940371],[-0.06510416666666667,-0.11074074074074076,0.8282999999821214],[-0.12364583333333339,-0.04740740740740745,0.8470000000000013],[-0.1532291666666667,-0.013888888888888888,0.8616999999880832],[-0.2039583333333333,0.04092592592592597,0.8785999999940373],[-0.2514583333333333,0.053703703703703705,0.897299999982117],[-0.286875,0.09833333333333337,0.9117999999821222],[-0.3272916666666667,0.10833333333333334,0.9284000000059649],[-0.36770833333333336,0.11833333333333329,0.9470000000000027],[-0.37833333333333335,0.09888888888888885,0.9616999999880775],[-0.3889583333333333,0.0794444444444444,0.9784000000059621],[-0.3811458333333333,0.047037037037036995,0.9979999999999976],[-0.3771875,0.0007407407407406986,1.0131999999880819],[-0.3554166666666667,-0.04888888888888885,1.028500000000001],[-0.3625,-0.06166666666666669,1.0470000000000041],[-0.37614583333333335,-0.04611111111111107,1.0619000000059629],[-0.4013541666666666,-0.05722222222222218,1.0804000000059588],[-0.39375,-0.07592592592592592,1.0970999999940432],[-0.3770833333333333,-0.0801851851851852,1.1177999999821182],[-0.3770833333333333,-0.0801851851851852,1.1282999999821186],[-0.4040625,-0.062407407407407384,1.1450000000000031],[-0.4040625,-0.062407407407407384,1.1615999999940385],[-0.44989583333333333,-0.057777777777777754,1.1782999999821229],[-0.44989583333333333,-0.057777777777777754,1.1950000000000003],[-0.4327083333333333,-0.08888888888888889,1.2115999999940428],[-0.4327083333333333,-0.08888888888888889,1.22829999998212],[-0.3616666666666667,-0.09981481481481477,1.2486999999880766],[-0.3616666666666667,-0.09981481481481477,1.2617999999821166],[-0.35041666666666665,-0.08870370370370366,1.278599999994043],[-0.35041666666666665,-0.08870370370370366,1.3002999999821228],[-0.3265625,-0.11648148148148144,1.3117999999821208],[-0.3102083333333333,-0.10648148148148148,1.3284999999999982],[-0.30625,-0.07370370370370373,1.3470000000000013],[-0.2811458333333333,-0.04277777777777782,1.3616999999880832],[-0.26510416666666664,-0.02629629629629638,1.3800999999940373],[-0.2454166666666667,-0.06444444444444447,1.3950000000000031],[-0.20687500000000003,-0.08944444444444447,1.4137999999821176],[-0.21135416666666665,-0.044999999999999915,1.4284999999999997],[-0.2835416666666667,0.03796296296296296,1.4450000000000003],[-0.31,0.10962962962962972,1.4640999999940405],[-0.30270833333333336,0.11722222222222214,1.480000000000004],[-0.28458333333333335,0.1007407407407407,1.4950999999940393],[-0.225,0.07351851851851861,1.51609999999404],[-0.225,0.07351851851851861,1.528599999994043],[-0.22708333333333333,0.06666666666666667,1.5452999999821202],[-0.25125000000000003,0.07222222222222222,1.5665999999940396],[-0.25125000000000003,0.07222222222222222,1.5784000000059635],[-0.22489583333333332,0.1381481481481482,1.5950999999940407],[-0.16208333333333336,0.13722222222222227,1.6116999999880832],[-0.10614583333333331,0.13833333333333342,1.6314000000059607],[-0.035625000000000046,0.0962962962962963,1.6452999999821216],[0.046875,0.05740740740740741,1.6616999999880804],[0.1118750000000001,0.08462962962962971,1.678400000005965],[0.18364583333333329,0.07351851851851861,1.6974000000059632],[0.21385416666666662,0.09759259259259268,1.7117999999821194],[0.2867708333333333,0.10129629629629638,1.728400000005962],[0.38177083333333334,0.09259259259259259,1.7470999999940418],[0.428125,0.09574074074074082,1.7616999999880818],[0.428125,0.09574074074074082,1.778500000000001],[0.42822916666666655,0.15148148148148138,1.7950000000000017],[0.4579166666666666,0.12518518518518523,1.8137999999821162],[0.4345833333333334,0.11277777777777774,1.8284000000059635],[0.3554166666666667,0.11999999999999991,1.8450999999940407],[0.27625000000000005,0.12722222222222232,1.8642999999821228],[0.24562499999999995,0.14388888888888898,1.8804999999999978],[0.21510416666666668,0.1361111111111111,1.8950999999940379],[0.17302083333333323,0.14518518518518514,1.9136999999880828],[0.1712500000000001,0.12018518518518514,1.928400000005965],[0.15145833333333342,0.07833333333333325,1.9455999999940374],[0.1414583333333333,0.0507407407407407,1.964500000000001],[0.12406249999999991,0.04018518518518527,1.9785999999940387],[0.14479166666666668,0.0012962962962963806,1.9950999999940393],[0.209375,-0.060370370370370414,2.011699999988082],[0.1805208333333333,-0.09962962962962965,2.0310999999940407],[0.20239583333333327,-0.11962962962962967,2.04640000000596],[0.16937499999999991,-0.1537037037037037,2.061699999988079],[0.14572916666666677,-0.20277777777777778,2.08159999999404],[0.11614583333333334,-0.21222222222222226,2.0969000000059594],[0.0990624999999999,-0.22240740740740744,2.1120999999940437],[0.08520833333333329,-0.2227777777777778,2.1282999999821186],[0.0625,-0.22148148148148153,2.1480000000000032],[0.07645833333333343,-0.23203703703703707,2.1617999999821222],[0.09041666666666662,-0.24259259259259258,2.178400000005965],[0.175,-0.2690740740740741,2.1980999999940423],[0.17114583333333327,-0.27037037037037037,2.2119000000059614],[0.22218749999999995,-0.25759259259259265,2.22829999998212],[0.24270833333333333,-0.21777777777777782,2.2449000000059627],[0.22885416666666672,-0.18351851851851855,2.261499999999998],[0.2169791666666666,-0.1618518518518518,2.278299999982117],[0.20656249999999995,-0.1255555555555556,2.29490000000596],[0.16145833333333334,-0.09814814814814815,2.311599999994037],[0.09770833333333329,-0.04611111111111107,2.3281999999880796],[0.0609375,-0.0031481481481482323,2.344900000005964],[0.04697916666666669,0.03333333333333333,2.3615999999940414],[0.015416666666666618,0.054259259259259174,2.3781999999880767],[0.10854166666666672,0.07962962962962963,2.397400000005959],[0.12802083333333342,0.06462962962962959,2.411999999999999],[0.19812500000000005,0.036666666666666584,2.428400000005965],[0.2771874999999999,0.05740740740740741,2.4449000000059584],[0.31302083333333336,0.017407407407407365,2.4639999999999986],[0.3712500000000001,-0.011111111111111112,2.48090000000596],[0.4275000000000001,-0.053148148148148125,2.495199999988081],[0.46062500000000006,-0.08722222222222227,2.5155999999940377],[0.5416666666666666,-0.09685185185185187,2.531500000000001],[0.6044791666666666,-0.11425925925925924,2.5465999999940436],[0.5883333333333333,-0.10944444444444448,2.5635999999940395],[0.6763541666666666,-0.09129629629629632,2.5784999999999982],[0.7055208333333333,-0.07166666666666664,2.594900000005964],[0.7051041666666668,-0.10722222222222218,2.6115999999940414],[0.7648958333333333,-0.11296296296296296,2.6281999999880767],[0.8291666666666667,-0.10629629629629625,2.6461999999880774],[0.8954166666666665,-0.08611111111111111,2.6615999999940385],[0.9431250000000001,-0.09962962962962965,2.678299999982123],[0.9429166666666667,-0.13759259259259263,2.697299999982121],[0.9427083333333334,-0.14370370370370375,2.712400000005964],[0.8967708333333334,-0.1764814814814815,2.7285999999940387],[0.8196875000000001,-0.24166666666666667,2.7485],[0.7563541666666665,-0.2735185185185185,2.763699999988077],[0.7116666666666667,-0.2862962962962963,2.780900000005964],[0.6797916666666666,-0.2881481481481482,2.7972999999821226],[0.6280208333333335,-0.3183333333333333,2.8121999999880813],[0.6017708333333334,-0.3124074074074074,2.8284000000059635],[0.5902083333333332,-0.27166666666666667,2.8450999999940407],[0.5421875,-0.2683333333333333,2.865099999994044],[0.5282291666666665,-0.2942592592592592,2.8807999999821163],[0.5307291666666667,-0.28962962962962957,2.895000000000003],[0.5461458333333333,-0.2651851851851852,2.9146999999880805],[0.5743750000000001,-0.26370370370370366,2.9299999999999997],[0.6026041666666667,-0.26222222222222225,2.9447999999821164],[0.5932291666666667,-0.2616666666666667,2.9615999999940428],[0.6115624999999999,-0.2477777777777778,2.978400000005962],[0.5998958333333334,-0.23407407407407405,2.9947999999821207],[0.5882291666666667,-0.22037037037037038,3.011499999999998],[0.6515625,-0.13907407407407413,3.0281999999880824],[0.6080208333333333,-0.05907407407407403,3.04490000000596],[0.58875,-0.01962962962962967,3.0615000000000023],[0.6034375,0.032777777777777864,3.079500000000003],[0.5752083333333334,0.06185185185185181,3.094900000005964],[0.5430208333333333,0.12685185185185185,3.1115999999940414],[0.5123958333333334,0.1737037037037036,3.1281999999880767],[0.48760416666666656,0.19962962962962955,3.1447999999821192],[0.47239583333333335,0.18629629629629635,3.1615000000000038],[0.4571875000000001,0.17296296296296293,3.179799999982123],[0.39989583333333345,0.152962962962963,3.1949000000059584],[0.39989583333333345,0.152962962962963,3.2115999999940428],[0.40989583333333335,0.1301851851851851,3.228199999988078],[0.3706249999999999,0.08444444444444449,3.2449000000059627],[0.31916666666666677,0.06407407407407412,3.26159999999404],[0.2955208333333334,0.05259259259259255,3.2826999999880826],[0.30020833333333335,-0.025,3.2974000000059647],[0.3064583333333334,-0.08796296296296297,3.311599999994037],[0.3064583333333334,-0.08796296296296297,3.3281999999880796],[0.2921875,-0.1022222222222222,3.344900000005964],[0.2921875,-0.1022222222222222,3.3674999999999997],[0.253125,-0.06129629629629634,3.3781999999880767],[0.253125,-0.06129629629629634,3.3947999999821192],[0.20322916666666657,0.006481481481481481,3.4115000000000038],[0.20322916666666657,0.006481481481481481,3.428199999988081],[0.14614583333333328,0.0544444444444444,3.4449000000059584],[0.14614583333333328,0.0544444444444444,3.4615999999940428],[0.1068749999999999,0.08351851851851856,3.47829999998212],[0.1068749999999999,0.08351851851851856,3.4950000000000045],[0.0640625,0.1544444444444444,3.51159999999404],[0.0640625,0.1544444444444444,3.528400000005959],[0.04593750000000003,0.18000000000000008,3.5450000000000017],[0.04593750000000003,0.18000000000000008,3.561699999988079],[0.0067708333333333336,0.2222222222222222,3.5782999999821214],[-0.03812500000000003,0.306111111111111,3.594900000005964],[-0.08020833333333334,0.3787037037037037,3.6114999999999995],[-0.0953125,0.452962962962963,3.6281999999880767],[-0.0907291666666667,0.47537037037037044,3.6449000000059613],[-0.07104166666666671,0.46111111111111114,3.6615999999940385],[-0.040625,0.44314814814814807,3.678299999982123],[-0.013125000000000024,0.4351851851851852,3.6947999999821164],[0.03802083333333333,0.41740740740740734,3.711500000000001],[0.05770833333333331,0.4335185185185186,3.728199999988078],[0.08677083333333328,0.4601851851851852,3.7472999999821184],[0.11500000000000009,0.45500000000000007,3.7625999999940376],[0.13624999999999995,0.4794444444444444,3.7805000000000035],[0.12062499999999995,0.4729629629629629,3.79529999998212],[0.07479166666666662,0.4685185185185185,3.8119999999999976],[0.024687500000000046,0.47388888888888886,3.8282999999821214],[-0.03208333333333328,0.4646296296296296,3.844900000005964],[-0.07999999999999995,0.4735185185185186,3.8614999999999995],[-0.13624999999999995,0.494074074074074,3.8781999999880767],[-0.1892708333333334,0.5003703703703705,3.8949000000059613],[-0.1877083333333334,0.4233333333333334,3.9115999999940385],[-0.2033333333333334,0.3655555555555555,3.928199999988081],[-0.1851041666666667,0.2759259259259259,3.9449000000059584],[-0.14229166666666668,0.18777777777777774,3.961500000000001],[-0.06927083333333334,0.09759259259259268,3.97829999998212],[0.030520833333333285,-0.025370370370370456,3.9947999999821207],[0.13614583333333338,-0.12759259259259256,4.01159999999404],[0.24833333333333343,-0.2494444444444444,4.028199999988082],[0.3572916666666667,-0.38203703703703706,4.04490000000596],[0.4680208333333333,-0.5153703703703704,4.061599999994037],[0.5326041666666667,-0.5770370370370371,4.082999999999998],[0.5326041666666667,-0.5770370370370371,4.100500000000004],[0.6085416666666668,-0.6451851851851852,4.118400000005963],[0.6085416666666668,-0.6451851851851852,4.128199999988077],[0.6587500000000001,-0.705925925925926,4.145000000000003],[0.6998958333333334,-0.754074074074074,4.1615999999940385],[0.7335416666666668,-0.7953703703703704,4.181400000005965],[0.7267708333333334,-0.7894444444444445,4.195],[0.7194791666666667,-0.7914814814814815,4.211500000000001],[0.6916666666666667,-0.7675925925925926,4.22829999998212],[0.6685416666666666,-0.720925925925926,4.244799999982121],[0.6521874999999999,-0.6816666666666668,4.261499999999998],[0.6393749999999999,-0.6344444444444445,4.278500000000001],[0.6145833333333334,-0.5796296296296296,4.29490000000596],[0.5867708333333332,-0.4883333333333333,4.311599999994037],[0.5626041666666666,-0.4383333333333333,4.3282999999821214],[0.5247916666666667,-0.3942592592592592,4.344900000005964],[0.5006249999999999,-0.3646296296296296,4.3614999999999995],[0.5006249999999999,-0.3646296296296296,4.378199999988077],[0.48552083333333323,-0.3181481481481482,4.394799999982119],[0.4952083333333334,-0.27166666666666667,4.4115999999940385],[0.5008333333333332,-0.25407407407407406,4.428299999982123],[0.49895833333333334,-0.2577777777777778,4.444799999982116],[0.5182291666666666,-0.3042592592592593,4.461799999982119],[0.5375,-0.3507407407407407,4.479500000000002],[0.5382291666666668,-0.41444444444444445,4.494900000005963],[0.5443749999999999,-0.4494444444444444,4.51159999999404],[0.5634375000000001,-0.4787037037037037,4.531299999982117],[0.5634375000000001,-0.4787037037037037,4.545000000000002],[0.5825,-0.507962962962963,4.561599999994037],[0.5779166666666666,-0.5312962962962963,4.581499999999998],[0.5936458333333334,-0.6012962962962963,4.594999999999999],[0.5931250000000001,-0.6346296296296297,4.611699999988083],[0.6234375,-0.6905555555555555,4.631199999988077],[0.5985416666666665,-0.6696296296296297,4.64709999999404],[0.5736458333333334,-0.6487037037037037,4.6615999999940385],[0.5792708333333333,-0.6496296296296297,4.679500000000004],[0.5848958333333333,-0.6505555555555556,4.694799999982116],[0.5879166666666668,-0.6431481481481481,4.711599999994043],[0.5909375,-0.6357407407407407,4.728199999988078],[0.6052083333333333,-0.6298148148148148,4.7450000000000045],[0.5883333333333333,-0.5835185185185185,4.76159999999404],[0.5870833333333333,-0.5677777777777778,4.778199999988082]]","[0.00019999998807662678,0.03859999999404096,0.04490000000595984,0.06159999999403709,0.08179999998211684,0.09619999998808026,0.11159999999404135,0.12819999998807674,0.14490000000596126,0.1615999999940385,0.1795999999940392,0.19500000000000028,0.2120000000000033,0.22850000000000392,0.24490000000596268,0.26159999999403993,0.2795999999940406,0.29490000000595984,0.3115999999940371,0.3285999999940401,0.3477999999821222,0.361799999982118,0.37979999998211866,0.3950999999940379,0.41409999999404334,0.4284000000059649,0.44509999999404215,0.46519999998808004,0.4810999999940435,0.4951999999880812,0.5150000000000006,0.5315999999940431,0.5489999999999995,0.570999999999998,0.5879000000059591,0.6047999999821201,0.6116999999880832,0.6310999999940421,0.6450999999940379,0.6617999999821222,0.6805000000000021,0.6980999999940423,0.7130999999940428,0.7285000000000039,0.7469999999999999,0.7616999999880818,0.7785000000000011,0.7949000000059598,0.8115999999940371,0.8282999999821214,0.8470000000000013,0.8616999999880832,0.8785999999940373,0.897299999982117,0.9117999999821222,0.9284000000059649,0.9470000000000027,0.9616999999880775,0.9784000000059621,0.9979999999999976,1.0131999999880819,1.028500000000001,1.0470000000000041,1.0619000000059629,1.0804000000059588,1.0970999999940432,1.1177999999821182,1.1282999999821186,1.1450000000000031,1.1615999999940385,1.1782999999821229,1.1950000000000003,1.2115999999940428,1.22829999998212,1.2486999999880766,1.2617999999821166,1.278599999994043,1.3002999999821228,1.3117999999821208,1.3284999999999982,1.3470000000000013,1.3616999999880832,1.3800999999940373,1.3950000000000031,1.4137999999821176,1.4284999999999997,1.4450000000000003,1.4640999999940405,1.480000000000004,1.4950999999940393,1.51609999999404,1.528599999994043,1.5452999999821202,1.5665999999940396,1.5784000000059635,1.5950999999940407,1.6116999999880832,1.6314000000059607,1.6452999999821216,1.6616999999880804,1.678400000005965,1.6974000000059632,1.7117999999821194,1.728400000005962,1.7470999999940418,1.7616999999880818,1.778500000000001,1.7950000000000017,1.8137999999821162,1.8284000000059635,1.8450999999940407,1.8642999999821228,1.8804999999999978,1.8950999999940379,1.9136999999880828,1.928400000005965,1.9455999999940374,1.964500000000001,1.9785999999940387,1.9950999999940393,2.011699999988082,2.0310999999940407,2.04640000000596,2.061699999988079,2.08159999999404,2.0969000000059594,2.1120999999940437,2.1282999999821186,2.1480000000000032,2.1617999999821222,2.178400000005965,2.1980999999940423,2.2119000000059614,2.22829999998212,2.2449000000059627,2.261499999999998,2.278299999982117,2.29490000000596,2.311599999994037,2.3281999999880796,2.344900000005964,2.3615999999940414,2.3781999999880767,2.397400000005959,2.411999999999999,2.428400000005965,2.4449000000059584,2.4639999999999986,2.48090000000596,2.495199999988081,2.5155999999940377,2.531500000000001,2.5465999999940436,2.5635999999940395,2.5784999999999982,2.594900000005964,2.6115999999940414,2.6281999999880767,2.6461999999880774,2.6615999999940385,2.678299999982123,2.697299999982121,2.712400000005964,2.7285999999940387,2.7485,2.763699999988077,2.780900000005964,2.7972999999821226,2.8121999999880813,2.8284000000059635,2.8450999999940407,2.865099999994044,2.8807999999821163,2.895000000000003,2.9146999999880805,2.9299999999999997,2.9447999999821164,2.9615999999940428,2.978400000005962,2.9947999999821207,3.011499999999998,3.0281999999880824,3.04490000000596,3.0615000000000023,3.079500000000003,3.094900000005964,3.1115999999940414,3.1281999999880767,3.1447999999821192,3.1615000000000038,3.179799999982123,3.1949000000059584,3.2115999999940428,3.228199999988078,3.2449000000059627,3.26159999999404,3.2826999999880826,3.2974000000059647,3.311599999994037,3.3281999999880796,3.344900000005964,3.3674999999999997,3.3781999999880767,3.3947999999821192,3.4115000000000038,3.428199999988081,3.4449000000059584,3.4615999999940428,3.47829999998212,3.4950000000000045,3.51159999999404,3.528400000005959,3.5450000000000017,3.561699999988079,3.5782999999821214,3.594900000005964,3.6114999999999995,3.6281999999880767,3.6449000000059613,3.6615999999940385,3.678299999982123,3.6947999999821164,3.711500000000001,3.728199999988078,3.7472999999821184,3.7625999999940376,3.7805000000000035,3.79529999998212,3.8119999999999976,3.8282999999821214,3.844900000005964,3.8614999999999995,3.8781999999880767,3.8949000000059613,3.9115999999940385,3.928199999988081,3.9449000000059584,3.961500000000001,3.97829999998212,3.9947999999821207,4.01159999999404,4.028199999988082,4.04490000000596,4.061599999994037,4.082999999999998,4.100500000000004,4.118400000005963,4.128199999988077,4.145000000000003,4.1615999999940385,4.181400000005965,4.195,4.211500000000001,4.22829999998212,4.244799999982121,4.261499999999998,4.278500000000001,4.29490000000596,4.311599999994037,4.3282999999821214,4.344900000005964,4.3614999999999995,4.378199999988077,4.394799999982119,4.4115999999940385,4.428299999982123,4.444799999982116,4.461799999982119,4.479500000000002,4.494900000005963,4.51159999999404,4.531299999982117,4.545000000000002,4.561599999994037,4.581499999999998,4.594999999999999,4.611699999988083,4.631199999988077,4.64709999999404,4.6615999999940385,4.679500000000004,4.694799999982116,4.711599999994043,4.728199999988078,4.7450000000000045,4.76159999999404,4.778199999988082]","[1732776349125,1732776349156,1732776349162,1732776349179,1732776349199,1732776349213,1732776349229,1732776349245,1732776349262,1732776349279,1732776349297,1732776349312,1732776349329,1732776349345,1732776349362,1732776349379,1732776349397,1732776349412,1732776349429,1732776349446,1732776349465,1732776349479,1732776349497,1732776349512,1732776349531,1732776349545,1732776349562,1732776349582,1732776349598,1732776349612,1732776349632,1732776349649,1732776349666,1732776349688,1732776349705,1732776349722,1732776349729,1732776349748,1732776349762,1732776349779,1732776349797,1732776349815,1732776349830,1732776349846,1732776349864,1732776349879,1732776349895,1732776349912,1732776349929,1732776349945,1732776349964,1732776349979,1732776349996,1732776350014,1732776350029,1732776350045,1732776350064,1732776350079,1732776350095,1732776350115,1732776350130,1732776350145,1732776350164,1732776350179,1732776350197,1732776350214,1732776350235,1732776350245,1732776350262,1732776350279,1732776350295,1732776350312,1732776350329,1732776350345,1732776350366,1732776350379,1732776350396,1732776350417,1732776350429,1732776350446,1732776350464,1732776350479,1732776350497,1732776350512,1732776350531,1732776350545,1732776350562,1732776350581,1732776350597,1732776350612,1732776350633,1732776350646,1732776350662,1732776350684,1732776350695,1732776350712,1732776350729,1732776350748,1732776350762,1732776350779,1732776350795,1732776350814,1732776350829,1732776350845,1732776350864,1732776350879,1732776350895,1732776350912,1732776350931,1732776350945,1732776350962,1732776350981,1732776350998,1732776351012,1732776351031,1732776351046,1732776351063,1732776351082,1732776351096,1732776351112,1732776351129,1732776351148,1732776351163,1732776351179,1732776351199,1732776351214,1732776351229,1732776351245,1732776351265,1732776351279,1732776351295,1732776351315,1732776351329,1732776351345,1732776351362,1732776351379,1732776351395,1732776351412,1732776351429,1732776351445,1732776351462,1732776351479,1732776351495,1732776351514,1732776351529,1732776351545,1732776351562,1732776351581,1732776351598,1732776351612,1732776351633,1732776351649,1732776351664,1732776351681,1732776351695,1732776351712,1732776351729,1732776351745,1732776351763,1732776351779,1732776351795,1732776351814,1732776351829,1732776351846,1732776351865,1732776351881,1732776351898,1732776351914,1732776351929,1732776351945,1732776351962,1732776351982,1732776351998,1732776352012,1732776352032,1732776352047,1732776352062,1732776352079,1732776352096,1732776352112,1732776352129,1732776352145,1732776352162,1732776352179,1732776352197,1732776352212,1732776352229,1732776352245,1732776352262,1732776352279,1732776352297,1732776352312,1732776352329,1732776352345,1732776352362,1732776352379,1732776352400,1732776352414,1732776352429,1732776352445,1732776352462,1732776352485,1732776352495,1732776352512,1732776352529,1732776352545,1732776352562,1732776352579,1732776352595,1732776352612,1732776352629,1732776352645,1732776352662,1732776352679,1732776352695,1732776352712,1732776352729,1732776352745,1732776352762,1732776352779,1732776352795,1732776352812,1732776352829,1732776352845,1732776352864,1732776352880,1732776352898,1732776352912,1732776352929,1732776352945,1732776352962,1732776352979,1732776352995,1732776353012,1732776353029,1732776353045,1732776353062,1732776353079,1732776353095,1732776353112,1732776353129,1732776353145,1732776353162,1732776353179,1732776353200,1732776353218,1732776353235,1732776353245,1732776353262,1732776353279,1732776353298,1732776353312,1732776353329,1732776353345,1732776353362,1732776353379,1732776353396,1732776353412,1732776353429,1732776353445,1732776353462,1732776353479,1732776353495,1732776353512,1732776353529,1732776353545,1732776353562,1732776353579,1732776353597,1732776353612,1732776353629,1732776353648,1732776353662,1732776353679,1732776353699,1732776353712,1732776353729,1732776353748,1732776353764,1732776353779,1732776353797,1732776353812,1732776353829,1732776353845,1732776353862,1732776353879,1732776353895]","[[987.2,569.9],[987.2,569.9],[987.2,569.9],[973.9,584.1],[965.5,606.3],[958.8,612.1],[966.7,620],[965.3,619.9],[966.9,617.4],[968.9,595.6],[991.7,582.7],[1004.2,558.7],[991.8,553.9],[997.8,544.3],[998.8,522.2],[995.4,522.7],[996.7,526.7],[996.7,517.1],[1009.4,500.7],[1024,493.1],[996.8,499],[993.6,519.4],[1001.4,548],[981.1,568.3],[981.3,562.8],[930.2,578],[930.2,578],[890.8,578.4],[840.1,587.3],[840.1,587.3],[788.8,597.9],[729.2,608.3],[684.5,620.9],[640.4,613.1],[640.4,613.1],[606.1,577.6],[606.1,577.6],[589.6,548.2],[598.6,532.8],[658.9,496.7],[711.9,482.4],[744.8,471.7],[785.9,454.6],[835.3,437.7],[896.4,409],[922.3,392.2],[938.4,403.1],[963.4,420.5],[952,439.4],[897.5,480.2],[841.3,514.4],[812.9,532.5],[764.2,562.1],[718.6,569],[684.6,593.1],[645.8,598.5],[607,603.9],[596.8,593.4],[586.6,582.9],[594.1,565.4],[597.9,540.4],[618.8,513.6],[612,506.7],[598.9,515.1],[574.7,509.1],[582,499],[598,496.7],[598,496.7],[572.1,506.3],[572.1,506.3],[528.1,508.8],[528.1,508.8],[544.6,492],[544.6,492],[612.8,486.1],[612.8,486.1],[623.6,492.1],[623.6,492.1],[646.5,477.1],[662.2,482.5],[666,500.2],[690.1,516.9],[705.5,525.8],[724.4,505.2],[761.4,491.7],[757.1,515.7],[687.8,560.5],[662.4,599.2],[669.4,603.3],[686.8,594.4],[744,579.7],[744,579.7],[742,576],[718.8,579],[718.8,579],[744.1,614.6],[804.4,614.1],[858.1,614.7],[925.8,592],[1005,571],[1067.4,585.7],[1136.3,579.7],[1165.3,592.7],[1235.3,594.7],[1326.5,590],[1371,591.7],[1371,591.7],[1371.1,621.8],[1399.6,607.6],[1377.2,600.9],[1301.2,604.8],[1225.2,608.7],[1195.8,617.7],[1166.5,613.5],[1126.1,618.4],[1124.4,604.9],[1105.4,582.3],[1095.8,567.4],[1079.1,561.7],[1099,540.7],[1161,507.4],[1133.3,486.2],[1154.3,475.4],[1122.6,457],[1099.9,430.5],[1071.5,425.4],[1055.1,419.9],[1041.8,419.7],[1020,420.4],[1033.4,414.7],[1046.8,409],[1128,394.7],[1124.3,394],[1173.3,400.9],[1193,422.4],[1179.7,440.9],[1168.3,452.6],[1158.3,472.2],[1115,487],[1053.8,515.1],[1018.5,538.3],[1005.1,558],[974.8,569.3],[1064.2,583],[1082.9,574.9],[1150.2,559.8],[1226.1,571],[1260.5,549.4],[1316.4,534],[1370.4,511.3],[1402.2,492.9],[1480,487.7],[1540.3,478.3],[1524.8,480.9],[1609.3,490.7],[1637.3,501.3],[1636.9,482.1],[1694.3,479],[1756,482.6],[1819.6,493.5],[1865.4,486.2],[1865.2,465.7],[1865,462.4],[1820.9,444.7],[1746.9,409.5],[1686.1,392.3],[1643.2,385.4],[1612.6,384.4],[1562.9,368.1],[1537.7,371.3],[1526.6,393.3],[1480.5,395.1],[1467.1,381.1],[1469.5,383.6],[1484.3,396.8],[1511.4,397.6],[1538.5,398.4],[1529.5,398.7],[1547.1,406.2],[1535.9,413.6],[1524.7,421],[1585.5,464.9],[1543.7,508.1],[1525.2,529.4],[1539.3,557.7],[1512.2,573.4],[1481.3,608.5],[1451.9,633.8],[1428.1,647.8],[1413.5,640.6],[1398.9,633.4],[1343.9,622.6],[1343.9,622.6],[1353.5,610.3],[1315.8,585.6],[1266.4,574.6],[1243.7,568.4],[1248.2,526.5],[1254.2,492.5],[1254.2,492.5],[1240.5,484.8],[1240.5,484.8],[1203,506.9],[1203,506.9],[1155.1,543.5],[1155.1,543.5],[1100.3,569.4],[1100.3,569.4],[1062.6,585.1],[1062.6,585.1],[1021.5,623.4],[1021.5,623.4],[1004.1,637.2],[1004.1,637.2],[966.5,660],[923.4,705.3],[883,744.5],[868.5,784.6],[872.9,796.7],[891.8,789],[921,779.3],[947.4,775],[996.5,765.4],[1015.4,774.1],[1043.3,788.5],[1070.4,785.7],[1090.8,798.9],[1075.8,795.4],[1031.8,793],[983.7,795.9],[929.2,790.9],[883.2,795.7],[829.2,806.8],[778.3,810.2],[779.8,768.6],[764.8,737.4],[782.3,689],[823.4,641.4],[893.5,592.7],[989.3,526.3],[1090.7,471.1],[1198.4,405.3],[1303,333.7],[1409.3,261.7],[1471.3,228.4],[1471.3,228.4],[1544.2,191.6],[1544.2,191.6],[1592.4,158.8],[1631.9,132.8],[1664.2,110.5],[1657.7,113.7],[1650.7,112.6],[1624,125.5],[1601.8,150.7],[1586.1,171.9],[1573.8,197.4],[1550,227],[1523.3,276.3],[1500.1,303.3],[1463.8,327.1],[1440.6,343.1],[1440.6,343.1],[1426.1,368.2],[1435.4,393.3],[1440.8,402.8],[1439,400.8],[1457.5,375.7],[1476,350.6],[1476.7,316.2],[1482.6,297.3],[1500.9,281.5],[1500.9,281.5],[1519.2,265.7],[1514.8,253.1],[1529.9,215.3],[1529.4,197.3],[1558.5,167.1],[1534.6,178.4],[1510.7,189.7],[1516.1,189.2],[1521.5,188.7],[1524.4,192.7],[1527.3,196.7],[1541,199.9],[1524.8,224.9],[1523.6,233.4]]","[0,0.5333]","[0.5333,0.5333]","[-0.5333,-0.5333]","[-0.5333,0]","[0,-0.5333]","[0.5333,-0.5333]","[0,0]","[0.5333,0]",0,0,0,0,1,2,Monitor,7,1,11,9
,,,,,,,,,,,,,,,,,,,25,001,2024-11-28_14h45.00.312,Attention_exp_legacy,2023.1.0,Win32,60.24096386,,,,,,,,,,,[0.051041666666666666],[0.47962962962962963],[1],[0],[0],[1.3483000000119176],"[""Option1_label""]",Option1_label,2,2.3664,"[[0.4822916666666667,0.4703703703703704],[0.4822916666666667,0.4703703703703704],[0.4822916666666667,0.4703703703703704],[0.4822916666666667,0.4703703703703704],[0.4822916666666667,0.4703703703703704],[0.4822916666666667,0.4703703703703704],[0.4822916666666667,0.4703703703703704],[0.4822916666666667,0.4703703703703704],[0.4822916666666667,0.4703703703703704],[0.4822916666666667,0.4703703703703704],[0.4822916666666667,0.4703703703703704],[0.4822916666666667,0.4703703703703704],[0.4822916666666667,0.4703703703703704],[0.4822916666666667,0.4703703703703704],[0.4822916666666667,0.4703703703703704],[0.4822916666666667,0.4703703703703704],[0.4822916666666667,0.4703703703703704],[0.4822916666666667,0.4703703703703704],[0.4822916666666667,0.4703703703703704],[0.4822916666666667,0.4703703703703704],[0.4822916666666667,0.4703703703703704],[0.4822916666666667,0.4703703703703704],[0.4822916666666667,0.4703703703703704],[0.4822916666666667,0.4703703703703704],[0.4822916666666667,0.4703703703703704],[0.4822916666666667,0.4703703703703704],[0.4822916666666667,0.4703703703703704],[0.4822916666666667,0.4703703703703704],[0.4822916666666667,0.4703703703703704],[0.4822916666666667,0.4703703703703704],[0.4822916666666667,0.4703703703703704],[0.4822916666666667,0.4703703703703704],[0.4822916666666667,0.4703703703703704],[0.4822916666666667,0.4703703703703704],[0.4822916666666667,0.4703703703703704],[0.4822916666666667,0.4703703703703704],[0.4822916666666667,0.4703703703703704],[0.4822916666666667,0.4703703703703704],[0.4822916666666667,0.4703703703703704],[0.4822916666666667,0.4703703703703704],[0.4822916666666667,0.4703703703703704],[0.4822916666666667,0.4703703703703704],[0.4822916666666667,0.4703703703703704],[0.4822916666666667,0.4703703703703704],[0.4822916666666667,0.4703703703703704],[0.4822916666666667,0.4703703703703704],[0.4822916666666667,0.4703703703703704],[0.4822916666666667,0.4703703703703704],[0.4822916666666667,0.4703703703703704],[0.4822916666666667,0.4703703703703704],[0.4822916666666667,0.4703703703703704],[0.4822916666666667,0.4703703703703704],[0.4822916666666667,0.4703703703703704],[0.4822916666666667,0.4703703703703704],[0.4822916666666667,0.4703703703703704],[0.4822916666666667,0.4703703703703704],[0.4822916666666667,0.4703703703703704],[0.4822916666666667,0.4703703703703704],[0.4822916666666667,0.4703703703703704],[0.4822916666666667,0.4703703703703704],[0.48125,0.4703703703703704],[0.475,0.4666666666666667],[0.4625,0.4648148148148148],[0.44166666666666665,0.46111111111111114],[0.409375,0.46111111111111114],[0.3614583333333333,0.46111111111111114],[0.34479166666666666,0.46111111111111114],[0.2989583333333333,0.46111111111111114],[0.21979166666666666,0.46111111111111114],[0.165625,0.46111111111111114],[0.11666666666666667,0.46111111111111114],[0.0875,0.4703703703703704],[0.065625,0.4740740740740741],[0.05520833333333333,0.4759259259259259],[0.051041666666666666,0.47962962962962963],[0.051041666666666666,0.47962962962962963],[0.051041666666666666,0.47962962962962963],[0.051041666666666666,0.47962962962962963],[0.051041666666666666,0.47962962962962963],[0.051041666666666666,0.47962962962962963],[0.051041666666666666,0.47962962962962963],[0.051041666666666666,0.47962962962962963],[0.051041666666666666,0.47962962962962963],[0.051041666666666666,0.47962962962962963],[0.051041666666666666,0.47962962962962963],[0.051041666666666666,0.47962962962962963],[0.051041666666666666,0.47962962962962963],[0.051041666666666666,0.47962962962962963],[0.051041666666666666,0.47962962962962963],[0.051041666666666666,0.47962962962962963],[0.051041666666666666,0.47962962962962963],[0.051041666666666666,0.47962962962962963],[0.051041666666666666,0.47962962962962963],[0.051041666666666666,0.47962962962962963],[0.051041666666666666,0.47962962962962963],[0.051041666666666666,0.47962962962962963],[0.051041666666666666,0.47962962962962963],[0.051041666666666666,0.47962962962962963],[0.051041666666666666,0.47962962962962963],[0.051041666666666666,0.47962962962962963],[0.051041666666666666,0.47962962962962963],[0.051041666666666666,0.47962962962962963],[0.051041666666666666,0.47962962962962963],[0.051041666666666666,0.47962962962962963],[0.051041666666666666,0.47962962962962963],[0.051041666666666666,0.47962962962962963],[0.051041666666666666,0.47962962962962963],[0.051041666666666666,0.47962962962962963],[0.051041666666666666,0.47962962962962963],[0.051041666666666666,0.47962962962962963],[0.051041666666666666,0.47962962962962963],[0.051041666666666666,0.47962962962962963],[0.051041666666666666,0.47962962962962963],[0.051041666666666666,0.47962962962962963],[0.051041666666666666,0.47962962962962963],[0.051041666666666666,0.47962962962962963],[0.051041666666666666,0.47962962962962963],[0.051041666666666666,0.47962962962962963],[0.051041666666666666,0.47962962962962963],[0.051041666666666666,0.47962962962962963],[0.051041666666666666,0.47962962962962963],[0.051041666666666666,0.47962962962962963],[0.051041666666666666,0.47962962962962963],[0.051041666666666666,0.47962962962962963],[0.051041666666666666,0.47962962962962963],[0.051041666666666666,0.47962962962962963],[0.051041666666666666,0.47962962962962963],[0.051041666666666666,0.47962962962962963],[0.051041666666666666,0.47962962962962963],[0.051041666666666666,0.47962962962962963],[0.051041666666666666,0.47962962962962963],[0.051041666666666666,0.47962962962962963],[0.051041666666666666,0.47962962962962963],[0.051041666666666666,0.47962962962962963],[0.051041666666666666,0.47962962962962963],[0.051041666666666666,0.47962962962962963],[0.051041666666666666,0.47962962962962963],[0.051041666666666666,0.47962962962962963],[0.051041666666666666,0.47962962962962963],[0.051041666666666666,0.47962962962962963],[0.051041666666666666,0.47962962962962963],[0.051041666666666666,0.47962962962962963],[0.051041666666666666,0.47962962962962963]]","[[0.33604166666666657,-0.1933333333333333],[0.35479166666666656,-0.3074074074074074],[0.35479166666666656,-0.3074074074074074],[0.27197916666666655,-0.2833333333333333],[0.27197916666666655,-0.2833333333333333],[0.2328125,-0.25703703703703706],[0.2328125,-0.25703703703703706],[0.24291666666666673,-0.2718518518518519],[0.21104166666666657,-0.3124074074074074],[0.1866666666666667,-0.35407407407407404],[0.14322916666666666,-0.3374074074074074],[0.09979166666666663,-0.3207407407407407],[0.06833333333333323,-0.28481481481481485],[0.0234375,-0.26296296296296295],[-0.04697916666666669,-0.22462962962962965],[-0.09718749999999995,-0.19296296296296295],[-0.11052083333333336,-0.2168518518518519],[-0.11854166666666661,-0.24166666666666667],[-0.13208333333333327,-0.24407407407407408],[-0.15989583333333332,-0.23962962962962958],[-0.20093749999999996,-0.252962962962963],[-0.2419791666666666,-0.2662962962962963],[-0.30187499999999995,-0.25203703703703706],[-0.36135416666666664,-0.21240740740740738],[-0.349375,-0.2588888888888889],[-0.28375,-0.30481481481481487],[-0.2705208333333334,-0.2711111111111111],[-0.2633333333333333,-0.23962962962962958],[-0.24510416666666662,-0.2116666666666667],[-0.22406250000000003,-0.17555555555555558],[-0.18979166666666672,-0.12166666666666665],[-0.13812500000000003,-0.06129629629629634],[-0.05385416666666672,-0.05740740740740741],[0.008958333333333356,-0.0868518518518518],[0.02322916666666662,-0.030555555555555555],[0.01260416666666669,-0.0031481481481482323],[0.051041666666666666,0.01703703703703712],[0.09552083333333337,0.03944444444444436],[0.12666666666666657,0.09833333333333337],[0.18406250000000005,0.1198148148148149],[0.2530208333333334,0.0911111111111112],[0.30458333333333343,0.05592592592592601],[0.3242708333333333,0.0514814814814814],[0.3650000000000001,0.055000000000000084],[0.4176041666666668,0.04314814814814806],[0.4662499999999999,0.031111111111111027],[0.47718749999999993,-0.011111111111111112],[0.5091666666666667,-0.020370370370370372],[0.5367708333333333,-0.04055555555555551],[0.5455208333333333,-0.021481481481481525],[0.5427083333333333,0.0477777777777777],[0.5248958333333335,0.11351851851851844],[0.5389583333333334,0.1485185185185186],[0.5804166666666667,0.1648148148148148],[0.6099999999999999,0.19648148148148153],[0.6373958333333334,0.2322222222222222],[0.6504166666666668,0.2881481481481482],[0.6441666666666668,0.3175925925925926],[0.6556250000000001,0.32148148148148153],[0.6636458333333333,0.3096296296296297],[0.660625,0.3096296296296297],[0.6806250000000001,0.22814814814814824],[0.6756249999999999,0.16351851851851842],[0.6432291666666666,0.1175925925925926],[0.6115624999999999,0.06629629629629621],[0.5830208333333334,-0.004814814814814857],[0.5192708333333333,-0.05333333333333336],[0.45374999999999993,-0.10833333333333334],[0.40989583333333335,-0.17740740740740743],[0.37833333333333335,-0.26222222222222225],[0.3241666666666667,-0.34222222222222226],[0.26197916666666665,-0.33722222222222226],[0.25750000000000006,-0.44240740740740736],[0.2552083333333333,-0.5592592592592592],[0.2521874999999999,-0.6707407407407407],[0.21708333333333343,-0.6742592592592593],[0.2171875,-0.7003703703703703],[0.21947916666666673,-0.72],[0.20010416666666658,-0.7255555555555556],[0.18458333333333338,-0.7387037037037036],[0.20270833333333324,-0.7685185185185185],[0.22135416666666666,-0.8188888888888889],[0.20729166666666668,-0.7759259259259259],[0.19104166666666675,-0.7212962962962963],[0.16197916666666667,-0.6598148148148149],[0.1414583333333333,-0.6535185185185185],[0.16114583333333338,-0.6937037037037037],[0.18364583333333329,-0.7383333333333333],[0.2046875,-0.8288888888888889],[0.18562500000000004,-0.8105555555555556],[0.16666666666666666,-0.7857407407407407],[0.14718749999999994,-0.7403703703703703],[0.13114583333333343,-0.6546296296296297],[0.11822916666666666,-0.580925925925926],[0.10437500000000005,-0.5133333333333333],[0.11708333333333343,-0.48259259259259263],[0.1178124999999999,-0.4557407407407408],[0.10062499999999991,-0.38370370370370366],[0.08489583333333334,-0.2657407407407407],[0.10697916666666671,-0.22851851851851848],[0.14458333333333329,-0.1814814814814815],[0.18781249999999997,-0.14444444444444443],[0.22760416666666666,-0.14777777777777779],[0.25625,-0.18074074074074079],[0.25625,-0.18074074074074079],[0.32822916666666657,-0.23129629629629625],[0.3728125000000001,-0.27629629629629626],[0.3991666666666667,-0.28851851851851856],[0.4609375,-0.3131481481481482],[0.5227083333333333,-0.33777777777777773],[0.5257291666666667,-0.29000000000000004],[0.5131249999999999,-0.25851851851851854],[0.4946875000000001,-0.26592592592592595],[0.47625000000000006,-0.2733333333333334],[0.4873958333333334,-0.29259259259259257],[0.4873958333333334,-0.29259259259259257],[0.4631249999999999,-0.277962962962963],[0.45593750000000005,-0.24074074074074073],[0.4318749999999999,-0.23574074074074075],[0.3853125000000001,-0.2655555555555555],[0.3853125000000001,-0.2655555555555555],[0.3485416666666666,-0.25407407407407406],[0.3485416666666666,-0.25407407407407406],[0.34385416666666657,-0.38055555555555554],[0.34791666666666665,-0.5207407407407407],[0.3385416666666667,-0.5453703703703704],[0.32916666666666666,-0.5700000000000001],[0.32916666666666666,-0.5700000000000001],[0.31531250000000005,-0.5448148148148148],[0.31531250000000005,-0.5448148148148148],[0.3459374999999999,-0.5609259259259259],[0.3459374999999999,-0.5609259259259259],[0.39656250000000004,-0.6438888888888888],[0.39656250000000004,-0.6438888888888888],[0.4001041666666666,-0.6514814814814816],[0.4226041666666667,-0.6911111111111111],[0.4201041666666666,-0.7437037037037038],[0.4201041666666666,-0.7437037037037038],[0.42177083333333343,-0.7337037037037036],[0.41468749999999993,-0.71],[0.4256249999999999,-0.7477777777777778],[0.4365624999999999,-0.7855555555555556],[0.4243750000000001,-0.8177777777777778]]","[[0.33604166666666657,-0.1933333333333333,0.0001999999880837322],[0.35479166666666656,-0.3074074074074074,0.01650000000000773],[0.35479166666666656,-0.3074074074074074,0.03309999999405022],[0.27197916666666655,-0.2833333333333333,0.049800000011927636],[0.27197916666666655,-0.2833333333333333,0.06640000000597013],[0.2328125,-0.25703703703703706,0.08319999998808214],[0.2328125,-0.25703703703703706,0.09969999998808987],[0.24291666666666673,-0.2718518518518519,0.11640000000596729],[0.21104166666666657,-0.3124074074074074,0.13309999999404454],[0.1866666666666667,-0.35407407407407404,0.14990000000597092],[0.14322916666666666,-0.3374074074074074,0.16640000000596444],[0.09979166666666663,-0.3207407407407407,0.1830999999940417],[0.06833333333333323,-0.28481481481481485,0.1996999999880842],[0.0234375,-0.26296296296296295,0.21650000000001057],[-0.04697916666666669,-0.22462962962962965,0.23309999999403885],[-0.09718749999999995,-0.19296296296296295,0.24969999998808134],[-0.11052083333333336,-0.2168518518518519,0.26640000000595876],[-0.11854166666666661,-0.24166666666666667,0.2834000000059689],[-0.13208333333333327,-0.24407407407407408,0.2996999999880785],[-0.15989583333333332,-0.23962962962962958,0.31640000000597013],[-0.20093749999999996,-0.252962962962963,0.3330999999940474],[-0.2419791666666666,-0.2662962962962963,0.3500000000000085],[-0.30187499999999995,-0.25203703703703706,0.36650000000000205],[-0.36135416666666664,-0.21240740740740738,0.3831999999880793],[-0.349375,-0.2588888888888889,0.39969999998808703],[-0.28375,-0.30481481481481487,0.41780000001192263],[-0.2705208333333334,-0.2711111111111111,0.4330999999940417],[-0.2633333333333333,-0.23962962962962958,0.4501999999880866],[-0.24510416666666662,-0.2116666666666667,0.4664000000059616],[-0.22406250000000003,-0.17555555555555558,0.4831999999880878],[-0.18979166666666672,-0.12166666666666665,0.500099999994049],[-0.13812500000000003,-0.06129629629629634,0.5164000000059588],[-0.05385416666666672,-0.05740740740740741,0.5330999999940502],[0.008958333333333356,-0.0868518518518518,0.5498000000119276],[0.02322916666666662,-0.030555555555555555,0.5664000000059701],[0.01260416666666669,-0.0031481481481482323,0.5830999999940474],[0.051041666666666666,0.01703703703703712,0.5998000000119248],[0.09552083333333337,0.03944444444444436,0.616500000000002],[0.12666666666666657,0.09833333333333337,0.6330999999940445],[0.18406250000000005,0.1198148148148149,0.649800000011922],[0.2530208333333334,0.0911111111111112,0.6664999999999992],[0.30458333333333343,0.05592592592592601,0.6844000000059651],[0.3242708333333333,0.0514814814814814,0.6998000000119191],[0.3650000000000001,0.055000000000000084,0.7166999999880801],[0.4176041666666668,0.04314814814814806,0.734599999994046],[0.4662499999999999,0.031111111111111027,0.7525999999940467],[0.47718749999999993,-0.011111111111111112,0.7695999999940426],[0.5091666666666667,-0.020370370370370372,0.7858000000119318],[0.5367708333333333,-0.04055555555555551,0.7996999999880785],[0.5455208333333333,-0.021481481481481525,0.8165000000000049],[0.5427083333333333,0.0477777777777777,0.8355999999940451],[0.5248958333333335,0.11351851851851844,0.8509999999999991],[0.5389583333333334,0.1485185185185186,0.866500000000002],[0.5804166666666667,0.1648148148148148,0.8830999999940445],[0.6099999999999999,0.19648148148148153,0.899699999988087],[0.6373958333333334,0.2322222222222222,0.9164000000059644],[0.6504166666666668,0.2881481481481482,0.9330999999940417],[0.6441666666666668,0.3175925925925926,0.9496999999880842],[0.6556250000000001,0.32148148148148153,0.9664000000059616],[0.6636458333333333,0.3096296296296297,0.9866999999880761],[0.660625,0.3096296296296297,1.0035999999940373],[0.6806250000000001,0.22814814814814824,1.0194000000059589],[0.6756249999999999,0.16351851851851842,1.03330000001192],[0.6432291666666666,0.1175925925925926,1.0499000000059624],[0.6115624999999999,0.06629629629629621,1.0689000000059679],[0.5830208333333334,-0.004814814814814857,1.0856999999880799],[0.5192708333333333,-0.05333333333333336,1.100199999988078],[0.45374999999999993,-0.10833333333333334,1.119699999988086],[0.40989583333333335,-0.17740740740740743,1.1348000000119214],[0.37833333333333335,-0.26222222222222225,1.149900000005971],[0.3241666666666667,-0.34222222222222226,1.1664999999999992],[0.26197916666666665,-0.33722222222222226,1.186800000011928],[0.25750000000000006,-0.44240740740740736,1.2013000000119263],[0.2552083333333333,-0.5592592592592592,1.2180999999940383],[0.2521874999999999,-0.6707407407407407,1.237699999988081],[0.21708333333333343,-0.6742592592592593,1.252199999988079],[0.2171875,-0.7003703703703703,1.2665000000000077],[0.21947916666666673,-0.72,1.2844000000059594],[0.20010416666666658,-0.7255555555555556,1.3004000000059648],[0.18458333333333338,-0.7387037037037036,1.3164000000059701],[0.20270833333333324,-0.7685185185185185,1.3330999999940474],[0.22135416666666666,-0.8188888888888889,1.3499000000059596],[0.20729166666666668,-0.7759259259259259,1.3664000000059673],[0.19104166666666675,-0.7212962962962963,1.3830999999940445],[0.16197916666666667,-0.6598148148148149,1.399699999988087],[0.1414583333333333,-0.6535185185185185,1.4164000000059644],[0.16114583333333338,-0.6937037037037037,1.4330999999940417],[0.18364583333333329,-0.7383333333333333,1.449800000011919],[0.2046875,-0.8288888888888889,1.4664000000059616],[0.18562500000000004,-0.8105555555555556,1.485300000011918],[0.16666666666666666,-0.7857407407407407,1.4996999999880813],[0.14718749999999994,-0.7403703703703703,1.5164000000059588],[0.13114583333333343,-0.6546296296296297,1.5330999999940502],[0.11822916666666666,-0.580925925925926,1.5510999999940367],[0.10437500000000005,-0.5133333333333333,1.5664000000059701],[0.11708333333333343,-0.48259259259259263,1.5844000000059708],[0.1178124999999999,-0.4557407407407408,1.5996999999880899],[0.10062499999999991,-0.38370370370370366,1.616500000000002],[0.08489583333333334,-0.2657407407407407,1.6330999999940445],[0.10697916666666671,-0.22851851851851848,1.6500000000000057],[0.14458333333333329,-0.1814814814814815,1.6664000000059644],[0.18781249999999997,-0.14444444444444443,1.6850000000000023],[0.22760416666666666,-0.14777777777777779,1.699800000011919],[0.25625,-0.18074074074074079,1.7196999999880802],[0.25625,-0.18074074074074079,1.7331999999880878],[0.32822916666666657,-0.23129629629629625,1.7498000000119305],[0.3728125000000001,-0.27629629629629626,1.7690000000000055],[0.3991666666666667,-0.28851851851851856,1.7845000000000084],[0.4609375,-0.3131481481481482,1.7996999999880785],[0.5227083333333333,-0.33777777777777773,1.8164000000059701],[0.5257291666666667,-0.29000000000000004,1.8330999999940474],[0.5131249999999999,-0.25851851851851854,1.8500000000000085],[0.4946875000000001,-0.26592592592592595,1.8664000000059673],[0.47625000000000006,-0.2733333333333334,1.8834000000059632],[0.4873958333333334,-0.29259259259259257,1.899699999988087],[0.4873958333333334,-0.29259259259259257,1.9164000000059644],[0.4631249999999999,-0.277962962962963,1.9330999999940417],[0.45593750000000005,-0.24074074074074073,1.9511999999880771],[0.4318749999999999,-0.23574074074074075,1.9664000000059616],[0.3853125000000001,-0.2655555555555555,1.986099999994039],[0.3853125000000001,-0.2655555555555555,2.010000000000005],[0.3485416666666666,-0.25407407407407406,2.027599999994038],[0.3485416666666666,-0.25407407407407406,2.0344000000059594],[0.34385416666666657,-0.38055555555555554,2.0496999999880785],[0.34791666666666665,-0.5207407407407407,2.066300000011921],[0.3385416666666667,-0.5453703703703704,2.0830999999940474],[0.32916666666666666,-0.5700000000000001,2.099800000011925],[0.32916666666666666,-0.5700000000000001,2.116500000000002],[0.31531250000000005,-0.5448148148148148,2.1333000000119284],[0.31531250000000005,-0.5448148148148148,2.149699999988087],[0.3459374999999999,-0.5609259259259259,2.1664000000059644],[0.3459374999999999,-0.5609259259259259,2.1830999999940417],[0.39656250000000004,-0.6438888888888888,2.199699999988084],[0.39656250000000004,-0.6438888888888888,2.216300000011927],[0.4001041666666666,-0.6514814814814816,2.233000000000004],[0.4226041666666667,-0.6911111111111111,2.255199999988079],[0.4201041666666666,-0.7437037037037038,2.2721999999880893],[0.4201041666666666,-0.7437037037037038,2.2830000000000013],[0.42177083333333343,-0.7337037037037036,2.2996999999880785],[0.41468749999999993,-0.71,2.318800000011919],[0.4256249999999999,-0.7477777777777778,2.3330999999940474],[0.4365624999999999,-0.7855555555555556,2.34969999998809],[0.4243750000000001,-0.8177777777777778,2.3664000000059673]]","[0.0001999999880837322,0.01650000000000773,0.03309999999405022,0.049800000011927636,0.06640000000597013,0.08319999998808214,0.09969999998808987,0.11640000000596729,0.13309999999404454,0.14990000000597092,0.16640000000596444,0.1830999999940417,0.1996999999880842,0.21650000000001057,0.23309999999403885,0.24969999998808134,0.26640000000595876,0.2834000000059689,0.2996999999880785,0.31640000000597013,0.3330999999940474,0.3500000000000085,0.36650000000000205,0.3831999999880793,0.39969999998808703,0.41780000001192263,0.4330999999940417,0.4501999999880866,0.4664000000059616,0.4831999999880878,0.500099999994049,0.5164000000059588,0.5330999999940502,0.5498000000119276,0.5664000000059701,0.5830999999940474,0.5998000000119248,0.616500000000002,0.6330999999940445,0.649800000011922,0.6664999999999992,0.6844000000059651,0.6998000000119191,0.7166999999880801,0.734599999994046,0.7525999999940467,0.7695999999940426,0.7858000000119318,0.7996999999880785,0.8165000000000049,0.8355999999940451,0.8509999999999991,0.866500000000002,0.8830999999940445,0.899699999988087,0.9164000000059644,0.9330999999940417,0.9496999999880842,0.9664000000059616,0.9866999999880761,1.0035999999940373,1.0194000000059589,1.03330000001192,1.0499000000059624,1.0689000000059679,1.0856999999880799,1.100199999988078,1.119699999988086,1.1348000000119214,1.149900000005971,1.1664999999999992,1.186800000011928,1.2013000000119263,1.2180999999940383,1.237699999988081,1.252199999988079,1.2665000000000077,1.2844000000059594,1.3004000000059648,1.3164000000059701,1.3330999999940474,1.3499000000059596,1.3664000000059673,1.3830999999940445,1.399699999988087,1.4164000000059644,1.4330999999940417,1.449800000011919,1.4664000000059616,1.485300000011918,1.4996999999880813,1.5164000000059588,1.5330999999940502,1.5510999999940367,1.5664000000059701,1.5844000000059708,1.5996999999880899,1.616500000000002,1.6330999999940445,1.6500000000000057,1.6664000000059644,1.6850000000000023,1.699800000011919,1.7196999999880802,1.7331999999880878,1.7498000000119305,1.7690000000000055,1.7845000000000084,1.7996999999880785,1.8164000000059701,1.8330999999940474,1.8500000000000085,1.8664000000059673,1.8834000000059632,1.899699999988087,1.9164000000059644,1.9330999999940417,1.9511999999880771,1.9664000000059616,1.986099999994039,2.010000000000005,2.027599999994038,2.0344000000059594,2.0496999999880785,2.066300000011921,2.0830999999940474,2.099800000011925,2.116500000000002,2.1333000000119284,2.149699999988087,2.1664000000059644,2.1830999999940417,2.199699999988084,2.216300000011927,2.233000000000004,2.255199999988079,2.2721999999880893,2.2830000000000013,2.2996999999880785,2.318800000011919,2.3330999999940474,2.34969999998809,2.3664000000059673]","[1732776354914,1732776354929,1732776354945,1732776354962,1732776354979,1732776354995,1732776355012,1732776355029,1732776355045,1732776355062,1732776355079,1732776355095,1732776355112,1732776355129,1732776355145,1732776355162,1732776355179,1732776355196,1732776355212,1732776355229,1732776355245,1732776355262,1732776355279,1732776355295,1732776355312,1732776355330,1732776355345,1732776355362,1732776355379,1732776355395,1732776355412,1732776355429,1732776355445,1732776355462,1732776355479,1732776355495,1732776355512,1732776355529,1732776355545,1732776355562,1732776355579,1732776355596,1732776355612,1732776355629,1732776355647,1732776355665,1732776355682,1732776355698,1732776355712,1732776355729,1732776355748,1732776355763,1732776355779,1732776355795,1732776355812,1732776355829,1732776355845,1732776355862,1732776355879,1732776355899,1732776355916,1732776355932,1732776355945,1732776355962,1732776355981,1732776355998,1732776356012,1732776356032,1732776356047,1732776356062,1732776356079,1732776356099,1732776356113,1732776356130,1732776356150,1732776356164,1732776356179,1732776356197,1732776356212,1732776356229,1732776356245,1732776356262,1732776356279,1732776356295,1732776356312,1732776356329,1732776356345,1732776356362,1732776356379,1732776356397,1732776356412,1732776356429,1732776356445,1732776356463,1732776356478,1732776356496,1732776356512,1732776356529,1732776356545,1732776356562,1732776356579,1732776356597,1732776356612,1732776356632,1732776356645,1732776356662,1732776356681,1732776356697,1732776356712,1732776356729,1732776356745,1732776356762,1732776356778,1732776356796,1732776356812,1732776356829,1732776356845,1732776356863,1732776356879,1732776356898,1732776356922,1732776356940,1732776356947,1732776356962,1732776356979,1732776356995,1732776357012,1732776357029,1732776357045,1732776357062,1732776357079,1732776357095,1732776357112,1732776357128,1732776357145,1732776357167,1732776357184,1732776357195,1732776357212,1732776357231,1732776357245,1732776357262,1732776357278]","[[1282.6,435.6],[1300.6,374],[1300.6,374],[1221.1,387],[1221.1,387],[1183.5,401.2],[1183.5,401.2],[1193.2,393.2],[1162.6,371.3],[1139.2,348.8],[1097.5,357.8],[1055.8,366.8],[1025.6,386.2],[982.5,398],[914.9,418.7],[866.7,435.8],[853.9,422.9],[846.2,409.5],[833.2,408.2],[806.5,410.6],[767.1,403.4],[727.7,396.2],[670.2,403.9],[613.1,425.3],[624.6,400.2],[687.6,375.4],[700.3,393.6],[707.2,410.6],[724.7,425.7],[744.9,445.2],[777.8,474.3],[827.4,506.9],[908.3,509],[968.6,493.1],[982.3,523.5],[972.1,538.3],[1009,549.2],[1051.7,561.3],[1081.6,593.1],[1136.7,604.7],[1202.9,589.2],[1252.4,570.2],[1271.3,567.8],[1310.4,569.7],[1360.9,563.3],[1407.6,556.8],[1418.1,534],[1448.8,529],[1475.3,518.1],[1483.7,528.4],[1481,565.8],[1463.9,601.3],[1477.4,620.2],[1517.2,629],[1545.6,646.1],[1571.9,665.4],[1584.4,695.6],[1578.4,711.5],[1589.4,713.6],[1597.1,707.2],[1594.2,707.2],[1613.4,663.2],[1608.6,628.3],[1577.5,603.5],[1547.1,575.8],[1519.7,537.4],[1458.5,511.2],[1395.6,481.5],[1353.5,444.2],[1323.2,398.4],[1271.2,355.2],[1211.5,357.9],[1207.2,301.1],[1205,238],[1202.1,177.8],[1168.4,175.9],[1168.5,161.8],[1170.7,151.2],[1152.1,148.2],[1137.2,141.1],[1154.6,125],[1172.5,97.8],[1159,121],[1143.4,150.5],[1115.5,183.7],[1095.8,187.1],[1114.7,165.4],[1136.3,141.3],[1156.5,92.4],[1138.2,102.3],[1120,115.7],[1101.3,140.2],[1085.9,186.5],[1073.5,226.3],[1060.2,262.8],[1072.4,279.4],[1073.1,293.9],[1056.6,332.8],[1041.5,396.5],[1062.7,416.6],[1098.8,442],[1140.3,462],[1178.5,460.2],[1206,442.4],[1206,442.4],[1275.1,415.1],[1317.9,390.8],[1343.2,384.2],[1402.5,370.9],[1461.8,357.6],[1464.7,383.4],[1452.6,400.4],[1434.9,396.4],[1417.2,392.4],[1427.9,382],[1427.9,382],[1404.6,389.9],[1397.7,410],[1374.6,412.7],[1329.9,396.6],[1329.9,396.6],[1294.6,402.8],[1294.6,402.8],[1290.1,334.5],[1294,258.8],[1285,245.5],[1276,232.2],[1276,232.2],[1262.7,245.8],[1262.7,245.8],[1292.1,237.1],[1292.1,237.1],[1340.7,192.3],[1340.7,192.3],[1344.1,188.2],[1365.7,166.8],[1363.3,138.4],[1363.3,138.4],[1364.9,143.8],[1358.1,156.6],[1368.6,136.2],[1379.1,115.8],[1367.4,98.4]]","[0,0.5333]","[0.5333,0.5333]","[-0.5333,0]","[-0.5333,-0.5333]","[0,0]","[0.5333,0]","[0,-0.5333]","[0.5333,-0.5333]",0,1,1,1,1,2,Monitor,13,7,11,1
