inst1_resp.keys,inst1_resp.rt,calibrationMouse.x,calibrationMouse.y,calibrationMouse.leftButton,calibrationMouse.midButton,calibrationMouse.rightButton,calibrationClick.x,calibrationClick.y,calibrationClick.leftButton,calibrationClick.midButton,calibrationClick.rightButton,trialsc.thisRepN,trialsc.thisTrialN,trialsc.thisN,trialsc.thisIndex,trialsc.ran,calibration_x,calibration_y,participant,session,date,expName,psychopyVersion,OS,frameRate,calibrationClick.clicked_name,ScreenRes_pixels,Camera_pixels,mouse_2.x,mouse_2.y,mouse_2.leftButton,mouse_2.midButton,mouse_2.rightButton,mouse_2.time,mouse_2.clicked_name,mouse.x,mouse.y,mouse.leftButton,mouse.midButton,mouse.rightButton,mouse.time,mouse.clicked_name,Choice,Trial,TrialDuration,MOUSE_GAZE,ET_GAZE,ET_GAZE_x_T,time,unixTime,ET_GAZE_NF,Loc_Option1_label,Loc_Option2_label,Loc_Cost_label,Loc_Qual_label,Loc_Option1_cost,Loc_Option2_cost,Loc_Option1_quality,Loc_Option2_quality,trials.thisRepN,trials.thisTrialN,trials.thisN,trials.thisIndex,trials.ran,Block,Device,cost1,qual1,cost2,qual2
space,2.4855,-0.067708333,0.303703704,1,0,0,0.007291667,0.685185185,1,0,0,0,0,0,13,1,0,0.67,29,001,2024-12-05_15h42.44.601,Attention_exp_legacy,2023.1.0,Win32,59.88023952,,,,,,,,,,,,,,,,,,,,,,,,,,,,,,,,,,,,,,,,,,,,,
,,,,,,,-0.010416667,-0.32962963,1,0,0,0,1,1,10,1,0,-0.33,29,001,2024-12-05_15h42.44.601,Attention_exp_legacy,2023.1.0,Win32,59.88023952,,,,,,,,,,,,,,,,,,,,,,,,,,,,,,,,,,,,,,,,,,,,,
,,,,,,,0.322916667,-0.675925926,1,0,0,0,2,2,14,1,0.33,-0.67,29,001,2024-12-05_15h42.44.601,Attention_exp_legacy,2023.1.0,Win32,59.88023952,calibration_square,,,,,,,,,,,,,,,,,,,,,,,,,,,,,,,,,,,,,,,,,,,,
,,,,,,,-0.666666667,-0.32962963,1,0,0,0,3,3,1,1,-0.67,-0.33,29,001,2024-12-05_15h42.44.601,Attention_exp_legacy,2023.1.0,Win32,59.88023952,calibration_square,,,,,,,,,,,,,,,,,,,,,,,,,,,,,,,,,,,,,,,,,,,,
,,,,,,,-0.673958333,0.337037037,1,0,0,0,4,4,3,1,-0.67,0.33,29,001,2024-12-05_15h42.44.601,Attention_exp_legacy,2023.1.0,Win32,59.88023952,calibration_square,,,,,,,,,,,,,,,,,,,,,,,,,,,,,,,,,,,,,,,,,,,,
,,,,,,,-0.001041667,-0.681481481,1,0,0,0,5,5,9,1,0,-0.67,29,001,2024-12-05_15h42.44.601,Attention_exp_legacy,2023.1.0,Win32,59.88023952,,,,,,,,,,,,,,,,,,,,,,,,,,,,,,,,,,,,,,,,,,,,,
,,,,,,,0.001041667,0.003703704,1,0,0,0,6,6,11,1,0,0,29,001,2024-12-05_15h42.44.601,Attention_exp_legacy,2023.1.0,Win32,59.88023952,calibration_square,,,,,,,,,,,,,,,,,,,,,,,,,,,,,,,,,,,,,,,,,,,,
,,,,,,,-0.685416667,0.014814815,0,0,0,0,7,7,2,1,-0.67,0,29,001,2024-12-05_15h42.44.601,Attention_exp_legacy,2023.1.0,Win32,59.88023952,,,,,,,,,,,,,,,,,,,,,,,,,,,,,,,,,,,,,,,,,,,,,
,,,,,,,-0.670833333,-0.657407407,1,0,0,0,8,8,0,1,-0.67,-0.67,29,001,2024-12-05_15h42.44.601,Attention_exp_legacy,2023.1.0,Win32,59.88023952,,,,,,,,,,,,,,,,,,,,,,,,,,,,,,,,,,,,,,,,,,,,,
,,,,,,,0.011458333,0.327777778,1,0,0,0,9,9,12,1,0,0.33,29,001,2024-12-05_15h42.44.601,Attention_exp_legacy,2023.1.0,Win32,59.88023952,,,,,,,,,,,,,,,,,,,,,,,,,,,,,,,,,,,,,,,,,,,,,
,,,,,,,-0.340625,-0.325925926,1,0,0,0,10,10,5,1,-0.33,-0.33,29,001,2024-12-05_15h42.44.601,Attention_exp_legacy,2023.1.0,Win32,59.88023952,,,,,,,,,,,,,,,,,,,,,,,,,,,,,,,,,,,,,,,,,,,,,
,,,,,,,0.329166667,0.337037037,1,0,0,0,11,11,17,1,0.33,0.33,29,001,2024-12-05_15h42.44.601,Attention_exp_legacy,2023.1.0,Win32,59.88023952,calibration_square,,,,,,,,,,,,,,,,,,,,,,,,,,,,,,,,,,,,,,,,,,,,
,,,,,,,0.323958333,-0.325925926,1,0,0,0,12,12,15,1,0.33,-0.33,29,001,2024-12-05_15h42.44.601,Attention_exp_legacy,2023.1.0,Win32,59.88023952,calibration_square,,,,,,,,,,,,,,,,,,,,,,,,,,,,,,,,,,,,,,,,,,,,
,,,,,,,-0.335416667,-0.009259259,1,0,0,0,13,13,6,1,-0.33,0,29,001,2024-12-05_15h42.44.601,Attention_exp_legacy,2023.1.0,Win32,59.88023952,calibration_square,,,,,,,,,,,,,,,,,,,,,,,,,,,,,,,,,,,,,,,,,,,,
,,,,,,,0.328125,0.67037037,1,0,0,0,14,14,18,1,0.33,0.67,29,001,2024-12-05_15h42.44.601,Attention_exp_legacy,2023.1.0,Win32,59.88023952,calibration_square,,,,,,,,,,,,,,,,,,,,,,,,,,,,,,,,,,,,,,,,,,,,
,,,,,,,-0.326041667,0.318518519,1,0,0,0,15,15,7,1,-0.33,0.33,29,001,2024-12-05_15h42.44.601,Attention_exp_legacy,2023.1.0,Win32,59.88023952,,,,,,,,,,,,,,,,,,,,,,,,,,,,,,,,,,,,,,,,,,,,,
,,,,,,,0.667708333,0.672222222,1,0,0,0,16,16,19,1,0.67,0.67,29,001,2024-12-05_15h42.44.601,Attention_exp_legacy,2023.1.0,Win32,59.88023952,calibration_square,,,,,,,,,,,,,,,,,,,,,,,,,,,,,,,,,,,,,,,,,,,,
,,,,,,,-0.339583333,-0.674074074,1,0,0,0,17,17,4,1,-0.33,-0.67,29,001,2024-12-05_15h42.44.601,Attention_exp_legacy,2023.1.0,Win32,59.88023952,calibration_square,,,,,,,,,,,,,,,,,,,,,,,,,,,,,,,,,,,,,,,,,,,,
,,,,,,,-0.338541667,0.675925926,1,0,0,0,18,18,8,1,-0.33,0.67,29,001,2024-12-05_15h42.44.601,Attention_exp_legacy,2023.1.0,Win32,59.88023952,calibration_square,,,,,,,,,,,,,,,,,,,,,,,,,,,,,,,,,,,,,,,,,,,,
,,,,,,,0.325,0.009259259,1,0,0,0,19,19,16,1,0.33,0,29,001,2024-12-05_15h42.44.601,Attention_exp_legacy,2023.1.0,Win32,59.88023952,calibration_square,,,,,,,,,,,,,,,,,,,,,,,,,,,,,,,,,,,,,,,,,,,,
,,,,,,,0.671875,-0.666666667,1,0,0,0,20,20,20,1,0.67,-0.67,29,001,2024-12-05_15h42.44.601,Attention_exp_legacy,2023.1.0,Win32,59.88023952,calibration_square,,,,,,,,,,,,,,,,,,,,,,,,,,,,,,,,,,,,,,,,,,,,
,,,,,,,,,,,,,,,,,,,29,001,2024-12-05_15h42.44.601,Attention_exp_legacy,2023.1.0,Win32,59.88023952,,"[1920,1080]","[640,480]",[0.071875],[-0.5],[1],[0],[0],[1.5304000000059617],"[""StartButton""]",[0.013541666666666667],[0.29074074074074074],[1],[0],[0],[5.970700000017885],"[""Option1_label""]",Option1_label,1,6.9971,"[[0.071875,-0.4925925925925926],[0.071875,-0.4925925925925926],[0.071875,-0.4925925925925926],[0.071875,-0.4925925925925926],[0.071875,-0.4925925925925926],[0.071875,-0.4925925925925926],[0.071875,-0.4925925925925926],[0.071875,-0.4925925925925926],[0.071875,-0.4925925925925926],[0.071875,-0.4925925925925926],[0.071875,-0.4925925925925926],[0.071875,-0.4925925925925926],[0.071875,-0.4925925925925926],[0.071875,-0.4925925925925926],[0.071875,-0.4925925925925926],[0.071875,-0.48703703703703705],[0.071875,-0.48703703703703705],[0.071875,-0.48518518518518516],[0.071875,-0.48518518518518516],[0.071875,-0.48333333333333334],[0.071875,-0.48333333333333334],[0.071875,-0.48333333333333334],[0.071875,-0.48148148148148145],[0.071875,-0.47962962962962963],[0.071875,-0.4777777777777778],[0.071875,-0.4759259259259259],[0.071875,-0.4759259259259259],[0.071875,-0.4722222222222222],[0.071875,-0.4703703703703704],[0.071875,-0.4685185185185185],[0.071875,-0.4648148148148148],[0.071875,-0.46111111111111114],[0.071875,-0.45925925925925926],[0.071875,-0.45740740740740743],[0.07083333333333333,-0.4537037037037037],[0.06979166666666667,-0.44814814814814813],[0.06875,-0.4444444444444444],[0.06770833333333333,-0.44074074074074077],[0.065625,-0.42962962962962964],[0.06458333333333334,-0.4222222222222222],[0.06354166666666666,-0.4148148148148148],[0.06145833333333333,-0.40370370370370373],[0.06041666666666667,-0.39444444444444443],[0.057291666666666664,-0.37777777777777777],[0.053125,-0.35555555555555557],[0.04791666666666667,-0.3314814814814815],[0.041666666666666664,-0.3037037037037037],[0.036458333333333336,-0.2796296296296296],[0.030208333333333334,-0.2537037037037037],[0.023958333333333335,-0.23148148148148148],[0.01875,-0.20555555555555555],[0.013541666666666667,-0.18518518518518517],[0.009375,-0.1574074074074074],[0.009375,-0.1425925925925926],[0.009375,-0.12407407407407407],[0.009375,-0.10555555555555556],[0.010416666666666666,-0.08703703703703704],[0.016666666666666666,-0.06851851851851852],[0.026041666666666668,-0.05],[0.04375,-0.02962962962962963],[0.075,-0.012962962962962963],[0.11458333333333333,0.001851851851851852],[0.16145833333333334,0.007407407407407408],[0.21041666666666667,0.012962962962962963],[0.25625,0.012962962962962963],[0.31666666666666665,0.012962962962962963],[0.34375,0.012962962962962963],[0.365625,0.012962962962962963],[0.3770833333333333,0.012962962962962963],[0.38645833333333335,0.011111111111111112],[0.3885416666666667,0.011111111111111112],[0.390625,0.011111111111111112],[0.39166666666666666,0.011111111111111112],[0.39375,0.007407407407407408],[0.39375,0.007407407407407408],[0.39375,0.007407407407407408],[0.39375,0.007407407407407408],[0.39375,0.007407407407407408],[0.39375,0.007407407407407408],[0.39375,0.007407407407407408],[0.39375,0.007407407407407408],[0.39375,0.007407407407407408],[0.39375,0.007407407407407408],[0.39479166666666665,0.007407407407407408],[0.39479166666666665,0.007407407407407408],[0.39479166666666665,0.007407407407407408],[0.39479166666666665,0.007407407407407408],[0.39479166666666665,0.007407407407407408],[0.39479166666666665,0.007407407407407408],[0.39479166666666665,0.003703703703703704],[0.39479166666666665,0],[0.3927083333333333,-0.003703703703703704],[0.39166666666666666,-0.007407407407407408],[0.390625,-0.011111111111111112],[0.3885416666666667,-0.012962962962962963],[0.38645833333333335,-0.020370370370370372],[0.3854166666666667,-0.022222222222222223],[0.384375,-0.024074074074074074],[0.38333333333333336,-0.027777777777777776],[0.38125,-0.02962962962962963],[0.3802083333333333,-0.03333333333333333],[0.378125,-0.03333333333333333],[0.37604166666666666,-0.03518518518518519],[0.375,-0.03888888888888889],[0.371875,-0.040740740740740744],[0.3697916666666667,-0.04259259259259259],[0.36770833333333336,-0.046296296296296294],[0.3645833333333333,-0.05],[0.3614583333333333,-0.053703703703703705],[0.35520833333333335,-0.05925925925925926],[0.35208333333333336,-0.05925925925925926],[0.3489583333333333,-0.06296296296296296],[0.34270833333333334,-0.07037037037037037],[0.33541666666666664,-0.07592592592592592],[0.328125,-0.07962962962962963],[0.3229166666666667,-0.08518518518518518],[0.31354166666666666,-0.09259259259259259],[0.30625,-0.0962962962962963],[0.29791666666666666,-0.10555555555555556],[0.290625,-0.10925925925925926],[0.28125,-0.11666666666666667],[0.26458333333333334,-0.1259259259259259],[0.253125,-0.12962962962962962],[0.246875,-0.13333333333333333],[0.23333333333333334,-0.1388888888888889],[0.21458333333333332,-0.14814814814814814],[0.20104166666666667,-0.15555555555555556],[0.1875,-0.16296296296296298],[0.17291666666666666,-0.17037037037037037],[0.1625,-0.17592592592592593],[0.15729166666666666,-0.1814814814814815],[0.15208333333333332,-0.18703703703703703],[0.14791666666666667,-0.19444444444444445],[0.146875,-0.20555555555555555],[0.146875,-0.21481481481481482],[0.146875,-0.22962962962962963],[0.146875,-0.24074074074074073],[0.146875,-0.25],[0.15520833333333334,-0.26666666666666666],[0.16666666666666666,-0.2851851851851852],[0.18958333333333333,-0.3055555555555556],[0.2125,-0.32222222222222224],[0.23541666666666666,-0.3351851851851852],[0.2604166666666667,-0.34814814814814815],[0.284375,-0.35555555555555557],[0.30416666666666664,-0.362962962962963],[0.32083333333333336,-0.3685185185185185],[0.32916666666666666,-0.3685185185185185],[0.33541666666666664,-0.37222222222222223],[0.3385416666666667,-0.37222222222222223],[0.33958333333333335,-0.37222222222222223],[0.34270833333333334,-0.36666666666666664],[0.34375,-0.35185185185185186],[0.34479166666666666,-0.32407407407407407],[0.3458333333333333,-0.29074074074074074],[0.3489583333333333,-0.24444444444444444],[0.3489583333333333,-0.20555555555555555],[0.3489583333333333,-0.17222222222222222],[0.3458333333333333,-0.13703703703703704],[0.3416666666666667,-0.11296296296296296],[0.3375,-0.09444444444444444],[0.33645833333333336,-0.08333333333333333],[0.33645833333333336,-0.08148148148148149],[0.33645833333333336,-0.08148148148148149],[0.33541666666666664,-0.07777777777777778],[0.33541666666666664,-0.07777777777777778],[0.33541666666666664,-0.07777777777777778],[0.33541666666666664,-0.07777777777777778],[0.33541666666666664,-0.07777777777777778],[0.33541666666666664,-0.07777777777777778],[0.33541666666666664,-0.07777777777777778],[0.33541666666666664,-0.07777777777777778],[0.33541666666666664,-0.07777777777777778],[0.33541666666666664,-0.07777777777777778],[0.33541666666666664,-0.07777777777777778],[0.33541666666666664,-0.07777777777777778],[0.33541666666666664,-0.07777777777777778],[0.33541666666666664,-0.07777777777777778],[0.33541666666666664,-0.07777777777777778],[0.33541666666666664,-0.07777777777777778],[0.33541666666666664,-0.07777777777777778],[0.33541666666666664,-0.07777777777777778],[0.33541666666666664,-0.07777777777777778],[0.33541666666666664,-0.07777777777777778],[0.33541666666666664,-0.07777777777777778],[0.33541666666666664,-0.07777777777777778],[0.33541666666666664,-0.07777777777777778],[0.33541666666666664,-0.07777777777777778],[0.33541666666666664,-0.07777777777777778],[0.33541666666666664,-0.07777777777777778],[0.33541666666666664,-0.07777777777777778],[0.33541666666666664,-0.07777777777777778],[0.33541666666666664,-0.07777777777777778],[0.33541666666666664,-0.07777777777777778],[0.33541666666666664,-0.07777777777777778],[0.33541666666666664,-0.07777777777777778],[0.33541666666666664,-0.07777777777777778],[0.33541666666666664,-0.07777777777777778],[0.33541666666666664,-0.07777777777777778],[0.33541666666666664,-0.07777777777777778],[0.33541666666666664,-0.07777777777777778],[0.33541666666666664,-0.07777777777777778],[0.33541666666666664,-0.07777777777777778],[0.33541666666666664,-0.07777777777777778],[0.33541666666666664,-0.07777777777777778],[0.33541666666666664,-0.07777777777777778],[0.33541666666666664,-0.07777777777777778],[0.33541666666666664,-0.07777777777777778],[0.33541666666666664,-0.07777777777777778],[0.33541666666666664,-0.07777777777777778],[0.33541666666666664,-0.07777777777777778],[0.3302083333333333,-0.07777777777777778],[0.3072916666666667,-0.07037037037037037],[0.2760416666666667,-0.05925925925925926],[0.23020833333333332,-0.046296296296296294],[0.178125,-0.03333333333333333],[0.13958333333333334,-0.027777777777777776],[0.10729166666666666,-0.016666666666666666],[0.08645833333333333,-0.012962962962962963],[0.07291666666666667,-0.011111111111111112],[0.06666666666666667,-0.011111111111111112],[0.06354166666666666,-0.009259259259259259],[0.06145833333333333,-0.009259259259259259],[0.06041666666666667,-0.009259259259259259],[0.05625,-0.005555555555555556],[0.05520833333333333,-0.005555555555555556],[0.051041666666666666,-0.005555555555555556],[0.046875,-0.001851851851851852],[0.04375,0],[0.041666666666666664,0.001851851851851852],[0.03958333333333333,0.001851851851851852],[0.03958333333333333,0.001851851851851852],[0.03958333333333333,0.001851851851851852],[0.03958333333333333,0.001851851851851852],[0.03958333333333333,0.001851851851851852],[0.03958333333333333,0.001851851851851852],[0.03958333333333333,0.001851851851851852],[0.03958333333333333,0.001851851851851852],[0.03958333333333333,0.001851851851851852],[0.03958333333333333,0.001851851851851852],[0.03958333333333333,0.001851851851851852],[0.03958333333333333,0.001851851851851852],[0.03958333333333333,0.001851851851851852],[0.03958333333333333,0.001851851851851852],[0.03958333333333333,0.001851851851851852],[0.03958333333333333,0.001851851851851852],[0.03958333333333333,0.001851851851851852],[0.03958333333333333,0.001851851851851852],[0.03958333333333333,0.001851851851851852],[0.03958333333333333,0.001851851851851852],[0.03958333333333333,0.001851851851851852],[0.03958333333333333,0.001851851851851852],[0.03958333333333333,0.001851851851851852],[0.03958333333333333,0.001851851851851852],[0.036458333333333336,0.003703703703703704],[0.029166666666666667,0.007407407407407408],[0.028125,0.009259259259259259],[0.025,0.009259259259259259],[0.017708333333333333,0.011111111111111112],[0.015625,0.012962962962962963],[0.013541666666666667,0.012962962962962963],[0.010416666666666666,0.012962962962962963],[0.008333333333333333,0.012962962962962963],[0.00625,0.012962962962962963],[0.005208333333333333,0.012962962962962963],[0.004166666666666667,0.012962962962962963],[0.003125,0.012962962962962963],[0.0020833333333333333,0.012962962962962963],[0.0020833333333333333,0.012962962962962963],[0.0020833333333333333,0.012962962962962963],[0.0020833333333333333,0.012962962962962963],[0.0020833333333333333,0.012962962962962963],[0.0020833333333333333,0.012962962962962963],[0.0020833333333333333,0.012962962962962963],[0.0020833333333333333,0.012962962962962963],[0.0020833333333333333,0.012962962962962963],[0.0020833333333333333,0.012962962962962963],[0.0020833333333333333,0.012962962962962963],[0.0020833333333333333,0.012962962962962963],[0.0020833333333333333,0.012962962962962963],[0.0020833333333333333,0.012962962962962963],[0.0020833333333333333,0.012962962962962963],[0.0020833333333333333,0.012962962962962963],[0.0020833333333333333,0.012962962962962963],[0.0020833333333333333,0.012962962962962963],[0.0020833333333333333,0.012962962962962963],[0.0020833333333333333,0.012962962962962963],[0.0020833333333333333,0.012962962962962963],[0.0020833333333333333,0.012962962962962963],[0.0020833333333333333,0.014814814814814815],[0.004166666666666667,0.014814814814814815],[0.008333333333333333,0.018518518518518517],[0.011458333333333333,0.020370370370370372],[0.016666666666666666,0.022222222222222223],[0.020833333333333332,0.024074074074074074],[0.021875,0.025925925925925925],[0.021875,0.025925925925925925],[0.021875,0.025925925925925925],[0.021875,0.025925925925925925],[0.021875,0.025925925925925925],[0.021875,0.025925925925925925],[0.021875,0.025925925925925925],[0.021875,0.025925925925925925],[0.021875,0.025925925925925925],[0.021875,0.025925925925925925],[0.022916666666666665,0.025925925925925925],[0.021875,0.025925925925925925],[0.019791666666666666,0.024074074074074074],[0.01875,0.024074074074074074],[0.016666666666666666,0.024074074074074074],[0.014583333333333334,0.022222222222222223],[0.014583333333333334,0.022222222222222223],[0.013541666666666667,0.022222222222222223],[0.013541666666666667,0.022222222222222223],[0.0125,0.022222222222222223],[0.011458333333333333,0.020370370370370372],[0.011458333333333333,0.020370370370370372],[0.011458333333333333,0.020370370370370372],[0.011458333333333333,0.020370370370370372],[0.010416666666666666,0.020370370370370372],[0.010416666666666666,0.020370370370370372],[0.010416666666666666,0.020370370370370372],[0.010416666666666666,0.020370370370370372],[0.010416666666666666,0.020370370370370372],[0.010416666666666666,0.020370370370370372],[0.010416666666666666,0.020370370370370372],[0.010416666666666666,0.020370370370370372],[0.010416666666666666,0.020370370370370372],[0.010416666666666666,0.020370370370370372],[0.010416666666666666,0.020370370370370372],[0.010416666666666666,0.020370370370370372],[0.010416666666666666,0.020370370370370372],[0.010416666666666666,0.020370370370370372],[0.007291666666666667,0.02962962962962963],[0.005208333333333333,0.06111111111111111],[0.005208333333333333,0.09259259259259259],[0.005208333333333333,0.12777777777777777],[0.005208333333333333,0.1648148148148148],[0.005208333333333333,0.19074074074074074],[0.00625,0.21666666666666667],[0.007291666666666667,0.23148148148148148],[0.008333333333333333,0.24259259259259258],[0.008333333333333333,0.24814814814814815],[0.010416666666666666,0.2537037037037037],[0.010416666666666666,0.2574074074074074],[0.010416666666666666,0.2611111111111111],[0.010416666666666666,0.26296296296296295],[0.010416666666666666,0.26296296296296295],[0.010416666666666666,0.26481481481481484],[0.011458333333333333,0.26851851851851855],[0.0125,0.2722222222222222],[0.0125,0.2759259259259259],[0.013541666666666667,0.2833333333333333],[0.013541666666666667,0.2851851851851852],[0.013541666666666667,0.29074074074074074],[0.013541666666666667,0.29074074074074074],[0.013541666666666667,0.29074074074074074],[0.013541666666666667,0.29074074074074074],[0.013541666666666667,0.29074074074074074],[0.013541666666666667,0.29074074074074074],[0.013541666666666667,0.29074074074074074],[0.013541666666666667,0.29074074074074074],[0.013541666666666667,0.29074074074074074],[0.013541666666666667,0.29074074074074074],[0.013541666666666667,0.29074074074074074],[0.013541666666666667,0.29074074074074074],[0.013541666666666667,0.29074074074074074],[0.013541666666666667,0.29074074074074074],[0.013541666666666667,0.29074074074074074],[0.013541666666666667,0.29074074074074074],[0.013541666666666667,0.29074074074074074],[0.013541666666666667,0.29074074074074074],[0.013541666666666667,0.29074074074074074],[0.013541666666666667,0.29074074074074074],[0.013541666666666667,0.29074074074074074],[0.013541666666666667,0.29074074074074074],[0.013541666666666667,0.29074074074074074],[0.013541666666666667,0.29074074074074074],[0.013541666666666667,0.29074074074074074],[0.013541666666666667,0.29074074074074074],[0.013541666666666667,0.29074074074074074],[0.013541666666666667,0.29074074074074074],[0.013541666666666667,0.29074074074074074],[0.013541666666666667,0.29074074074074074],[0.013541666666666667,0.29074074074074074],[0.013541666666666667,0.29074074074074074],[0.013541666666666667,0.29074074074074074],[0.013541666666666667,0.29074074074074074],[0.013541666666666667,0.29074074074074074],[0.013541666666666667,0.29074074074074074],[0.013541666666666667,0.29074074074074074],[0.013541666666666667,0.29074074074074074],[0.013541666666666667,0.29074074074074074],[0.013541666666666667,0.29074074074074074],[0.013541666666666667,0.29074074074074074],[0.013541666666666667,0.29074074074074074],[0.013541666666666667,0.29074074074074074],[0.013541666666666667,0.29074074074074074],[0.013541666666666667,0.29074074074074074],[0.013541666666666667,0.29074074074074074],[0.013541666666666667,0.29074074074074074],[0.013541666666666667,0.29074074074074074],[0.014583333333333334,0.29074074074074074],[0.014583333333333334,0.29074074074074074],[0.014583333333333334,0.28888888888888886],[0.014583333333333334,0.28888888888888886],[0.014583333333333334,0.28888888888888886],[0.014583333333333334,0.28703703703703703],[0.014583333333333334,0.28703703703703703],[0.014583333333333334,0.2851851851851852],[0.014583333333333334,0.2833333333333333],[0.015625,0.2833333333333333],[0.015625,0.2833333333333333],[0.015625,0.2814814814814815],[0.015625,0.2814814814814815],[0.015625,0.2796296296296296],[0.015625,0.2777777777777778],[0.015625,0.2777777777777778],[0.015625,0.2777777777777778],[0.016666666666666666,0.2759259259259259]]","[[0.07927083333333323,0.42111111111111105],[0.07927083333333323,0.42111111111111105],[0.07927083333333323,0.42111111111111105],[0.11885416666666657,0.42055555555555557],[0.1554166666666667,0.36444444444444435],[0.1554166666666667,0.36444444444444435],[0.15656249999999997,0.3183333333333333],[0.11937499999999991,0.2972222222222222],[0.06697916666666662,0.2766666666666666],[0.05364583333333333,0.24685185185185177],[0.053125,0.13296296296296287],[0.03833333333333329,0.04092592592592597],[0.02354166666666669,-0.051111111111111156],[0.0026041666666666665,-0.1427777777777778],[0.0026041666666666665,-0.1427777777777778],[-0.01395833333333331,-0.2479629629629629],[-0.025833333333333285,-0.2627777777777777],[-0.05791666666666669,-0.3296296296296296],[-0.020937500000000022,-0.3757407407407407],[0.007083333333333286,-0.3948148148148148],[0.02333333333333331,-0.37648148148148153],[0.03343750000000002,-0.23870370370370367],[0.04354166666666662,-0.10092592592592593],[0.08572916666666662,0.06018518518518518],[0.06593749999999995,0.12685185185185185],[0.04614583333333329,0.1935185185185185],[-0.017083333333333308,0.2024074074074073],[-0.060104166666666715,0.2633333333333334],[-0.09208333333333331,0.32462962962962955],[-0.12374999999999996,0.3520370370370371],[-0.12374999999999996,0.3520370370370371],[-0.1375,0.365925925925926],[-0.17479166666666662,0.3118518518518518],[-0.21208333333333335,0.2577777777777779],[-0.29406249999999995,0.20462962962962963],[-0.2713541666666667,0.24685185185185177],[-0.24864583333333337,0.2890740740740741],[-0.2163541666666667,0.34592592592592586],[-0.1564583333333334,0.38333333333333336],[-0.14114583333333333,0.4140740740740741],[-0.1258333333333333,0.4448148148148149],[-0.14468749999999997,0.37166666666666676],[-0.1466666666666666,0.331111111111111],[-0.1092708333333333,0.3772222222222223],[-0.07760416666666667,0.36277777777777775],[-0.08885416666666662,0.38870370370370366],[-0.10010416666666669,0.41462962962962957],[-0.0921875,0.3851851851851852],[-0.11958333333333329,0.381111111111111],[-0.1360416666666667,0.36314814814814816],[-0.14645833333333336,0.327962962962963],[-0.12885416666666671,0.3727777777777777],[-0.11229166666666662,0.4553703703703703],[-0.13510416666666672,0.45129629629629636],[-0.14270833333333333,0.4327777777777779],[-0.1376041666666667,0.3738888888888888],[-0.14770833333333327,0.35537037037037034],[-0.14906250000000001,0.3738888888888888],[-0.12541666666666665,0.35981481481481475],[-0.10177083333333338,0.34574074074074085],[-0.08416666666666663,0.34888888888888886],[-0.0375,0.2833333333333333],[-0.012395833333333309,0.2551851851851851],[0.03177083333333333,0.21814814814814806],[0.07906250000000009,0.23185185185185195],[0.08677083333333328,0.2170370370370371],[0.1118750000000001,0.0712962962962963],[0.10541666666666671,0.051111111111111156],[0.08031249999999991,0.0588888888888888],[0.1046875,0.01907407407407399],[0.13854166666666667,-0.04518518518518514],[0.11749999999999995,0.018333333333333292],[0.11906249999999995,0.006666666666666709],[0.11260416666666657,0.020740740740740823],[0.13541666666666666,0.04888888888888885],[0.178125,0.10314814814814824],[0.08447916666666658,0.2294444444444444],[0.022395833333333334,0.2301851851851851],[-0.013854166666666619,0.230925925925926],[-0.09395833333333338,0.3022222222222223],[-0.14479166666666668,0.4140740740740741],[-0.14635416666666667,0.43203703703703694],[-0.12541666666666665,0.4168518518518519],[-0.12541666666666665,0.4168518518518519],[-0.10010416666666669,0.3949999999999999],[-0.18406250000000005,0.3077777777777779],[-0.26833333333333337,0.22592592592592592],[-0.22072916666666664,0.19407407407407398],[-0.18968750000000004,0.205925925925926],[-0.13062499999999996,0.16814814814814807],[-0.05406249999999998,0.1625925925925925],[-0.09750000000000002,0.10851851851851856],[-0.15583333333333335,0.09296296296296305],[-0.15583333333333335,0.09296296296296305],[-0.1688541666666667,0.1124074074074075],[-0.19343750000000004,0.08111111111111102],[-0.19343750000000004,0.08111111111111102],[-0.11427083333333338,0.17462962962962955],[-0.08031250000000002,0.20999999999999996],[-0.02364583333333338,0.19722222222222222],[0.07229166666666677,0.16444444444444437],[0.11572916666666658,0.18000000000000008],[0.0834374999999999,0.1455555555555556],[0.0834374999999999,0.1455555555555556],[0.17843749999999994,0.12962962962962962],[0.17843749999999994,0.12962962962962962],[0.2321875000000001,0.09407407407407399],[0.2321875000000001,0.09407407407407399],[0.2265625,0.11648148148148144],[0.2,0.2294444444444444],[0.2,0.2294444444444444],[0.18895833333333342,0.17740740740740732],[0.18895833333333342,0.17740740740740732],[0.20187499999999994,0.18888888888888888],[0.20187499999999994,0.18888888888888888],[0.21749999999999994,0.18592592592592588],[0.21041666666666667,0.15925925925925927],[0.19583333333333333,0.11333333333333341],[0.2520833333333333,0.12018518518518514],[0.26229166666666665,0.14092592592592595],[0.3242708333333333,0.1625925925925925],[0.3290625000000001,0.1557407407407408],[0.3087500000000001,0.011666666666666582],[0.2491666666666667,-0.04092592592592597],[0.21239583333333342,-0.055185185185185205],[0.16260416666666658,-0.0507407407407407],[0.16989583333333325,-0.027962962962963005],[0.18468749999999995,0.014074074074074116],[0.16635416666666672,-0.01444444444444436],[0.14802083333333324,-0.04296296296296305],[0.103125,-0.053703703703703705],[0.10083333333333329,-0.07629629629629628],[0.14072916666666657,-0.011666666666666582],[0.15072916666666672,0.03925925925925934],[0.18822916666666673,0.05722222222222218],[0.18822916666666673,0.05722222222222218],[0.18239583333333323,0.03518518518518519],[0.15833333333333333,0.10999999999999996],[0.13427083333333342,0.18481481481481474],[0.08791666666666677,0.22370370370370363],[0.041562499999999974,0.2625925925925925],[0.028541666666666642,0.27259259259259266],[0.02166666666666662,0.2631481481481482],[-0.000416666666666643,0.29259259259259257],[0.010520833333333358,0.3146296296296296],[-0.007291666666666667,0.3205555555555556],[-0.0007291666666667141,0.3844444444444445],[0.011041666666666691,0.33796296296296297],[-0.03697916666666667,0.259074074074074],[-0.04781249999999997,0.22870370370370371],[-0.04781249999999997,0.22870370370370371],[-0.003333333333333381,0.2205555555555556],[0.006979166666666714,0.21185185185185182],[0.01729166666666669,0.20314814814814824],[0.07010416666666662,0.18796296296296297],[0.11979166666666667,0.19388888888888897],[0.1694791666666667,0.19981481481481478],[0.21729166666666658,0.21388888888888888],[0.22104166666666672,0.22314814814814815],[0.2521874999999999,0.24611111111111106],[0.3140625,0.25314814814814823],[0.3336458333333333,0.23129629629629625],[0.3615624999999999,0.2361111111111111],[0.35437500000000005,0.28111111111111103],[0.3198958333333332,0.29370370370370374],[0.27999999999999997,0.30092592592592593],[0.24010416666666667,0.3081481481481481],[0.2171875,0.28833333333333344],[0.14739583333333334,0.24259259259259258],[0.1099999999999999,0.2155555555555555],[0.0626041666666667,0.24018518518518528],[0.008541666666666715,0.28851851851851845],[-0.0626041666666667,0.27074074074074084],[-0.09864583333333338,0.21277777777777773],[-0.09125000000000003,0.21425925925925934],[-0.07843749999999995,0.22111111111111106],[-0.10885416666666667,0.15999999999999995],[-0.12906249999999997,0.1257407407407407],[-0.09583333333333334,0.06999999999999991],[-0.06364583333333336,0.021296296296296296],[-0.052187500000000026,-0.06314814814814819],[-0.0702083333333333,-0.13870370370370366],[-0.07114583333333328,-0.14814814814814814],[-0.014479166666666644,-0.03481481481481473],[-0.0012500000000000473,0.01907407407407399],[-0.03854166666666667,0.01777777777777782],[-0.03260416666666662,0.08444444444444449],[0.01583333333333338,0.175],[0.05770833333333331,0.31296296296296294],[0.10083333333333329,0.4514814814814814],[0.14395833333333338,0.5900000000000001],[0.14395833333333338,0.5900000000000001],[0.18822916666666673,0.5896296296296296],[0.22625000000000003,0.6387037037037037],[0.196875,0.597037037037037],[0.17708333333333334,0.5251851851851852],[0.19322916666666667,0.4666666666666667],[0.2111458333333334,0.4053703703703703],[0.16656250000000009,0.25388888888888894],[0.13156249999999994,0.16740740740740737],[0.1178124999999999,0.015370370370370286],[0.10270833333333323,-0.04351851851851852],[0.1165625000000001,-0.09759259259259258],[0.14020833333333324,-0.13444444444444448],[0.17447916666666666,-0.20388888888888893],[0.16416666666666657,-0.22092592592592594],[0.16416666666666657,-0.22092592592592594],[0.16843750000000005,-0.19611111111111107],[0.21572916666666658,-0.205],[0.21447916666666675,-0.15907407407407403],[0.20364583333333333,-0.17814814814814814],[0.12374999999999996,-0.072037037037037],[0.13052083333333328,-0.09537037037037037],[0.07770833333333324,-0.004074074074074159],[0.02041666666666669,0.018148148148148063],[-0.043124999999999976,0.04759259259259268],[-0.04354166666666662,0.04425925925925922],[-0.04364583333333331,0.04333333333333329],[-0.11083333333333331,0.07277777777777769],[-0.1063541666666667,0.0868518518518518],[-0.10281250000000004,0.12759259259259256],[-0.05166666666666669,0.10111111111111115],[-0.08729166666666661,0.09037037037037028],[-0.08729166666666661,0.09037037037037028],[-0.06156250000000003,0.07685185185185185],[-0.06156250000000003,0.07685185185185185],[-0.03760416666666669,0.08092592592592601],[-0.03760416666666669,0.08092592592592601],[-0.008437500000000023,0.0698148148148149],[-0.008437500000000023,0.0698148148148149],[-0.008124999999999953,0.08296296296296288],[-0.008124999999999953,0.08296296296296288],[-0.025937499999999978,0.10388888888888893],[-0.025937499999999978,0.10388888888888893],[-0.007395833333333357,0.11666666666666667],[0.022500000000000023,0.17185185185185176],[0.05333333333333338,0.20037037037037045],[0.042604166666666644,0.18648148148148155],[0.03333333333333333,0.19314814814814807],[0.00458333333333331,0.22259259259259268],[0.029895833333333382,0.21444444444444435],[0.05541666666666671,0.21481481481481482],[0.06583333333333338,0.2081481481481481],[0.09406249999999995,0.19129629629629621],[0.12614583333333323,0.2140740740740741],[0.12729166666666672,0.20777777777777787],[0.09677083333333343,0.1574074074074074],[0.1078125,0.14944444444444452],[0.12145833333333324,0.14759259259259266],[0.14583333333333334,0.11925925925925922],[0.07302083333333324,0.09907407407407408],[0.0002083333333333807,0.07888888888888893],[-0.05677083333333333,0.052037037037037076],[-0.07625000000000005,0.010370370370370412],[-0.11364583333333336,-0.056666666666666705],[-0.15437500000000004,-0.11074074074074076],[-0.17145833333333335,-0.09722222222222222],[-0.17145833333333335,-0.09722222222222222],[-0.178125,-0.11462962962962958],[-0.18843749999999998,-0.11722222222222224],[-0.18072916666666666,-0.11037037037037041],[-0.1482291666666666,-0.07222222222222222],[-0.09760416666666671,-0.05648148148148148],[-0.04697916666666669,-0.040740740740740744],[-0.04697916666666669,-0.040740740740740744],[-0.03947916666666664,0.001851851851851852],[-0.0109375,-0.00851851851851856],[0.007604166666666619,0.016111111111111194],[-0.004479166666666619,-0.022222222222222223],[-0.026979166666666644,-0.02962962962962963],[0.025625000000000023,-0.006111111111111027],[0.06062500000000005,0.0003703703703704546],[0.058958333333333356,0.019259259259259216],[0.02833333333333338,0.05092592592592592],[0.005833333333333357,0.07481481481481478],[-0.011041666666666691,0.08666666666666659],[-0.05562499999999997,0.15537037037037033],[-0.05364583333333333,0.22166666666666676],[-0.0020833333333333333,0.3133333333333334],[0.028750000000000022,0.33611111111111114],[-0.019479166666666714,0.3074074074074074],[-0.0702083333333333,0.30629629629629623],[-0.06322916666666671,0.2757407407407407],[-0.06322916666666671,0.2609259259259259],[-0.07135416666666666,0.25388888888888894],[-0.04354166666666662,0.16537037037037028],[-0.007187499999999976,0.13629629629629633],[-0.029166666666666667,0.05685185185185194],[-0.06708333333333331,0.046481481481481526],[-0.08343750000000003,0.1287037037037037],[-0.08687499999999998,0.08499999999999996],[-0.08822916666666672,0.021296296296296296],[-0.09083333333333338,0.027962962962963005],[-0.07562500000000003,0.028518518518518478],[-0.05458333333333331,-0.04740740740740745],[-0.0515625,-0.032777777777777864],[-0.049791666666666616,-0.032037037037036954],[-0.018020833333333285,-0.05333333333333336],[-0.049583333333333354,-0.11444444444444446],[-0.08197916666666671,-0.1992592592592593],[-0.12229166666666665,-0.15851851851851856],[-0.1805208333333333,-0.1205555555555556],[-0.2375,-0.152962962962963],[-0.26281249999999995,-0.17907407407407405],[-0.2939583333333334,-0.1287037037037037],[-0.37052083333333335,-0.07037037037037037],[-0.38375,-0.07574074074074069],[-0.4305208333333333,-0.050370370370370454],[-0.40895833333333337,-0.04018518518518527],[-0.37177083333333333,-0.05129629629629638],[-0.32218749999999996,-0.044999999999999915],[-0.278125,-0.007592592592592635],[-0.23406250000000003,0.029814814814814856],[-0.20114583333333336,0.08629629629629634],[-0.13010416666666663,0.05962962962962971],[-0.03156249999999995,0.014074074074074116],[-0.013333333333333286,0.03333333333333333],[0.03354166666666671,0.04870370370370362],[0.09802083333333324,0.03685185185185181],[0.146875,0.046296296296296294],[0.1428124999999999,0.02962962962962963],[0.18177083333333333,-0.018148148148148063],[0.19041666666666662,-0.08740740740740739],[0.2048958333333334,-0.1381481481481482],[0.18093750000000006,-0.10703703703703706],[0.18093750000000006,-0.10703703703703706],[0.15302083333333344,-0.05425925925925928],[0.15302083333333344,-0.05425925925925928],[0.17354166666666657,-0.0712962962962963],[0.21552083333333344,-0.18611111111111112],[0.21552083333333344,-0.18611111111111112],[0.23989583333333328,-0.2737037037037037],[0.21916666666666676,-0.3257407407407407],[0.2265625,-0.36796296296296294],[0.22229166666666675,-0.3557407407407408],[0.24666666666666662,-0.32222222222222224],[0.24468750000000009,-0.33259259259259266],[0.2171875,-0.3714814814814815],[0.1765625,-0.3792592592592593],[0.10385416666666672,-0.3677777777777778],[0.004791666666666691,-0.3346296296296296],[-0.05697916666666671,-0.25981481481481483],[-0.06291666666666665,-0.18037037037037032],[-0.06291666666666665,-0.18037037037037032],[-0.06677083333333336,-0.14425925925925923],[-0.06677083333333336,-0.14425925925925923],[-0.06739583333333338,-0.17555555555555558],[-0.06739583333333338,-0.17555555555555558],[-0.033645833333333285,-0.2729629629629629],[-0.033645833333333285,-0.2729629629629629],[-0.018124999999999978,-0.3118518518518518],[-0.018124999999999978,-0.3118518518518518],[0.041979166666666616,-0.32611111111111113],[0.041979166666666616,-0.32611111111111113],[0.10697916666666671,-0.3303703703703703],[0.13406250000000006,-0.3383333333333333],[0.16604166666666675,-0.27018518518518514],[0.15875000000000009,-0.26666666666666666],[0.14072916666666657,-0.30333333333333334],[0.16520833333333323,-0.28574074074074074],[0.12843749999999995,-0.2155555555555555],[0.058958333333333356,-0.07907407407407405],[0.007708333333333309,-0.0011111111111111532],[-0.065625,0.12037037037037036],[-0.11531250000000005,0.105925925925926],[-0.12708333333333333,0.09518518518518514],[-0.11916666666666664,0.14685185185185176],[-0.08395833333333336,0.15055555555555547],[-0.06052083333333336,0.23555555555555563],[-0.06958333333333329,0.3472222222222222],[-0.06395833333333331,0.3640740740740741],[-0.03156249999999995,0.3646296296296296],[0.000833333333333286,0.3651851851851853],[0.0203125,0.280925925925926],[0.02833333333333338,0.2716666666666668],[0.035416666666666666,0.2581481481481481],[0.04895833333333333,0.2553703703703703],[0.06802083333333328,0.32814814814814824],[0.0859375,0.30388888888888893],[0.04520833333333331,0.1712962962962963],[0.06749999999999995,0.2014814814814814],[0.049374999999999974,0.23851851851851844],[0.01875,0.27759259259259256],[0.030520833333333285,0.37240740740740746],[0.04229166666666669,0.46722222222222215],[0.002708333333333357,0.42055555555555557],[-0.014374999999999952,0.412962962962963],[-0.034791666666666644,0.38796296296296295],[-0.09479166666666666,0.4353703703703704],[-0.09604166666666672,0.5337037037037038],[-0.09604166666666672,0.5337037037037038],[-0.14906250000000001,0.5359259259259259],[-0.15812499999999996,0.5238888888888888],[-0.15406249999999996,0.4305555555555556],[-0.1452083333333333,0.2462962962962963],[-0.13114583333333332,0.03592592592592588],[-0.06479166666666672,-0.028703703703703703],[-0.04510416666666662,-0.04203703703703712],[-0.043437500000000046,-0.036481481481481566],[-0.0016666666666666904,-0.12222222222222222],[0.04031250000000005,-0.18925925925925924],[0.06531250000000005,-0.31444444444444447],[0.0821875000000001,-0.3979629629629629],[0.08833333333333329,-0.3905555555555555],[0.06468750000000002,-0.3044444444444444],[0.08114583333333343,-0.15833333333333333],[0.09760416666666671,-0.012222222222222264],[0.08697916666666666,-0.025370370370370456],[0.07843749999999995,-0.08629629629629634],[0.05145833333333331,-0.1270370370370371],[0.05697916666666671,-0.09129629629629632],[0.07000000000000005,-0.015555555555555513],[0.03156249999999995,0.043703703703703745],[0.0002083333333333807,0.08000000000000008],[-0.029791666666666692,0.13722222222222227],[-0.09375,0.18629629629629635],[-0.14416666666666664,0.12444444444444452],[-0.1694791666666667,0.058333333333333334],[-0.19395833333333337,0.06444444444444436],[-0.18760416666666668,0.08499999999999996]]","[[0.07927083333333323,0.42111111111111105,0.00030000001192576065],[0.07927083333333323,0.42111111111111105,0.038199999988080435],[0.07927083333333323,0.42111111111111105,0.044599999994041184],[0.11885416666666657,0.42055555555555557,0.061199999988083675],[0.1554166666666667,0.36444444444444435,0.07790000000596109],[0.1554166666666667,0.36444444444444435,0.09459999999404545],[0.15656249999999997,0.3183333333333333,0.11130000001192286],[0.11937499999999991,0.2972222222222222,0.13119999998808396],[0.06697916666666662,0.2766666666666666,0.14530000001192178],[0.05364583333333333,0.24685185185185177,0.1611999999880851],[0.053125,0.13296296296296287,0.1779000000059625],[0.03833333333333329,0.04092592592592597,0.19530000001192604],[0.02354166666666669,-0.051111111111111156,0.21119999998808225],[0.0026041666666666665,-0.1427777777777778,0.22790000000596677],[0.0026041666666666665,-0.1427777777777778,0.24459999999404403],[-0.01395833333333331,-0.2479629629629629,0.26390000000596103],[-0.025833333333333285,-0.2627777777777777,0.27809999999404056],[-0.05791666666666669,-0.3296296296296296,0.29509999999404357],[-0.020937500000000022,-0.3757407407407407,0.3111999999880837],[0.007083333333333286,-0.3948148148148148,0.33059999999404255],[0.02333333333333331,-0.37648148148148153,0.3445000000000036],[0.03343750000000002,-0.23870370370370367,0.36119999998808083],[0.04354166666666662,-0.10092592592592593,0.3780000000000001],[0.08572916666666662,0.06018518518518518,0.39819999998807987],[0.06593749999999995,0.12685185185185185,0.4119000000059643],[0.04614583333333329,0.1935185185185185,0.42809999999404624],[-0.017083333333333308,0.2024074074074073,0.444500000000005],[-0.060104166666666715,0.2633333333333334,0.4631999999880847],[-0.09208333333333331,0.32462962962962955,0.47800000000000153],[-0.12374999999999996,0.3520370370370371,0.4949000000059627],[-0.12374999999999996,0.3520370370370371,0.5144000000059634],[-0.1375,0.365925925925926,0.5281999999880824],[-0.17479166666666662,0.3118518518518518,0.544699999988083],[-0.21208333333333335,0.2577777777777779,0.5613000000119257],[-0.29406249999999995,0.20462962962962963,0.5811999999880797],[-0.2713541666666667,0.24685185185185177,0.5965999999940408],[-0.24864583333333337,0.2890740740740741,0.6113000000119229],[-0.2163541666666667,0.34592592592592586,0.630500000000005],[-0.1564583333333334,0.38333333333333336,0.6446999999880845],[-0.14114583333333333,0.4140740740740741,0.6618000000119224],[-0.1258333333333333,0.4448148148148149,0.6808000000119279],[-0.14468749999999997,0.37166666666666676,0.6960999999940398],[-0.1466666666666666,0.331111111111111,0.7114000000059661],[-0.1092708333333333,0.3772222222222223,0.7280000000000015],[-0.07760416666666667,0.36277777777777775,0.7480999999940465],[-0.08885416666666662,0.38870370370370366,0.7616999999880818],[-0.10010416666666669,0.41462962962962957,0.7780000000000058],[-0.0921875,0.3851851851851852,0.7978000000119252],[-0.11958333333333329,0.381111111111111,0.8113000000119257],[-0.1360416666666667,0.36314814814814816,0.828000000000003],[-0.14645833333333336,0.327962962962963,0.8446999999880802],[-0.12885416666666671,0.3727777777777777,0.8638000000119277],[-0.11229166666666662,0.4553703703703703,0.8798000000119259],[-0.13510416666666672,0.45129629629629636,0.8960999999940427],[-0.14270833333333333,0.4327777777777779,0.9136999999880828],[-0.1376041666666667,0.3738888888888888,0.928199999988081],[-0.14770833333333327,0.35537037037037034,0.9446999999880816],[-0.14906250000000001,0.3738888888888888,0.963800000011922],[-0.12541666666666665,0.35981481481481475,0.9780000000000015],[-0.10177083333333338,0.34574074074074085,0.9953000000119232],[-0.08416666666666663,0.34888888888888886,1.0113000000119214],[-0.0375,0.2833333333333333,1.0305000000000035],[-0.012395833333333309,0.2551851851851851,1.046199999988083],[0.03177083333333333,0.21814814814814806,1.0613000000119257],[0.07906250000000009,0.23185185185185195,1.078000000000003],[0.08677083333333328,0.2170370370370371,1.0981999999880827],[0.1118750000000001,0.0712962962962963,1.1116999999880832],[0.10541666666666671,0.051111111111111156,1.1280000000000001],[0.08031249999999991,0.0588888888888888,1.1445999999940426],[0.1046875,0.01907407407407399,1.1638000000119249],[0.13854166666666667,-0.04518518518518514,1.1780000000000044],[0.11749999999999995,0.018333333333333292,1.195199999988084],[0.11906249999999995,0.006666666666666709,1.2148000000119268],[0.11260416666666657,0.020740740740740823,1.2298000000119274],[0.13541666666666666,0.04888888888888885,1.2445000000000022],[0.178125,0.10314814814814824,1.2613000000119214],[0.08447916666666658,0.2294444444444444,1.277800000011922],[0.022395833333333334,0.2301851851851851,1.2950000000000017],[-0.013854166666666619,0.230925925925926,1.3111999999880837],[-0.09395833333333338,0.3022222222222223,1.3278000000119263],[-0.14479166666666668,0.4140740740740741,1.3445999999940454],[-0.14635416666666667,0.43203703703703694,1.3618000000119252],[-0.12541666666666665,0.4168518518518519,1.381099999994042],[-0.12541666666666665,0.4168518518518519,1.3978000000119266],[-0.10010416666666669,0.3949999999999999,1.4113000000119271],[-0.18406250000000005,0.3077777777777779,1.4278000000119278],[-0.26833333333333337,0.22592592592592592,1.444500000000005],[-0.22072916666666664,0.19407407407407398,1.4610999999940404],[-0.18968750000000004,0.205925925925926,1.477800000011925],[-0.13062499999999996,0.16814814814814807,1.4988000000119257],[-0.05406249999999998,0.1625925925925925,1.5149000000059658],[-0.09750000000000002,0.10851851851851856,1.5321999999880802],[-0.15583333333333335,0.09296296296296305,1.550300000011923],[-0.15583333333333335,0.09296296296296305,1.5613000000119257],[-0.1688541666666667,0.1124074074074075,1.578000000000003],[-0.19343750000000004,0.08111111111111102,1.6015999999940433],[-0.19343750000000004,0.08111111111111102,1.6113000000119229],[-0.11427083333333338,0.17462962962962955,1.6280000000000001],[-0.08031250000000002,0.20999999999999996,1.6454000000059636],[-0.02364583333333338,0.19722222222222222,1.6650000000000063],[0.07229166666666677,0.16444444444444437,1.6788000000119254],[0.11572916666666658,0.18000000000000008,1.6980000000000004],[0.0834374999999999,0.1455555555555556,1.7159000000059663],[0.0834374999999999,0.1455555555555556,1.7280999999940434],[0.17843749999999994,0.12962962962962962,1.744699999988086],[0.17843749999999994,0.12962962962962962,1.7614000000059633],[0.2321875000000001,0.09407407407407399,1.7823000000119222],[0.2321875000000001,0.09407407407407399,1.794800000011925],[0.2265625,0.11648148148148144,1.8114000000059605],[0.2,0.2294444444444444,1.835599999994045],[0.2,0.2294444444444444,1.8446999999880802],[0.18895833333333342,0.17740740740740732,1.8613000000119229],[0.18895833333333342,0.17740740740740732,1.8780000000000001],[0.20187499999999994,0.18888888888888888,1.9001999999880823],[0.20187499999999994,0.18888888888888888,1.9113000000119271],[0.21749999999999994,0.18592592592592588,1.9280000000000044],[0.21041666666666667,0.15925925925925927,1.9446999999880816],[0.19583333333333333,0.11333333333333341,1.9658000000119245],[0.2520833333333333,0.12018518518518514,1.9805999999940411],[0.26229166666666665,0.14092592592592595,1.9969000000059651],[0.3242708333333333,0.1625925925925925,2.0150000000000006],[0.3290625000000001,0.1557407407407408,2.031699999988085],[0.3087500000000001,0.011666666666666582,2.0469000000059623],[0.2491666666666667,-0.04092592592592597,2.0620999999940395],[0.21239583333333342,-0.055185185185185205,2.0805999999940425],[0.16260416666666658,-0.0507407407407407,2.096400000005964],[0.16989583333333325,-0.027962962962963005,2.1115000000000066],[0.18468749999999995,0.014074074074074116,2.1309000000059655],[0.16635416666666672,-0.01444444444444436,2.1460999999940427],[0.14802083333333324,-0.04296296296296305,2.161300000011927],[0.103125,-0.053703703703703705,2.1803000000119184],[0.10083333333333329,-0.07629629629629628,2.197599999994047],[0.14072916666666657,-0.011666666666666582,2.2113000000119243],[0.15072916666666672,0.03925925925925934,2.2314000000059693],[0.18822916666666673,0.05722222222222218,2.2458000000119185],[0.18822916666666673,0.05722222222222218,2.2675000000000054],[0.18239583333333323,0.03518518518518519,2.2821999999880873],[0.15833333333333333,0.10999999999999996,2.298000000000009],[0.13427083333333342,0.18481481481481474,2.3113000000119186],[0.08791666666666677,0.22370370370370363,2.32800000000001],[0.041562499999999974,0.2625925925925925,2.3468000000119176],[0.028541666666666642,0.27259259259259266,2.36130000001193],[0.02166666666666662,0.2631481481481482,2.378000000000007],[-0.000416666666666643,0.29259259259259257,2.398099999994038],[0.010520833333333358,0.3146296296296296,2.411300000011927],[-0.007291666666666667,0.3205555555555556,2.4280000000000044],[-0.0007291666666667141,0.3844444444444445,2.4474000000059632],[0.011041666666666691,0.33796296296296297,2.461400000005959],[-0.03697916666666667,0.259074074074074,2.4780000000000015],[-0.04781249999999997,0.22870370370370371,2.4949999999999974],[-0.04781249999999997,0.22870370370370371,2.514000000000003],[-0.003333333333333381,0.2205555555555556,2.5280999999940477],[0.006979166666666714,0.21185185185185182,2.545000000000009],[0.01729166666666669,0.20314814814814824,2.5636999999880814],[0.07010416666666662,0.18796296296296297,2.57800000000001],[0.11979166666666667,0.19388888888888897,2.598099999994041],[0.1694791666666667,0.19981481481481478,2.6130999999940414],[0.21729166666666658,0.21388888888888888,2.628000000000007],[0.22104166666666672,0.22314814814814815,2.6445999999940497],[0.2521874999999999,0.24611111111111106,2.6636999999880757],[0.3140625,0.25314814814814823,2.6780000000000044],[0.3336458333333333,0.23129629629629625,2.6964000000059585],[0.3615624999999999,0.2361111111111111,2.7133000000119196],[0.35437500000000005,0.28111111111111103,2.7279000000059668],[0.3198958333333332,0.29370370370370374,2.744699999988079],[0.27999999999999997,0.30092592592592593,2.7610999999940375],[0.24010416666666667,0.3081481481481481,2.777800000011929],[0.2171875,0.28833333333333344,2.797699999988076],[0.14739583333333334,0.24259259259259258,2.8113000000119186],[0.1099999999999999,0.2155555555555555,2.827900000005961],[0.0626041666666667,0.24018518518518528,2.8445000000000036],[0.008541666666666715,0.28851851851851845,2.861099999994046],[-0.0626041666666667,0.27074074074074084,2.8779000000059582],[-0.09864583333333338,0.21277777777777773,2.8970999999940474],[-0.09125000000000003,0.21425925925925934,2.912699999988085],[-0.07843749999999995,0.22111111111111106,2.9278000000119206],[-0.10885416666666667,0.15999999999999995,2.944499999999998],[-0.12906249999999997,0.1257407407407407,2.9610999999940404],[-0.09583333333333334,0.06999999999999991,2.977800000011918],[-0.06364583333333336,0.021296296296296296,2.9945000000000093],[-0.052187500000000026,-0.06314814814814819,3.0110999999940375],[-0.0702083333333333,-0.13870370370370366,3.027800000011929],[-0.07114583333333328,-0.14814814814814814,3.0444000000059575],[-0.014479166666666644,-0.03481481481481473,3.0611999999880837],[-0.0012500000000000473,0.01907407407407399,3.0778000000119263],[-0.03854166666666667,0.01777777777777782,3.0945000000000036],[-0.03260416666666662,0.08444444444444449,3.1115999999940485],[0.01583333333333338,0.175,3.1278000000119235],[0.05770833333333331,0.31296296296296294,3.144400000005966],[0.10083333333333329,0.4514814814814814,3.161199999988078],[0.14395833333333338,0.5900000000000001,3.1778000000119206],[0.14395833333333338,0.5900000000000001,3.194499999999998],[0.18822916666666673,0.5896296296296296,3.2110999999940404],[0.22625000000000003,0.6387037037037037,3.227800000011918],[0.196875,0.597037037037037,3.2445000000000093],[0.17708333333333334,0.5251851851851852,3.2611999999880865],[0.19322916666666667,0.4666666666666667,3.277800000011929],[0.2111458333333334,0.4053703703703703,3.2945000000000064],[0.16656250000000009,0.25388888888888894,3.3111999999880837],[0.13156249999999994,0.16740740740740737,3.3278000000119263],[0.1178124999999999,0.015370370370370286,3.3445000000000036],[0.10270833333333323,-0.04351851851851852,3.361199999988081],[0.1165625000000001,-0.09759259259259258,3.3779000000059582],[0.14020833333333324,-0.13444444444444448,3.397500000000001],[0.17447916666666666,-0.20388888888888893,3.4110999999940432],[0.16416666666666657,-0.22092592592592594,3.4278000000119206],[0.16416666666666657,-0.22092592592592594,3.444499999999998],[0.16843750000000005,-0.19611111111111107,3.4613000000119243],[0.21572916666666658,-0.205,3.4810000000000016],[0.21447916666666675,-0.15907407407407403,3.497900000005963],[0.20364583333333333,-0.17814814814814814,3.511699999988089],[0.12374999999999996,-0.072037037037037,3.530300000011927],[0.13052083333333328,-0.09537037037037037,3.545000000000009],[0.07770833333333324,-0.004074074074074159,3.5614000000059676],[0.02041666666666669,0.018148148148148063,3.57800000000001],[-0.043124999999999976,0.04759259259259268,3.5994000000059643],[-0.04354166666666662,0.04425925925925922,3.6130999999940414],[-0.04364583333333331,0.04333333333333329,3.6279000000059582],[-0.11083333333333331,0.07277777777777769,3.6445999999940497],[-0.1063541666666667,0.0868518518518518,3.6636999999880757],[-0.10281250000000004,0.12759259259259256,3.6786999999880763],[-0.05166666666666669,0.10111111111111115,3.696000000000005],[-0.08729166666666661,0.09037037037037028,3.7143000000119244],[-0.08729166666666661,0.09037037037037028,3.7280000000000015],[-0.06156250000000003,0.07685185185185185,3.744599999994044],[-0.06156250000000003,0.07685185185185185,3.76759999999404],[-0.03760416666666669,0.08092592592592601,3.7780999999940477],[-0.03760416666666669,0.08092592592592601,3.794800000011925],[-0.008437500000000023,0.0698148148148149,3.8168000000119306],[-0.008437500000000023,0.0698148148148149,3.82800000000001],[-0.008124999999999953,0.08296296296296288,3.8445999999940383],[-0.008124999999999953,0.08296296296296288,3.861199999988081],[-0.025937499999999978,0.10388888888888893,3.8778000000119235],[-0.025937499999999978,0.10388888888888893,3.8945999999940497],[-0.007395833333333357,0.11666666666666667,3.911199999988078],[0.022500000000000023,0.17185185185185176,3.9278000000119206],[0.05333333333333338,0.20037037037037045,3.944499999999998],[0.042604166666666644,0.18648148148148155,3.9610999999940404],[0.03333333333333333,0.19314814814814807,3.977800000011918],[0.00458333333333331,0.22259259259259268,3.994800000011928],[0.029895833333333382,0.21444444444444435,4.0110999999940375],[0.05541666666666671,0.21481481481481482,4.027900000005964],[0.06583333333333338,0.2081481481481481,4.0444000000059575],[0.09406249999999995,0.19129629629629621,4.061699999988086],[0.12614583333333323,0.2140740740740741,4.077800000011926],[0.12729166666666672,0.20777777777777787,4.095000000000006],[0.09677083333333343,0.1574074074074074,4.111199999988081],[0.1078125,0.14944444444444452,4.1278000000119235],[0.12145833333333324,0.14759259259259266,4.144500000000001],[0.14583333333333334,0.11925925925925922,4.161199999988078],[0.07302083333333324,0.09907407407407408,4.17790000000597],[0.0002083333333333807,0.07888888888888893,4.195800000011921],[-0.05677083333333333,0.052037037037037076,4.211199999988089],[-0.07625000000000005,0.010370370370370412,4.227800000011918],[-0.11364583333333336,-0.056666666666666705,4.247500000000009],[-0.15437500000000004,-0.11074074074074076,4.262999999999998],[-0.17145833333333335,-0.09722222222222222,4.278400000005966],[-0.17145833333333335,-0.09722222222222222,4.298300000011928],[-0.178125,-0.11462962962962958,4.311300000011919],[-0.18843749999999998,-0.11722222222222224,4.327900000005961],[-0.18072916666666666,-0.11037037037037041,4.348699999988078],[-0.1482291666666666,-0.07222222222222222,4.363999999999997],[-0.09760416666666671,-0.05648148148148148,4.378699999988079],[-0.04697916666666669,-0.040740740740740744,4.401800000011924],[-0.04697916666666669,-0.040740740740740744,4.411300000011927],[-0.03947916666666664,0.001851851851851852,4.428000000000004],[-0.0109375,-0.00851851851851856,4.445400000005968],[0.007604166666666619,0.016111111111111194,4.46519999998808],[-0.004479166666666619,-0.022222222222222223,4.480099999994046],[-0.026979166666666644,-0.02962962962962963,4.497800000011928],[0.025625000000000023,-0.006111111111111027,4.51569999998808],[0.06062500000000005,0.0003703703703704546,4.53180000001192],[0.058958333333333356,0.019259259259259216,4.547400000005958],[0.02833333333333338,0.05092592592592592,4.561199999988084],[0.005833333333333357,0.07481481481481478,4.577800000011926],[-0.011041666666666691,0.08666666666666659,4.594900000005957],[-0.05562499999999997,0.15537037037037033,4.611099999994046],[-0.05364583333333333,0.22166666666666676,4.6278000000119235],[-0.0020833333333333333,0.3133333333333334,4.644400000005966],[0.028750000000000022,0.33611111111111114,4.661199999988078],[-0.019479166666666714,0.3074074074074074,4.677800000011921],[-0.0702083333333333,0.30629629629629623,4.694599999994047],[-0.06322916666666671,0.2757407407407407,4.711199999988089],[-0.06322916666666671,0.2609259259259259,4.727800000011918],[-0.07135416666666666,0.25388888888888894,4.744500000000009],[-0.04354166666666662,0.16537037037037028,4.7610999999940375],[-0.007187499999999976,0.13629629629629633,4.777800000011929],[-0.029166666666666667,0.05685185185185194,4.797300000011923],[-0.06708333333333331,0.046481481481481526,4.811099999994049],[-0.08343750000000003,0.1287037037037037,4.83100000000001],[-0.08687499999999998,0.08499999999999996,4.8451999999880755],[-0.08822916666666672,0.021296296296296296,4.861400000005965],[-0.09083333333333338,0.027962962962963005,4.878000000000007],[-0.07562500000000003,0.028518518518518478,4.898500000000006],[-0.05458333333333331,-0.04740740740740745,4.913800000011925],[-0.0515625,-0.032777777777777864,4.928500000000007],[-0.049791666666666616,-0.032037037037036954,4.944499999999998],[-0.018020833333333285,-0.05333333333333336,4.961199999988089],[-0.049583333333333354,-0.11444444444444446,4.978099999994036],[-0.08197916666666671,-0.1992592592592593,4.994500000000009],[-0.12229166666666665,-0.15851851851851856,5.0110999999940375],[-0.1805208333333333,-0.1205555555555556,5.029199999988087],[-0.2375,-0.152962962962963,5.044500000000006],[-0.26281249999999995,-0.17907407407407405,5.061099999994049],[-0.2939583333333334,-0.1287037037037037,5.077800000011926],[-0.37052083333333335,-0.07037037037037037,5.097099999994036],[-0.38375,-0.07574074074074069,5.111199999988081],[-0.4305208333333333,-0.050370370370370454,5.128099999994042],[-0.40895833333333337,-0.04018518518518527,5.14459999999405],[-0.37177083333333333,-0.05129629629629638,5.163800000011925],[-0.32218749999999996,-0.044999999999999915,5.178000000000004],[-0.278125,-0.007592592592592635,5.195],[-0.23406250000000003,0.029814814814814856,5.213699999988087],[-0.20114583333333336,0.08629629629629634,5.227800000011918],[-0.13010416666666663,0.05962962962962971,5.246199999988086],[-0.03156249999999995,0.014074074074074116,5.2611999999880865],[-0.013333333333333286,0.03333333333333333,5.277800000011929],[0.03354166666666671,0.04870370370370362,5.297400000005958],[0.09802083333333324,0.03685185185185181,5.311099999994049],[0.146875,0.046296296296296294,5.330400000005959],[0.1428124999999999,0.02962962962962963,5.344500000000004],[0.18177083333333333,-0.018148148148148063,5.361099999994046],[0.19041666666666662,-0.08740740740740739,5.3778000000119235],[0.2048958333333334,-0.1381481481481482,5.396900000005964],[0.18093750000000006,-0.10703703703703706,5.411599999994046],[0.18093750000000006,-0.10703703703703706,5.43690000000597],[0.15302083333333344,-0.05425925925925928,5.453300000011929],[0.15302083333333344,-0.05425925925925928,5.461199999988089],[0.17354166666666657,-0.0712962962962963,5.477900000005967],[0.21552083333333344,-0.18611111111111112,5.495199999988081],[0.21552083333333344,-0.18611111111111112,5.5110999999940375],[0.23989583333333328,-0.2737037037037037,5.527900000005964],[0.21916666666666676,-0.3257407407407407,5.544500000000006],[0.2265625,-0.36796296296296294,5.563400000005963],[0.22229166666666675,-0.3557407407407408,5.577900000005961],[0.24666666666666662,-0.32222222222222224,5.594699999988087],[0.24468750000000009,-0.33259259259259266,5.61130000001193],[0.2171875,-0.3714814814814815,5.63059999999404],[0.1765625,-0.3792592592592593,5.64459999999405],[0.10385416666666672,-0.3677777777777778,5.661300000011927],[0.004791666666666691,-0.3346296296296296,5.680300000011918],[-0.05697916666666671,-0.25981481481481483,5.696199999988089],[-0.06291666666666665,-0.18037037037037032,5.711199999988089],[-0.06291666666666665,-0.18037037037037032,5.731199999988085],[-0.06677083333333336,-0.14425925925925923,5.744599999994044],[-0.06677083333333336,-0.14425925925925923,5.7611999999880865],[-0.06739583333333338,-0.17555555555555558,5.7834999999999965],[-0.06739583333333338,-0.17555555555555558,5.794599999994041],[-0.033645833333333285,-0.2729629629629629,5.811400000005968],[-0.033645833333333285,-0.2729629629629629,5.827900000005961],[-0.018124999999999978,-0.3118518518518518,5.848300000011925],[-0.018124999999999978,-0.3118518518518518,5.861199999988081],[0.041979166666666616,-0.32611111111111113,5.878000000000007],[0.041979166666666616,-0.32611111111111113,5.900500000000001],[0.10697916666666671,-0.3303703703703703,5.911300000011927],[0.13406250000000006,-0.3383333333333333,5.929099999994044],[0.16604166666666675,-0.27018518518518514,5.944499999999998],[0.15875000000000009,-0.26666666666666666,5.96109999999404],[0.14072916666666657,-0.30333333333333334,5.977800000011918],[0.16520833333333323,-0.28574074074074074,5.997099999994042],[0.12843749999999995,-0.2155555555555555,6.0110999999940375],[0.058958333333333356,-0.07907407407407405,6.02769999998808],[0.007708333333333309,-0.0011111111111111532,6.0444000000059575],[-0.065625,0.12037037037037036,6.061099999994049],[-0.11531250000000005,0.105925925925926,6.077800000011926],[-0.12708333333333333,0.09518518518518514,6.094500000000004],[-0.11916666666666664,0.14685185185185176,6.112900000005958],[-0.08395833333333336,0.15055555555555547,6.1278000000119235],[-0.06052083333333336,0.23555555555555563,6.144400000005966],[-0.06958333333333329,0.3472222222222222,6.161199999988078],[-0.06395833333333331,0.3640740740740741,6.177800000011921],[-0.03156249999999995,0.3646296296296296,6.194499999999998],[0.000833333333333286,0.3651851851851853,6.21109999999404],[0.0203125,0.280925925925926,6.227900000005967],[0.02833333333333338,0.2716666666666668,6.24440000000596],[0.035416666666666666,0.2581481481481481,6.2610999999940375],[0.04895833333333333,0.2553703703703703,6.277800000011929],[0.06802083333333328,0.32814814814814824,6.295999999999999],[0.0859375,0.30388888888888893,6.311199999988084],[0.04520833333333331,0.1712962962962963,6.327800000011926],[0.06749999999999995,0.2014814814814814,6.344500000000004],[0.049374999999999974,0.23851851851851844,6.361099999994046],[0.01875,0.27759259259259256,6.3778000000119235],[0.030520833333333285,0.37240740740740746,6.394800000011919],[0.04229166666666669,0.46722222222222215,6.411199999988078],[0.002708333333333357,0.42055555555555557,6.427800000011921],[-0.014374999999999952,0.412962962962963,6.444400000005963],[-0.034791666666666644,0.38796296296296295,6.461199999988089],[-0.09479166666666666,0.4353703703703704,6.477699999988083],[-0.09604166666666672,0.5337037037037038,6.496099999994037],[-0.09604166666666672,0.5337037037037038,6.5111999999880865],[-0.14906250000000001,0.5359259259259259,6.527800000011929],[-0.15812499999999996,0.5238888888888888,6.5444000000059575],[-0.15406249999999996,0.4305555555555556,6.561099999994049],[-0.1452083333333333,0.2462962962962963,6.577800000011926],[-0.13114583333333332,0.03592592592592588,6.594500000000004],[-0.06479166666666672,-0.028703703703703703,6.611099999994046],[-0.04510416666666662,-0.04203703703703712,6.6278000000119235],[-0.043437500000000046,-0.036481481481481566,6.644400000005966],[-0.0016666666666666904,-0.12222222222222222,6.661099999994043],[0.04031250000000005,-0.18925925925925924,6.677699999988086],[0.06531250000000005,-0.31444444444444447,6.694499999999998],[0.0821875000000001,-0.3979629629629629,6.713500000000003],[0.08833333333333329,-0.3905555555555555,6.727900000005967],[0.06468750000000002,-0.3044444444444444,6.744800000011928],[0.08114583333333343,-0.15833333333333333,6.7610999999940375],[0.09760416666666671,-0.012222222222222264,6.777800000011929],[0.08697916666666666,-0.025370370370370456,6.797300000011923],[0.07843749999999995,-0.08629629629629634,6.811099999994049],[0.05145833333333331,-0.1270370370370371,6.827900000005961],[0.05697916666666671,-0.09129629629629632,6.844599999994038],[0.07000000000000005,-0.015555555555555513,6.863599999994044],[0.03156249999999995,0.043703703703703745,6.8778000000119235],[0.0002083333333333807,0.08000000000000008,6.89459999999405],[-0.029791666666666692,0.13722222222222227,6.9110000000000085],[-0.09375,0.18629629629629635,6.930300000011918],[-0.14416666666666664,0.12444444444444452,6.944599999994047],[-0.1694791666666667,0.058333333333333334,6.96109999999404],[-0.19395833333333337,0.06444444444444436,6.977800000011918],[-0.18760416666666668,0.08499999999999996,6.997099999994042]]","[0.00030000001192576065,0.038199999988080435,0.044599999994041184,0.061199999988083675,0.07790000000596109,0.09459999999404545,0.11130000001192286,0.13119999998808396,0.14530000001192178,0.1611999999880851,0.1779000000059625,0.19530000001192604,0.21119999998808225,0.22790000000596677,0.24459999999404403,0.26390000000596103,0.27809999999404056,0.29509999999404357,0.3111999999880837,0.33059999999404255,0.3445000000000036,0.36119999998808083,0.3780000000000001,0.39819999998807987,0.4119000000059643,0.42809999999404624,0.444500000000005,0.4631999999880847,0.47800000000000153,0.4949000000059627,0.5144000000059634,0.5281999999880824,0.544699999988083,0.5613000000119257,0.5811999999880797,0.5965999999940408,0.6113000000119229,0.630500000000005,0.6446999999880845,0.6618000000119224,0.6808000000119279,0.6960999999940398,0.7114000000059661,0.7280000000000015,0.7480999999940465,0.7616999999880818,0.7780000000000058,0.7978000000119252,0.8113000000119257,0.828000000000003,0.8446999999880802,0.8638000000119277,0.8798000000119259,0.8960999999940427,0.9136999999880828,0.928199999988081,0.9446999999880816,0.963800000011922,0.9780000000000015,0.9953000000119232,1.0113000000119214,1.0305000000000035,1.046199999988083,1.0613000000119257,1.078000000000003,1.0981999999880827,1.1116999999880832,1.1280000000000001,1.1445999999940426,1.1638000000119249,1.1780000000000044,1.195199999988084,1.2148000000119268,1.2298000000119274,1.2445000000000022,1.2613000000119214,1.277800000011922,1.2950000000000017,1.3111999999880837,1.3278000000119263,1.3445999999940454,1.3618000000119252,1.381099999994042,1.3978000000119266,1.4113000000119271,1.4278000000119278,1.444500000000005,1.4610999999940404,1.477800000011925,1.4988000000119257,1.5149000000059658,1.5321999999880802,1.550300000011923,1.5613000000119257,1.578000000000003,1.6015999999940433,1.6113000000119229,1.6280000000000001,1.6454000000059636,1.6650000000000063,1.6788000000119254,1.6980000000000004,1.7159000000059663,1.7280999999940434,1.744699999988086,1.7614000000059633,1.7823000000119222,1.794800000011925,1.8114000000059605,1.835599999994045,1.8446999999880802,1.8613000000119229,1.8780000000000001,1.9001999999880823,1.9113000000119271,1.9280000000000044,1.9446999999880816,1.9658000000119245,1.9805999999940411,1.9969000000059651,2.0150000000000006,2.031699999988085,2.0469000000059623,2.0620999999940395,2.0805999999940425,2.096400000005964,2.1115000000000066,2.1309000000059655,2.1460999999940427,2.161300000011927,2.1803000000119184,2.197599999994047,2.2113000000119243,2.2314000000059693,2.2458000000119185,2.2675000000000054,2.2821999999880873,2.298000000000009,2.3113000000119186,2.32800000000001,2.3468000000119176,2.36130000001193,2.378000000000007,2.398099999994038,2.411300000011927,2.4280000000000044,2.4474000000059632,2.461400000005959,2.4780000000000015,2.4949999999999974,2.514000000000003,2.5280999999940477,2.545000000000009,2.5636999999880814,2.57800000000001,2.598099999994041,2.6130999999940414,2.628000000000007,2.6445999999940497,2.6636999999880757,2.6780000000000044,2.6964000000059585,2.7133000000119196,2.7279000000059668,2.744699999988079,2.7610999999940375,2.777800000011929,2.797699999988076,2.8113000000119186,2.827900000005961,2.8445000000000036,2.861099999994046,2.8779000000059582,2.8970999999940474,2.912699999988085,2.9278000000119206,2.944499999999998,2.9610999999940404,2.977800000011918,2.9945000000000093,3.0110999999940375,3.027800000011929,3.0444000000059575,3.0611999999880837,3.0778000000119263,3.0945000000000036,3.1115999999940485,3.1278000000119235,3.144400000005966,3.161199999988078,3.1778000000119206,3.194499999999998,3.2110999999940404,3.227800000011918,3.2445000000000093,3.2611999999880865,3.277800000011929,3.2945000000000064,3.3111999999880837,3.3278000000119263,3.3445000000000036,3.361199999988081,3.3779000000059582,3.397500000000001,3.4110999999940432,3.4278000000119206,3.444499999999998,3.4613000000119243,3.4810000000000016,3.497900000005963,3.511699999988089,3.530300000011927,3.545000000000009,3.5614000000059676,3.57800000000001,3.5994000000059643,3.6130999999940414,3.6279000000059582,3.6445999999940497,3.6636999999880757,3.6786999999880763,3.696000000000005,3.7143000000119244,3.7280000000000015,3.744599999994044,3.76759999999404,3.7780999999940477,3.794800000011925,3.8168000000119306,3.82800000000001,3.8445999999940383,3.861199999988081,3.8778000000119235,3.8945999999940497,3.911199999988078,3.9278000000119206,3.944499999999998,3.9610999999940404,3.977800000011918,3.994800000011928,4.0110999999940375,4.027900000005964,4.0444000000059575,4.061699999988086,4.077800000011926,4.095000000000006,4.111199999988081,4.1278000000119235,4.144500000000001,4.161199999988078,4.17790000000597,4.195800000011921,4.211199999988089,4.227800000011918,4.247500000000009,4.262999999999998,4.278400000005966,4.298300000011928,4.311300000011919,4.327900000005961,4.348699999988078,4.363999999999997,4.378699999988079,4.401800000011924,4.411300000011927,4.428000000000004,4.445400000005968,4.46519999998808,4.480099999994046,4.497800000011928,4.51569999998808,4.53180000001192,4.547400000005958,4.561199999988084,4.577800000011926,4.594900000005957,4.611099999994046,4.6278000000119235,4.644400000005966,4.661199999988078,4.677800000011921,4.694599999994047,4.711199999988089,4.727800000011918,4.744500000000009,4.7610999999940375,4.777800000011929,4.797300000011923,4.811099999994049,4.83100000000001,4.8451999999880755,4.861400000005965,4.878000000000007,4.898500000000006,4.913800000011925,4.928500000000007,4.944499999999998,4.961199999988089,4.978099999994036,4.994500000000009,5.0110999999940375,5.029199999988087,5.044500000000006,5.061099999994049,5.077800000011926,5.097099999994036,5.111199999988081,5.128099999994042,5.14459999999405,5.163800000011925,5.178000000000004,5.195,5.213699999988087,5.227800000011918,5.246199999988086,5.2611999999880865,5.277800000011929,5.297400000005958,5.311099999994049,5.330400000005959,5.344500000000004,5.361099999994046,5.3778000000119235,5.396900000005964,5.411599999994046,5.43690000000597,5.453300000011929,5.461199999988089,5.477900000005967,5.495199999988081,5.5110999999940375,5.527900000005964,5.544500000000006,5.563400000005963,5.577900000005961,5.594699999988087,5.61130000001193,5.63059999999404,5.64459999999405,5.661300000011927,5.680300000011918,5.696199999988089,5.711199999988089,5.731199999988085,5.744599999994044,5.7611999999880865,5.7834999999999965,5.794599999994041,5.811400000005968,5.827900000005961,5.848300000011925,5.861199999988081,5.878000000000007,5.900500000000001,5.911300000011927,5.929099999994044,5.944499999999998,5.96109999999404,5.977800000011918,5.997099999994042,6.0110999999940375,6.02769999998808,6.0444000000059575,6.061099999994049,6.077800000011926,6.094500000000004,6.112900000005958,6.1278000000119235,6.144400000005966,6.161199999988078,6.177800000011921,6.194499999999998,6.21109999999404,6.227900000005967,6.24440000000596,6.2610999999940375,6.277800000011929,6.295999999999999,6.311199999988084,6.327800000011926,6.344500000000004,6.361099999994046,6.3778000000119235,6.394800000011919,6.411199999988078,6.427800000011921,6.444400000005963,6.461199999988089,6.477699999988083,6.496099999994037,6.5111999999880865,6.527800000011929,6.5444000000059575,6.561099999994049,6.577800000011926,6.594500000000004,6.611099999994046,6.6278000000119235,6.644400000005966,6.661099999994043,6.677699999988086,6.694499999999998,6.713500000000003,6.727900000005967,6.744800000011928,6.7610999999940375,6.777800000011929,6.797300000011923,6.811099999994049,6.827900000005961,6.844599999994038,6.863599999994044,6.8778000000119235,6.89459999999405,6.9110000000000085,6.930300000011918,6.944599999994047,6.96109999999404,6.977800000011918,6.997099999994042]","[1733384617913,1733384617944,1733384617950,1733384617967,1733384617983,1733384618000,1733384618017,1733384618037,1733384618051,1733384618067,1733384618083,1733384618101,1733384618117,1733384618133,1733384618150,1733384618169,1733384618184,1733384618201,1733384618217,1733384618236,1733384618250,1733384618267,1733384618284,1733384618304,1733384618317,1733384618334,1733384618350,1733384618369,1733384618384,1733384618400,1733384618420,1733384618434,1733384618450,1733384618467,1733384618487,1733384618502,1733384618517,1733384618536,1733384618550,1733384618567,1733384618586,1733384618602,1733384618617,1733384618633,1733384618654,1733384618667,1733384618684,1733384618703,1733384618717,1733384618734,1733384618750,1733384618769,1733384618785,1733384618802,1733384618819,1733384618834,1733384618850,1733384618869,1733384618883,1733384618901,1733384618917,1733384618936,1733384618952,1733384618967,1733384618984,1733384619004,1733384619017,1733384619033,1733384619050,1733384619069,1733384619083,1733384619101,1733384619120,1733384619135,1733384619150,1733384619167,1733384619183,1733384619201,1733384619217,1733384619233,1733384619250,1733384619267,1733384619287,1733384619303,1733384619317,1733384619333,1733384619350,1733384619367,1733384619383,1733384619404,1733384619420,1733384619438,1733384619456,1733384619467,1733384619484,1733384619507,1733384619517,1733384619534,1733384619551,1733384619570,1733384619584,1733384619603,1733384619621,1733384619634,1733384619650,1733384619667,1733384619688,1733384619700,1733384619717,1733384619741,1733384619750,1733384619767,1733384619784,1733384619806,1733384619817,1733384619833,1733384619850,1733384619871,1733384619886,1733384619902,1733384619920,1733384619937,1733384619952,1733384619968,1733384619986,1733384620002,1733384620017,1733384620036,1733384620052,1733384620067,1733384620086,1733384620103,1733384620117,1733384620137,1733384620151,1733384620173,1733384620188,1733384620204,1733384620217,1733384620233,1733384620252,1733384620267,1733384620283,1733384620304,1733384620317,1733384620334,1733384620353,1733384620367,1733384620383,1733384620401,1733384620420,1733384620434,1733384620451,1733384620469,1733384620484,1733384620504,1733384620519,1733384620534,1733384620550,1733384620569,1733384620584,1733384620602,1733384620619,1733384620633,1733384620650,1733384620667,1733384620683,1733384620703,1733384620717,1733384620733,1733384620750,1733384620767,1733384620783,1733384620803,1733384620818,1733384620833,1733384620850,1733384620867,1733384620883,1733384620900,1733384620917,1733384620933,1733384620950,1733384620967,1733384620983,1733384621000,1733384621017,1733384621033,1733384621050,1733384621067,1733384621083,1733384621100,1733384621117,1733384621133,1733384621150,1733384621167,1733384621183,1733384621200,1733384621217,1733384621233,1733384621250,1733384621267,1733384621283,1733384621303,1733384621317,1733384621333,1733384621350,1733384621367,1733384621387,1733384621403,1733384621417,1733384621436,1733384621450,1733384621467,1733384621483,1733384621505,1733384621519,1733384621533,1733384621550,1733384621569,1733384621584,1733384621602,1733384621620,1733384621634,1733384621650,1733384621673,1733384621684,1733384621700,1733384621722,1733384621734,1733384621750,1733384621767,1733384621783,1733384621800,1733384621817,1733384621833,1733384621850,1733384621867,1733384621883,1733384621900,1733384621917,1733384621933,1733384621950,1733384621967,1733384621983,1733384622000,1733384622017,1733384622033,1733384622050,1733384622067,1733384622083,1733384622101,1733384622117,1733384622133,1733384622153,1733384622169,1733384622184,1733384622204,1733384622217,1733384622233,1733384622254,1733384622270,1733384622284,1733384622307,1733384622317,1733384622334,1733384622351,1733384622371,1733384622386,1733384622403,1733384622421,1733384622437,1733384622453,1733384622467,1733384622483,1733384622500,1733384622517,1733384622533,1733384622550,1733384622567,1733384622583,1733384622600,1733384622617,1733384622633,1733384622650,1733384622667,1733384622683,1733384622703,1733384622717,1733384622736,1733384622751,1733384622767,1733384622784,1733384622804,1733384622819,1733384622834,1733384622850,1733384622867,1733384622884,1733384622900,1733384622917,1733384622935,1733384622950,1733384622967,1733384622983,1733384623003,1733384623017,1733384623034,1733384623050,1733384623069,1733384623083,1733384623101,1733384623119,1733384623133,1733384623152,1733384623167,1733384623183,1733384623203,1733384623217,1733384623236,1733384623250,1733384623267,1733384623283,1733384623302,1733384623317,1733384623342,1733384623359,1733384623367,1733384623383,1733384623401,1733384623417,1733384623433,1733384623450,1733384623469,1733384623483,1733384623500,1733384623517,1733384623536,1733384623550,1733384623567,1733384623586,1733384623602,1733384623617,1733384623637,1733384623650,1733384623667,1733384623689,1733384623700,1733384623717,1733384623733,1733384623754,1733384623767,1733384623783,1733384623806,1733384623817,1733384623835,1733384623850,1733384623867,1733384623883,1733384623903,1733384623917,1733384623933,1733384623950,1733384623967,1733384623983,1733384624000,1733384624018,1733384624033,1733384624050,1733384624067,1733384624083,1733384624100,1733384624117,1733384624133,1733384624150,1733384624167,1733384624183,1733384624201,1733384624217,1733384624233,1733384624250,1733384624267,1733384624283,1733384624300,1733384624317,1733384624333,1733384624350,1733384624367,1733384624383,1733384624402,1733384624417,1733384624433,1733384624450,1733384624467,1733384624483,1733384624500,1733384624517,1733384624533,1733384624550,1733384624567,1733384624583,1733384624600,1733384624619,1733384624633,1733384624650,1733384624667,1733384624683,1733384624703,1733384624717,1733384624733,1733384624750,1733384624769,1733384624783,1733384624800,1733384624817,1733384624836,1733384624850,1733384624867,1733384624883,1733384624903]","[[1036.1,767.4],[1036.1,767.4],[1036.1,767.4],[1074.1,767.1],[1109.2,736.8],[1109.2,736.8],[1110.3,711.9],[1074.6,700.5],[1024.3,689.4],[1011.5,673.3],[1011,611.8],[996.8,562.1],[982.6,512.4],[962.5,462.9],[962.5,462.9],[946.6,406.1],[935.2,398.1],[904.4,362],[939.9,337.1],[966.8,326.8],[982.4,336.7],[992.1,411.1],[1001.8,485.5],[1042.3,572.5],[1023.3,608.5],[1004.3,644.5],[943.6,649.3],[902.3,682.2],[871.6,715.3],[841.2,730.1],[841.2,730.1],[828,737.6],[792.2,708.4],[756.4,679.2],[677.7,650.5],[699.5,673.3],[721.3,696.1],[752.3,726.8],[809.8,747],[824.5,763.6],[839.2,780.2],[821.1,740.7],[819.2,718.8],[855.1,743.7],[885.5,735.9],[874.7,749.9],[863.9,763.9],[871.5,748],[845.2,745.8],[829.4,736.1],[819.4,717.1],[836.3,741.3],[852.2,785.9],[830.3,783.7],[823,773.7],[827.9,741.9],[818.2,731.9],[816.9,741.9],[839.6,734.3],[862.3,726.7],[879.2,728.4],[924,693],[948.1,677.8],[990.5,657.8],[1035.9,665.2],[1043.3,657.2],[1067.4,578.5],[1061.2,567.6],[1037.1,571.8],[1060.5,550.3],[1093,515.6],[1072.8,549.9],[1074.3,543.6],[1068.1,551.2],[1090,566.4],[1131,595.7],[1041.1,663.9],[981.5,664.3],[946.7,664.7],[869.8,703.2],[821,763.6],[819.5,773.3],[839.6,765.1],[839.6,765.1],[863.9,753.3],[783.3,706.2],[702.4,662],[748.1,644.8],[777.9,651.2],[834.6,630.8],[908.1,627.8],[866.4,598.6],[810.4,590.2],[810.4,590.2],[797.9,600.7],[774.3,583.8],[774.3,583.8],[850.3,634.3],[882.9,653.4],[937.3,646.5],[1029.4,628.8],[1071.1,637.2],[1040.1,618.6],[1040.1,618.6],[1131.3,610],[1131.3,610],[1182.9,590.8],[1182.9,590.8],[1177.5,602.9],[1152,663.9],[1152,663.9],[1141.4,635.8],[1141.4,635.8],[1153.8,642],[1153.8,642],[1168.8,640.4],[1162,626],[1148,601.2],[1202,604.9],[1211.8,616.1],[1271.3,627.8],[1275.9,624.1],[1256.4,546.3],[1199.2,517.9],[1163.9,510.2],[1116.1,512.6],[1123.1,524.9],[1137.3,547.6],[1119.7,532.2],[1102.1,516.8],[1059,511],[1056.8,498.8],[1095.1,533.7],[1104.7,561.2],[1140.7,570.9],[1140.7,570.9],[1135.1,559],[1112,599.4],[1088.9,639.8],[1044.4,660.8],[999.9,681.8],[987.4,687.2],[980.8,682.1],[959.6,698],[970.1,709.9],[953,713.1],[959.3,747.6],[970.6,722.5],[924.5,679.9],[914.1,663.5],[914.1,663.5],[956.8,659.1],[966.7,654.4],[976.6,649.7],[1027.3,641.5],[1075,644.7],[1122.7,647.9],[1168.6,655.5],[1172.2,660.5],[1202.1,672.9],[1261.5,676.7],[1280.3,664.9],[1307.1,667.5],[1300.2,691.8],[1267.1,698.6],[1228.8,702.5],[1190.5,706.4],[1168.5,695.7],[1101.5,671],[1065.6,656.4],[1020.1,669.7],[968.2,695.8],[899.9,686.2],[865.3,654.9],[872.4,655.7],[884.7,659.4],[855.5,626.4],[836.1,607.9],[868,577.8],[898.9,551.5],[909.9,505.9],[892.6,465.1],[891.7,460],[946.1,521.2],[958.8,550.3],[923,549.6],[928.7,585.6],[975.2,634.5],[1015.4,709],[1056.8,783.8],[1098.2,858.6],[1098.2,858.6],[1140.7,858.4],[1177.2,884.9],[1149,862.4],[1130,823.6],[1145.5,792],[1162.7,758.9],[1119.9,677.1],[1086.3,630.4],[1073.1,548.3],[1058.6,516.5],[1071.9,487.3],[1094.6,467.4],[1127.5,429.9],[1117.6,420.7],[1117.6,420.7],[1121.7,434.1],[1167.1,429.3],[1165.9,454.1],[1155.5,443.8],[1078.8,501.1],[1085.3,488.5],[1034.6,537.8],[979.6,549.8],[918.6,565.7],[918.2,563.9],[918.1,563.4],[853.6,579.3],[857.9,586.9],[861.3,608.9],[910.4,594.6],[876.2,588.8],[876.2,588.8],[900.9,581.5],[900.9,581.5],[923.9,583.7],[923.9,583.7],[951.9,577.7],[951.9,577.7],[952.2,584.8],[952.2,584.8],[935.1,596.1],[935.1,596.1],[952.9,603],[981.6,632.8],[1011.2,648.2],[1000.9,640.7],[992,644.3],[964.4,660.2],[988.7,655.8],[1013.2,656],[1023.2,652.4],[1050.3,643.3],[1081.1,655.6],[1082.2,652.2],[1052.9,625],[1063.5,620.7],[1076.6,619.7],[1100,604.4],[1030.1,593.5],[960.2,582.6],[905.5,568.1],[886.8,545.6],[850.9,509.4],[811.8,480.2],[795.4,487.5],[795.4,487.5],[789,478.1],[779.1,476.7],[786.5,480.4],[817.7,501],[866.3,509.5],[914.9,518],[914.9,518],[922.1,541],[949.5,535.4],[967.3,548.7],[955.7,528],[934.1,524],[984.6,536.7],[1018.2,540.2],[1016.6,550.4],[987.2,567.5],[965.6,580.4],[949.4,586.8],[906.6,623.9],[908.5,659.7],[958,709.2],[987.6,721.5],[941.3,706],[892.6,705.4],[899.3,688.9],[899.3,680.9],[891.5,677.1],[918.2,629.3],[953.1,613.6],[932,570.7],[895.6,565.1],[879.9,609.5],[876.6,585.9],[875.3,551.5],[872.8,555.1],[887.4,555.4],[907.6,514.4],[910.5,522.3],[912.2,522.7],[942.7,511.2],[912.4,478.2],[881.3,432.4],[842.6,454.4],[786.7,474.9],[732,457.4],[707.7,443.3],[677.8,470.5],[604.3,502],[591.6,499.1],[546.7,512.8],[567.4,518.3],[603.1,512.3],[650.7,515.7],[693,535.9],[735.3,556.1],[766.9,586.6],[835.1,572.2],[929.7,547.6],[947.2,558],[992.2,566.3],[1054.1,559.9],[1101,565],[1097.1,556],[1134.5,530.2],[1142.8,492.8],[1156.7,465.4],[1133.7,482.2],[1133.7,482.2],[1106.9,510.7],[1106.9,510.7],[1126.6,501.5],[1166.9,439.5],[1166.9,439.5],[1190.3,392.2],[1170.4,364.1],[1177.5,341.3],[1173.4,347.9],[1196.8,366],[1194.9,360.4],[1168.5,339.4],[1129.5,335.2],[1059.7,341.4],[964.6,359.3],[905.3,399.7],[899.6,442.6],[899.6,442.6],[895.9,462.1],[895.9,462.1],[895.3,445.2],[895.3,445.2],[927.7,392.6],[927.7,392.6],[942.6,371.6],[942.6,371.6],[1000.3,363.9],[1000.3,363.9],[1062.7,361.6],[1088.7,357.3],[1119.4,394.1],[1112.4,396],[1095.1,376.2],[1118.6,385.7],[1083.3,423.6],[1016.6,497.3],[967.4,539.4],[897,605],[849.3,597.2],[838,591.4],[845.6,619.3],[879.4,621.3],[901.9,667.2],[893.2,727.5],[898.6,736.6],[929.7,736.9],[960.8,737.2],[979.5,691.7],[987.2,686.7],[994,679.4],[1007,677.9],[1025.3,717.2],[1042.5,704.1],[1003.4,632.5],[1024.8,648.8],[1007.4,668.8],[978,689.9],[989.3,741.1],[1000.6,792.3],[962.6,767.1],[946.2,763],[926.6,749.5],[869,775.1],[867.8,828.2],[867.8,828.2],[816.9,829.4],[808.2,822.9],[812.1,772.5],[820.6,673],[834.1,559.4],[897.8,524.5],[916.7,517.3],[918.3,520.3],[958.4,474],[998.7,437.8],[1022.7,370.2],[1038.9,325.1],[1044.8,329.1],[1022.1,375.6],[1037.9,454.5],[1053.7,533.4],[1043.5,526.3],[1035.3,493.4],[1009.4,471.4],[1014.7,490.7],[1027.2,531.6],[990.3,563.6],[960.2,583.2],[931.4,614.1],[870,640.6],[821.6,607.2],[797.3,571.5],[773.8,574.8],[779.9,585.9]]","[0,0.3527331528]","[0.3527331528,0.3527331528]","[-0.3527331528,0]","[-0.3527331528,-0.3527331528]","[0,0]","[0.3527331528,0]","[0,-0.3527331528]","[0.3527331528,-0.3527331528]",0,0,0,0,1,1,Tablet,7,7,15,9
