inst1_resp.keys,inst1_resp.rt,calibrationMouse.x,calibrationMouse.y,calibrationMouse.leftButton,calibrationMouse.midButton,calibrationMouse.rightButton,calibrationClick.x,calibrationClick.y,calibrationClick.leftButton,calibrationClick.midButton,calibrationClick.rightButton,trialsc.thisRepN,trialsc.thisTrialN,trialsc.thisN,trialsc.thisIndex,trialsc.ran,calibration_x,calibration_y,participant,session,date,expName,psychopyVersion,OS,frameRate,calibrationClick.clicked_name,ScreenRes_pixels,Camera_pixels,mouse_2.x,mouse_2.y,mouse_2.leftButton,mouse_2.midButton,mouse_2.rightButton,mouse_2.time,mouse_2.clicked_name,mouse.x,mouse.y,mouse.leftButton,mouse.midButton,mouse.rightButton,mouse.time,mouse.clicked_name,Choice,Trial,TrialDuration,MOUSE_GAZE,ET_GAZE,ET_GAZE_x_T,time,unixTime,ET_GAZE_NF,Loc_Option1_label,Loc_Option2_label,Loc_Cost_label,Loc_Qual_label,Loc_Option1_cost,Loc_Option2_cost,Loc_Option1_quality,Loc_Option2_quality,trials.thisRepN,trials.thisTrialN,trials.thisN,trials.thisIndex,trials.ran,Block,Device,cost1,qual1,cost2,qual2
space,1.4978,0.001041667,-0.012962963,1,0,0,0.317708333,0.316666667,1,0,0,0,0,0,17,1,0.33,0.33,22,001,2024-11-29_17h33.42.753,Attention_exp_legacy,2023.1.0,Win32,60.24096386,,,,,,,,,,,,,,,,,,,,,,,,,,,,,,,,,,,,,,,,,,,,,
,,,,,,,-0.327083333,-0.674074074,1,0,0,0,1,1,4,1,-0.33,-0.67,22,001,2024-11-29_17h33.42.753,Attention_exp_legacy,2023.1.0,Win32,60.24096386,calibration_square,,,,,,,,,,,,,,,,,,,,,,,,,,,,,,,,,,,,,,,,,,,,
,,,,,,,-0.66875,0.02037037,1,0,0,0,2,2,2,1,-0.67,0,22,001,2024-11-29_17h33.42.753,Attention_exp_legacy,2023.1.0,Win32,60.24096386,,,,,,,,,,,,,,,,,,,,,,,,,,,,,,,,,,,,,,,,,,,,,
,,,,,,,0.338541667,-0.001851852,1,0,0,0,3,3,16,1,0.33,0,22,001,2024-11-29_17h33.42.753,Attention_exp_legacy,2023.1.0,Win32,60.24096386,calibration_square,,,,,,,,,,,,,,,,,,,,,,,,,,,,,,,,,,,,,,,,,,,,
,,,,,,,0.00625,-0.024074074,1,0,0,0,4,4,11,1,0,0,22,001,2024-11-29_17h33.42.753,Attention_exp_legacy,2023.1.0,Win32,60.24096386,,,,,,,,,,,,,,,,,,,,,,,,,,,,,,,,,,,,,,,,,,,,,
,,,,,,,-0.325,0.325925926,1,0,0,0,5,5,7,1,-0.33,0.33,22,001,2024-11-29_17h33.42.753,Attention_exp_legacy,2023.1.0,Win32,60.24096386,calibration_square,,,,,,,,,,,,,,,,,,,,,,,,,,,,,,,,,,,,,,,,,,,,
,,,,,,,0.323958333,0.662962963,1,0,0,0,6,6,18,1,0.33,0.67,22,001,2024-11-29_17h33.42.753,Attention_exp_legacy,2023.1.0,Win32,60.24096386,calibration_square,,,,,,,,,,,,,,,,,,,,,,,,,,,,,,,,,,,,,,,,,,,,
,,,,,,,-0.665625,-0.655555556,1,0,0,0,7,7,0,1,-0.67,-0.67,22,001,2024-11-29_17h33.42.753,Attention_exp_legacy,2023.1.0,Win32,60.24096386,,,,,,,,,,,,,,,,,,,,,,,,,,,,,,,,,,,,,,,,,,,,,
,,,,,,,0.320833333,-0.340740741,1,0,0,0,8,8,15,1,0.33,-0.33,22,001,2024-11-29_17h33.42.753,Attention_exp_legacy,2023.1.0,Win32,60.24096386,,,,,,,,,,,,,,,,,,,,,,,,,,,,,,,,,,,,,,,,,,,,,
,,,,,,,-0.347916667,-0.316666667,1,0,0,0,9,9,5,1,-0.33,-0.33,22,001,2024-11-29_17h33.42.753,Attention_exp_legacy,2023.1.0,Win32,60.24096386,,,,,,,,,,,,,,,,,,,,,,,,,,,,,,,,,,,,,,,,,,,,,
,,,,,,,-0.319791667,0.005555556,1,0,0,0,10,10,6,1,-0.33,0,22,001,2024-11-29_17h33.42.753,Attention_exp_legacy,2023.1.0,Win32,60.24096386,,,,,,,,,,,,,,,,,,,,,,,,,,,,,,,,,,,,,,,,,,,,,
,,,,,,,0.317708333,-0.655555556,1,0,0,0,11,11,14,1,0.33,-0.67,22,001,2024-11-29_17h33.42.753,Attention_exp_legacy,2023.1.0,Win32,60.24096386,,,,,,,,,,,,,,,,,,,,,,,,,,,,,,,,,,,,,,,,,,,,,
,,,,,,,0.009375,-0.324074074,1,0,0,0,12,12,10,1,0,-0.33,22,001,2024-11-29_17h33.42.753,Attention_exp_legacy,2023.1.0,Win32,60.24096386,calibration_square,,,,,,,,,,,,,,,,,,,,,,,,,,,,,,,,,,,,,,,,,,,,
,,,,,,,0.663541667,-0.681481481,1,0,0,0,13,13,20,1,0.67,-0.67,22,001,2024-11-29_17h33.42.753,Attention_exp_legacy,2023.1.0,Win32,60.24096386,,,,,,,,,,,,,,,,,,,,,,,,,,,,,,,,,,,,,,,,,,,,,
,,,,,,,0.005208333,-0.666666667,1,0,0,0,14,14,9,1,0,-0.67,22,001,2024-11-29_17h33.42.753,Attention_exp_legacy,2023.1.0,Win32,60.24096386,calibration_square,,,,,,,,,,,,,,,,,,,,,,,,,,,,,,,,,,,,,,,,,,,,
,,,,,,,0.670833333,0.672222222,1,0,0,0,15,15,19,1,0.67,0.67,22,001,2024-11-29_17h33.42.753,Attention_exp_legacy,2023.1.0,Win32,60.24096386,calibration_square,,,,,,,,,,,,,,,,,,,,,,,,,,,,,,,,,,,,,,,,,,,,
,,,,,,,-0.003125,0.659259259,1,0,0,0,16,16,13,1,0,0.67,22,001,2024-11-29_17h33.42.753,Attention_exp_legacy,2023.1.0,Win32,60.24096386,,,,,,,,,,,,,,,,,,,,,,,,,,,,,,,,,,,,,,,,,,,,,
,,,,,,,-0.666666667,0.327777778,1,0,0,0,17,17,3,1,-0.67,0.33,22,001,2024-11-29_17h33.42.753,Attention_exp_legacy,2023.1.0,Win32,60.24096386,calibration_square,,,,,,,,,,,,,,,,,,,,,,,,,,,,,,,,,,,,,,,,,,,,
,,,,,,,0.009375,0.335185185,1,0,0,0,18,18,12,1,0,0.33,22,001,2024-11-29_17h33.42.753,Attention_exp_legacy,2023.1.0,Win32,60.24096386,calibration_square,,,,,,,,,,,,,,,,,,,,,,,,,,,,,,,,,,,,,,,,,,,,
,,,,,,,-0.330208333,0.668518519,1,0,0,0,19,19,8,1,-0.33,0.67,22,001,2024-11-29_17h33.42.753,Attention_exp_legacy,2023.1.0,Win32,60.24096386,calibration_square,,,,,,,,,,,,,,,,,,,,,,,,,,,,,,,,,,,,,,,,,,,,
,,,,,,,-0.672916667,-0.327777778,1,0,0,0,20,20,1,1,-0.67,-0.33,22,001,2024-11-29_17h33.42.753,Attention_exp_legacy,2023.1.0,Win32,60.24096386,calibration_square,,,,,,,,,,,,,,,,,,,,,,,,,,,,,,,,,,,,,,,,,,,,
,,,,,,,,,,,,,,,,,,,22,001,2024-11-29_17h33.42.753,Attention_exp_legacy,2023.1.0,Win32,60.24096386,,"[1920,1080]","[640,480]",[0.078125],[-0.49444444444444446],[1],[0],[0],[2.0118999999761513],"[""StartButton""]",[0.03125],[0.5203703703703704],[1],[0],[0],[3.6692999999523295],"[""Option1_label""]",Option1_label,1,4.6791,"[[0.0375,-0.45],[0.0375,-0.45],[0.0375,-0.45],[0.0375,-0.45],[0.0375,-0.45],[0.0375,-0.45],[0.0375,-0.45],[0.0375,-0.45],[0.0375,-0.45],[0.0375,-0.45],[0.0375,-0.45],[0.0375,-0.45],[0.0375,-0.45],[0.0375,-0.45],[0.0375,-0.45],[0.0375,-0.45],[0.0375,-0.45],[0.0375,-0.45],[0.0375,-0.45],[0.0375,-0.45],[0.0375,-0.45],[0.0375,-0.45],[0.0375,-0.45],[0.0375,-0.45],[0.0375,-0.45],[0.0375,-0.45],[0.0375,-0.45],[0.0375,-0.45],[0.0375,-0.45],[0.0375,-0.45],[0.0375,-0.45],[0.0375,-0.45],[0.0375,-0.45],[0.0375,-0.45],[0.0375,-0.45],[0.0375,-0.45],[0.0375,-0.45],[0.0375,-0.45],[0.0375,-0.45],[0.0375,-0.45],[0.0375,-0.45],[0.0375,-0.45],[0.0375,-0.45],[0.0375,-0.45],[0.0375,-0.45],[0.0375,-0.45],[0.0375,-0.45],[0.0375,-0.45],[0.0375,-0.45],[0.0375,-0.45],[0.0375,-0.45],[0.0375,-0.45],[0.0375,-0.45],[0.0375,-0.45],[0.0375,-0.45],[0.0375,-0.45],[0.0375,-0.45],[0.0375,-0.45],[0.0375,-0.45],[0.0375,-0.45],[0.0375,-0.45],[0.0375,-0.45],[0.0375,-0.45],[0.0375,-0.45],[0.0375,-0.45],[0.0375,-0.45],[0.0375,-0.45],[0.0375,-0.45],[0.0375,-0.45],[0.0375,-0.45],[0.0375,-0.45],[0.0375,-0.45],[0.0375,-0.45],[0.0375,-0.45],[0.0375,-0.45],[0.0375,-0.45],[0.0375,-0.45],[0.0375,-0.45],[0.0375,-0.45],[0.0375,-0.45],[0.0375,-0.45],[0.0375,-0.45],[0.0375,-0.45],[0.0375,-0.45],[0.0375,-0.45],[0.0375,-0.45],[0.0375,-0.45],[0.0375,-0.45],[0.0375,-0.45],[0.0375,-0.45],[0.0375,-0.45],[0.0375,-0.45],[0.0375,-0.45],[0.0375,-0.45],[0.0375,-0.45],[0.0375,-0.45],[0.0375,-0.45],[0.0375,-0.45],[0.0375,-0.45],[0.0375,-0.45],[0.0375,-0.45],[0.0375,-0.45],[0.0375,-0.45],[0.0375,-0.45],[0.0375,-0.45],[0.0375,-0.45],[0.0375,-0.45],[0.0375,-0.45],[0.0375,-0.45],[0.0375,-0.45],[0.0375,-0.45],[0.0375,-0.45],[0.0375,-0.45],[0.0375,-0.45],[0.0375,-0.45],[0.0375,-0.45],[0.0375,-0.45],[0.0375,-0.45],[0.0375,-0.45],[0.0375,-0.45],[0.0375,-0.45],[0.0375,-0.45],[0.0375,-0.45],[0.0375,-0.45],[0.0375,-0.45],[0.0375,-0.45],[0.0375,-0.45],[0.0375,-0.45],[0.0375,-0.45],[0.0375,-0.45],[0.0375,-0.45],[0.0375,-0.45],[0.0375,-0.45],[0.0375,-0.45],[0.0375,-0.45],[0.0375,-0.45],[0.0375,-0.45],[0.0375,-0.45],[0.0375,-0.45],[0.0375,-0.45],[0.0375,-0.45],[0.0375,-0.45],[0.0375,-0.45],[0.0375,-0.45],[0.0375,-0.45],[0.0375,-0.45],[0.0375,-0.45],[0.0375,-0.45],[0.0375,-0.45],[0.0375,-0.45],[0.0375,-0.45],[0.0375,-0.45],[0.0375,-0.45],[0.0375,-0.45],[0.0375,-0.45],[0.0375,-0.45],[0.0375,-0.45],[0.0375,-0.45],[0.0375,-0.45],[0.0375,-0.45],[0.0375,-0.45],[0.0375,-0.45],[0.0375,-0.45],[0.0375,-0.45],[0.0375,-0.45],[0.0375,-0.45],[0.0375,-0.45],[0.0375,-0.45],[0.0375,-0.45],[0.0375,-0.45],[0.0375,-0.45],[0.0375,-0.45],[0.0375,-0.45],[0.0375,-0.45],[0.0375,-0.45],[0.0375,-0.45],[0.0375,-0.45],[0.0375,-0.45],[0.0375,-0.45],[0.0375,-0.45],[0.0375,-0.45],[0.0375,-0.45],[0.0375,-0.45],[0.0375,-0.45],[0.0375,-0.45],[0.0375,-0.45],[0.0375,-0.45],[0.0375,-0.45],[0.0375,-0.45],[0.0375,-0.45],[0.0375,-0.45],[0.03854166666666667,-0.44074074074074077],[0.040625,-0.3814814814814815],[0.040625,-0.35185185185185186],[0.040625,-0.22037037037037038],[0.0375,-0.14814814814814814],[0.028125,0.08703703703703704],[0.028125,0.2222222222222222],[0.03125,0.3074074074074074],[0.03125,0.3685185185185185],[0.03125,0.40925925925925927],[0.03125,0.43703703703703706],[0.03125,0.45740740740740743],[0.03125,0.4685185185185185],[0.03125,0.4740740740740741],[0.03125,0.48518518518518516],[0.03125,0.5074074074074074],[0.03125,0.5148148148148148],[0.03125,0.5166666666666667],[0.03125,0.5203703703703704],[0.03125,0.5203703703703704],[0.03125,0.5203703703703704],[0.03125,0.5203703703703704],[0.03125,0.5203703703703704],[0.03125,0.5203703703703704],[0.03125,0.5203703703703704],[0.03125,0.5203703703703704],[0.03125,0.5203703703703704],[0.03125,0.5203703703703704],[0.03125,0.5203703703703704],[0.03125,0.5203703703703704],[0.03125,0.5203703703703704],[0.03125,0.5203703703703704],[0.03125,0.5203703703703704],[0.03125,0.5203703703703704],[0.03125,0.5203703703703704],[0.03125,0.5203703703703704],[0.03125,0.5203703703703704],[0.03125,0.5203703703703704],[0.03125,0.5203703703703704],[0.03125,0.5203703703703704],[0.03125,0.5203703703703704],[0.03125,0.5203703703703704],[0.03125,0.5203703703703704],[0.03125,0.5203703703703704],[0.03125,0.5203703703703704],[0.03125,0.5203703703703704],[0.03125,0.5203703703703704],[0.03125,0.5203703703703704],[0.03125,0.5203703703703704],[0.03125,0.5203703703703704],[0.03125,0.5203703703703704],[0.03125,0.5203703703703704],[0.03125,0.5203703703703704],[0.03125,0.5203703703703704],[0.03125,0.5203703703703704],[0.03125,0.4888888888888889],[0.029166666666666667,0.42592592592592593],[0.028125,0.3148148148148148],[0.023958333333333335,0.18703703703703703],[0.023958333333333335,0.046296296296296294],[0.025,-0.06111111111111111],[0.025,-0.13703703703703704],[0.025,-0.2],[0.025,-0.2574074074074074],[0.025,-0.3148148148148148],[0.025,-0.3814814814814815],[0.025,-0.412962962962963],[0.025,-0.43703703703703706],[0.025,-0.4462962962962963],[0.025,-0.45],[0.025,-0.45185185185185184],[0.025,-0.45185185185185184],[0.025,-0.45185185185185184],[0.025,-0.45185185185185184],[0.025,-0.45185185185185184],[0.025,-0.4537037037037037],[0.023958333333333335,-0.45555555555555555],[0.023958333333333335,-0.45555555555555555],[0.023958333333333335,-0.45555555555555555],[0.023958333333333335,-0.45555555555555555],[0.023958333333333335,-0.45555555555555555],[0.023958333333333335,-0.45555555555555555],[0.021875,-0.45555555555555555],[0.021875,-0.45555555555555555],[0.021875,-0.45555555555555555],[0.021875,-0.45555555555555555],[0.021875,-0.45555555555555555],[0.020833333333333332,-0.45740740740740743],[0.016666666666666666,-0.4648148148148148],[0.014583333333333334,-0.4666666666666667]]","[[-0.013645833333333357,0.525],[-0.013645833333333357,0.525],[-0.013645833333333357,0.525],[0.001145833333333357,0.5383333333333334],[0.001145833333333357,0.5383333333333334],[0.02302083333333336,0.5211111111111111],[0.02302083333333336,0.5211111111111111],[0.04677083333333331,0.527962962962963],[0.04677083333333331,0.527962962962963],[0.04677083333333331,0.527962962962963],[0.04677083333333331,0.527962962962963],[0.06375000000000004,0.5298148148148148],[0.06375000000000004,0.5298148148148148],[0.06937499999999991,0.5370370370370371],[0.06937499999999991,0.5370370370370371],[0.10281250000000004,0.5494444444444445],[0.10281250000000004,0.5494444444444445],[0.12781250000000005,0.5816666666666667],[0.12781250000000005,0.5816666666666667],[0.14135416666666673,0.6048148148148148],[0.14135416666666673,0.6048148148148148],[0.16864583333333344,0.6038888888888889],[0.16864583333333344,0.6038888888888889],[0.1959374999999999,0.602962962962963],[0.1959374999999999,0.602962962962963],[0.1710416666666667,0.6140740740740741],[0.1710416666666667,0.6140740740740741],[0.14718749999999994,0.6729629629629629],[0.14718749999999994,0.6729629629629629],[0.10708333333333328,0.6477777777777777],[0.10708333333333328,0.6477777777777777],[0.0578125,0.6359259259259259],[0.0578125,0.6359259259259259],[0.027499999999999976,0.6387037037037037],[0.027499999999999976,0.6387037037037037],[0.027499999999999976,0.6387037037037037],[0.027499999999999976,0.6387037037037037],[-0.03708333333333336,0.5977777777777777],[-0.03708333333333336,0.5977777777777777],[-0.03854166666666667,0.5848148148148147],[-0.03854166666666667,0.5848148148148147],[-0.03854166666666667,0.5848148148148147],[-0.03854166666666667,0.5848148148148147],[-0.02781250000000005,0.5820370370370369],[-0.02781250000000005,0.5820370370370369],[-0.05531250000000002,0.5957407407407408],[-0.05531250000000002,0.5957407407407408],[-0.06520833333333335,0.6105555555555556],[-0.06520833333333335,0.6105555555555556],[-0.03958333333333333,0.6111111111111112],[-0.03958333333333333,0.6111111111111112],[-0.06937500000000002,0.6022222222222223],[-0.06937500000000002,0.6022222222222223],[-0.07520833333333338,0.6377777777777778],[-0.07520833333333338,0.6377777777777778],[-0.09281250000000002,0.6622222222222223],[-0.09281250000000002,0.6622222222222223],[-0.09281250000000002,0.6622222222222223],[-0.09281250000000002,0.6622222222222223],[-0.10802083333333339,0.6746296296296296],[-0.10802083333333339,0.6746296296296296],[-0.10114583333333335,0.7335185185185186],[-0.10114583333333335,0.7335185185185186],[-0.1592708333333333,0.6966666666666668],[-0.1592708333333333,0.6966666666666668],[-0.21229166666666663,0.696111111111111],[-0.21229166666666663,0.696111111111111],[-0.2627083333333334,0.6844444444444445],[-0.2627083333333334,0.6844444444444445],[-0.315,0.6814814814814815],[-0.315,0.6814814814814815],[-0.3489583333333333,0.6792592592592592],[-0.3489583333333333,0.6792592592592592],[-0.3489583333333333,0.6792592592592592],[-0.3489583333333333,0.6792592592592592],[-0.34395833333333337,0.6566666666666667],[-0.34395833333333337,0.6566666666666667],[-0.34187500000000004,0.6272222222222223],[-0.34187500000000004,0.6272222222222223],[-0.35750000000000004,0.6507407407407407],[-0.35750000000000004,0.6507407407407407],[-0.36666666666666664,0.6255555555555554],[-0.36666666666666664,0.6255555555555554],[-0.3889583333333333,0.6012962962962963],[-0.3889583333333333,0.6012962962962963],[-0.38552083333333337,0.6288888888888889],[-0.38552083333333337,0.6288888888888889],[-0.4044791666666666,0.6127777777777778],[-0.4044791666666666,0.6127777777777778],[-0.4044791666666666,0.6127777777777778],[-0.4044791666666666,0.6127777777777778],[-0.3853125,0.6198148148148149],[-0.3853125,0.6198148148148149],[-0.3748958333333333,0.6166666666666667],[-0.3748958333333333,0.6166666666666667],[-0.3745833333333334,0.6107407407407407],[-0.3745833333333334,0.6107407407407407],[-0.3725,0.6079629629629629],[-0.3725,0.6079629629629629],[-0.3885416666666667,0.6327777777777779],[-0.3885416666666667,0.6327777777777779],[-0.369375,0.6092592592592593],[-0.369375,0.6092592592592593],[-0.369375,0.6092592592592593],[-0.369375,0.6092592592592593],[-0.32708333333333334,0.6257407407407407],[-0.32708333333333334,0.6257407407407407],[-0.2608333333333333,0.6390740740740741],[-0.2608333333333333,0.6390740740740741],[-0.22000000000000006,0.6396296296296295],[-0.22000000000000006,0.6396296296296295],[-0.18041666666666673,0.6422222222222221],[-0.18041666666666673,0.6422222222222221],[-0.13291666666666668,0.6520370370370371],[-0.13291666666666668,0.6520370370370371],[-0.13291666666666668,0.6520370370370371],[-0.13291666666666668,0.6520370370370371],[-0.0967708333333333,0.6812962962962963],[-0.0967708333333333,0.6812962962962963],[-0.03708333333333336,0.6912962962962962],[-0.03708333333333336,0.6912962962962962],[0.030208333333333334,0.6898148148148148],[0.030208333333333334,0.6898148148148148],[0.09614583333333329,0.6822222222222222],[0.09614583333333329,0.6822222222222222],[0.17302083333333323,0.6901851851851852],[0.17302083333333323,0.6901851851851852],[0.19916666666666671,0.7],[0.19916666666666671,0.7],[0.19916666666666671,0.7],[0.19916666666666671,0.7],[0.20541666666666672,0.6946296296296297],[0.20541666666666672,0.6946296296296297],[0.20750000000000005,0.6612962962962964],[0.20750000000000005,0.6612962962962964],[0.22666666666666657,0.6518518518518519],[0.22666666666666657,0.6518518518518519],[0.2131249999999999,0.6122222222222222],[0.2131249999999999,0.6122222222222222],[0.20666666666666675,0.5588888888888888],[0.20666666666666675,0.5588888888888888],[0.17114583333333327,0.493888888888889],[0.14135416666666673,0.4546296296296296],[0.121875,0.39759259259259266],[0.02052083333333338,0.3362962962962963],[0.02052083333333338,0.3362962962962963],[-0.06843750000000005,0.27240740740740743],[-0.14635416666666667,0.21518518518518526],[-0.23062499999999997,0.2153703703703703],[-0.23062499999999997,0.2153703703703703],[-0.3120833333333334,0.19222222222222213],[-0.36843750000000003,0.16740740740740737],[-0.36843750000000003,0.16740740740740737],[-0.4310416666666666,0.14685185185185176],[-0.48989583333333336,0.15203703703703708],[-0.5502083333333334,0.16703703703703712],[-0.6080208333333333,0.2007407407407407],[-0.5826041666666666,0.22981481481481486],[-0.5584375,0.2603703703703704],[-0.5440625,0.30407407407407416],[-0.5091666666666667,0.3272222222222223],[-0.5091666666666667,0.3272222222222223],[-0.49822916666666667,0.3516666666666666],[-0.5065625,0.3638888888888889],[-0.5210416666666666,0.3792592592592592],[-0.5210416666666666,0.3792592592592592],[-0.5303125000000001,0.3990740740740741],[-0.5469791666666667,0.39740740740740743],[-0.5529166666666666,0.36925925925925923],[-0.5860416666666667,0.36666666666666664],[-0.623125,0.33833333333333343],[-0.623125,0.33833333333333343],[-0.6439583333333334,0.31740740740740736],[-0.665625,0.3025925925925925],[-0.6625,0.26500000000000007],[-0.6421875,0.25037037037037047],[-0.60625,0.23407407407407405],[-0.60625,0.23407407407407405],[-0.5291666666666667,0.23111111111111102],[-0.44947916666666665,0.22537037037037044],[-0.3735416666666667,0.2675925925925926],[-0.29812500000000003,0.2492592592592593],[-0.21989583333333335,0.27925925925925915],[-0.14614583333333328,0.2653703703703703],[-0.14614583333333328,0.2653703703703703],[-0.07416666666666671,0.2390740740740741],[-0.07416666666666671,0.2390740740740741],[0.004791666666666691,0.25037037037037047],[0.06927083333333334,0.2711111111111111],[0.12156250000000005,0.26907407407407397],[0.12927083333333325,0.2544444444444444],[0.134375,0.24259259259259258],[0.11958333333333329,0.24388888888888896],[0.12479166666666662,0.2542592592592592],[0.12302083333333323,0.25685185185185194],[0.12302083333333323,0.25685185185185194],[0.11520833333333323,0.24944444444444452],[0.10947916666666657,0.25259259259259254],[0.10947916666666657,0.25259259259259254],[0.0890625,0.2524074074074073],[0.071875,0.21092592592592588],[0.03229166666666667,0.1596296296296297],[0.03229166666666667,0.1596296296296297],[0.020729166666666642,0.09981481481481477],[0.008229166666666643,0.0257407407407407],[0.00625,-0.08296296296296299],[-0.00791666666666669,-0.175],[-0.004062499999999977,-0.2887037037037037],[0.003854166666666714,-0.3690740740740741],[0.009895833333333333,-0.482962962962963],[0.009895833333333333,-0.482962962962963],[0.016666666666666666,-0.6046296296296296],[0.021458333333333357,-0.682962962962963],[0.06020833333333329,-0.7024074074074075],[0.0709374999999999,-0.7133333333333333],[0.08260416666666662,-0.71],[0.09677083333333343,-0.7451851851851852],[0.1109375,-0.7803703703703704],[0.1109375,-0.7803703703703704],[0.09666666666666662,-0.7755555555555556],[0.0978125000000001,-0.740925925925926],[0.10135416666666662,-0.6770370370370371],[0.11802083333333328,-0.544074074074074],[0.1334374999999999,-0.4131481481481482],[0.10166666666666657,-0.29870370370370375],[0.08322916666666676,-0.19092592592592597],[0.06583333333333338,-0.062407407407407384],[0.04770833333333328,0.1175925925925926],[0.041666666666666664,0.26518518518518525],[0.06687500000000005,0.3918518518518519],[0.05947916666666669,0.4412962962962962],[0.04010416666666667,0.42240740740740745],[0.005416666666666714,0.3611111111111111],[0.003854166666666714,0.33055555555555555],[0.035104166666666714,0.26851851851851855],[0.05135416666666662,0.2657407407407407],[0.06531250000000005,0.2183333333333333],[0.06791666666666671,0.25462962962962965],[0.044270833333333336,0.31296296296296294],[0.044270833333333336,0.31296296296296294],[0.0125,0.35537037037037034],[-0.0003124999999999526,0.4537037037037037],[0.01395833333333331,0.6092592592592593],[0.01395833333333331,0.6092592592592593],[0.030416666666666713,0.7381481481481482],[0.011041666666666691,0.7949999999999999],[0.004791666666666691,0.8487037037037036],[0.004791666666666691,0.8487037037037036],[-0.005520833333333286,0.7974074074074075],[-0.019895833333333356,0.7575925925925926],[-0.022291666666666644,0.6211111111111111],[-0.022291666666666644,0.6211111111111111],[0.0032291666666666905,0.4751851851851852],[0.0171875,0.36370370370370364],[0.03968750000000002,0.19703703703703698],[0.03968750000000002,0.19703703703703698],[0.06625000000000002,0.13537037037037042],[0.07729166666666672,0.019444444444444445],[0.09104166666666676,-0.055185185185185205],[0.10187499999999995,-0.05870370370370368],[0.12281250000000009,0.00722222222222218],[0.15135416666666662,0.08574074074074066],[0.15791666666666657,0.14629629629629629],[0.15072916666666672,0.22666666666666663],[0.16104166666666658,0.2574074074074074],[0.16260416666666658,0.3388888888888889],[0.14260416666666675,0.3533333333333332],[0.12843749999999995,0.4101851851851852],[0.12635416666666663,0.469074074074074],[0.11635416666666672,0.4831481481481481],[0.09260416666666677,0.5349999999999999],[0.041770833333333354,0.5335185185185186],[0.011458333333333333,0.48629629629629634],[-0.0296875,0.4222222222222222],[-0.07270833333333329,0.5237037037037037],[-0.11270833333333338,0.5757407407407407],[-0.16677083333333337,0.5912962962962962],[-0.19822916666666662,0.634074074074074],[-0.24187500000000003,0.7072222222222222],[-0.2725,0.7168518518518519],[-0.29572916666666665,0.6742592592592593]]","[[-0.013645833333333357,0.525,0.0003000000119186552],[-0.013645833333333357,0.525,0.04020000004769031],[-0.013645833333333357,0.525,0.04440000003576472],[0.001145833333333357,0.5383333333333334,0.07750000000000057],[0.001145833333333357,0.5383333333333334,0.08540000003576154],[0.02302083333333336,0.5211111111111111,0.11280000001191581],[0.02302083333333336,0.5211111111111111,0.12000000000000455],[0.04677083333333331,0.527962962962963,0.14650000000000318],[0.04677083333333331,0.527962962962963,0.15399999999999636],[0.04677083333333331,0.527962962962963,0.16030000001191524],[0.04677083333333331,0.527962962962963,0.17780000001192775],[0.06375000000000004,0.5298148148148148,0.2126000000238406],[0.06375000000000004,0.5298148148148148,0.21980000001191513],[0.06937499999999991,0.5370370370370371,0.24670000004768156],[0.06937499999999991,0.5370370370370371,0.25440000003575847],[0.10281250000000004,0.5494444444444445,0.2797000000476828],[0.10281250000000004,0.5494444444444445,0.28990000003575744],[0.12781250000000005,0.5816666666666667,0.31260000002384913],[0.12781250000000005,0.5816666666666667,0.3194000000357704],[0.14135416666666673,0.6048148148148148,0.34600000000000364],[0.14135416666666673,0.6048148148148148,0.35290000003575983],[0.16864583333333344,0.6038888888888889,0.37930000001192354],[0.16864583333333344,0.6038888888888889,0.38649999999999807],[0.1959374999999999,0.602962962962963,0.4128000000119272],[0.1959374999999999,0.602962962962963,0.420600000023839],[0.1710416666666667,0.6140740740740741,0.44599999999999795],[0.1710416666666667,0.6140740740740741,0.4531000000238379],[0.14718749999999994,0.6729629629629629,0.47930000001191786],[0.14718749999999994,0.6729629629629629,0.48699999999999477],[0.10708333333333328,0.6477777777777777,0.5148000000119168],[0.10708333333333328,0.6477777777777777,0.5221000000238405],[0.0578125,0.6359259259259259,0.5464999999999947],[0.0578125,0.6359259259259259,0.554000000000002],[0.027499999999999976,0.6387037037037037,0.5806000000238356],[0.027499999999999976,0.6387037037037037,0.5878000000119243],[0.027499999999999976,0.6387037037037037,0.5936000000238408],[0.027499999999999976,0.6387037037037037,0.6111000000238391],[-0.03708333333333336,0.5977777777777777,0.6447000000476777],[-0.03708333333333336,0.5977777777777777,0.6541000000238455],[-0.03854166666666667,0.5848148148148147,0.6792000000476861],[-0.03854166666666667,0.5848148148148147,0.6871000000238467],[-0.03854166666666667,0.5848148148148147,0.6936000000238494],[-0.03854166666666667,0.5848148148148147,0.7115000000000009],[-0.02781250000000005,0.5820370370370369,0.7442000000476838],[-0.02781250000000005,0.5820370370370369,0.7517000000476912],[-0.05531250000000002,0.5957407407407408,0.7783000000119245],[-0.05531250000000002,0.5957407407407408,0.7867000000476878],[-0.06520833333333335,0.6105555555555556,0.8126000000238491],[-0.06520833333333335,0.6105555555555556,0.8194000000357704],[-0.03958333333333333,0.6111111111111112,0.8469999999999942],[-0.03958333333333333,0.6111111111111112,0.855200000047688],[-0.06937500000000002,0.6022222222222223,0.8793000000119235],[-0.06937500000000002,0.6022222222222223,0.8867000000476821],[-0.07520833333333338,0.6377777777777778,0.9141000000238364],[-0.07520833333333338,0.6377777777777778,0.9224000000357648],[-0.09281250000000002,0.6622222222222223,0.9464000000357657],[-0.09281250000000002,0.6622222222222223,0.9541000000238427],[-0.09281250000000002,0.6622222222222223,0.9602000000476778],[-0.09281250000000002,0.6622222222222223,0.9783000000119273],[-0.10802083333333339,0.6746296296296296,1.012700000047687],[-0.10802083333333339,0.6746296296296296,1.0199000000357614],[-0.10114583333333335,0.7335185185185186,1.0471000000238462],[-0.10114583333333335,0.7335185185185186,1.055700000047679],[-0.1592708333333333,0.6966666666666668,1.0793000000119264],[-0.1592708333333333,0.6966666666666668,1.086700000047685],[-0.21229166666666663,0.696111111111111,1.112900000035765],[-0.21229166666666663,0.696111111111111,1.121400000035763],[-0.2627083333333334,0.6844444444444445,1.1443000000119241],[-0.2627083333333334,0.6844444444444445,1.1552000000476852],[-0.315,0.6814814814814815,1.1803000000119255],[-0.315,0.6814814814814815,1.1896000000238445],[-0.3489583333333333,0.6792592592592592,1.2129999999999939],[-0.3489583333333333,0.6792592592592592,1.221600000023841],[-0.3489583333333333,0.6792592592592592,1.2269000000357693],[-0.3489583333333333,0.6792592592592592,1.2448000000119208],[-0.34395833333333337,0.6566666666666667,1.280100000023836],[-0.34395833333333337,0.6566666666666667,1.2894000000357693],[-0.34187500000000004,0.6272222222222223,1.3129000000357678],[-0.34187500000000004,0.6272222222222223,1.3202000000476772],[-0.35750000000000004,0.6507407407407407,1.344300000011927],[-0.35750000000000004,0.6507407407407407,1.353600000023846],[-0.36666666666666664,0.6255555555555554,1.3794000000357585],[-0.36666666666666664,0.6255555555555554,1.387300000011919],[-0.3889583333333333,0.6012962962962963,1.4124999999999943],[-0.3889583333333333,0.6012962962962963,1.4203000000119204],[-0.38552083333333337,0.6288888888888889,1.4469000000357681],[-0.38552083333333337,0.6288888888888889,1.4549000000357637],[-0.4044791666666666,0.6127777777777778,1.4796000000238365],[-0.4044791666666666,0.6127777777777778,1.4873000000119276],[-0.4044791666666666,0.6127777777777778,1.4936000000238465],[-0.4044791666666666,0.6127777777777778,1.5111000000238448],[-0.3853125,0.6198148148148149,1.544200000047681],[-0.3853125,0.6198148148148149,1.5513000000119206],[-0.3748958333333333,0.6166666666666667,1.5775000000000006],[-0.3748958333333333,0.6166666666666667,1.5852000000476778],[-0.3745833333333334,0.6107407407407407,1.6126000000238463],[-0.3745833333333334,0.6107407407407407,1.6201000000238395],[-0.3725,0.6079629629629629,1.6460000000000008],[-0.3725,0.6079629629629629,1.653600000023843],[-0.3885416666666667,0.6327777777777779,1.6795000000000044],[-0.3885416666666667,0.6327777777777779,1.6886000000238397],[-0.369375,0.6092592592592593,1.7127000000476897],[-0.369375,0.6092592592592593,1.7203000000119175],[-0.369375,0.6092592592592593,1.7270000000000039],[-0.369375,0.6092592592592593,1.7452000000476886],[-0.32708333333333334,0.6257407407407407,1.7794000000357642],[-0.32708333333333334,0.6257407407407407,1.7867000000476878],[-0.2608333333333333,0.6390740740740741,1.8126000000238491],[-0.2608333333333333,0.6390740740740741,1.8206000000238447],[-0.22000000000000006,0.6396296296296295,1.84580000001192],[-0.22000000000000006,0.6396296296296295,1.8534999999999968],[-0.18041666666666673,0.6422222222222221,1.879200000047689],[-0.18041666666666673,0.6422222222222221,1.886499999999998],[-0.13291666666666668,0.6520370370370371,1.9127000000476784],[-0.13291666666666668,0.6520370370370371,1.9209000000357577],[-0.13291666666666668,0.6520370370370371,1.926900000035758],[-0.13291666666666668,0.6520370370370371,1.944500000000005],[-0.0967708333333333,0.6812962962962963,1.9776000000238412],[-0.0967708333333333,0.6812962962962963,1.9860000000000042],[-0.03708333333333336,0.6912962962962962,2.0130000000000052],[-0.03708333333333336,0.6912962962962962,2.0213000000119195],[0.030208333333333334,0.6898148148148148,2.0469000000357624],[0.030208333333333334,0.6898148148148148,2.054900000035758],[0.09614583333333329,0.6822222222222222,2.080300000011917],[0.09614583333333329,0.6822222222222222,2.088200000047678],[0.17302083333333323,0.6901851851851852,2.113300000011918],[0.17302083333333323,0.6901851851851852,2.1217000000476816],[0.19916666666666671,0.7,2.1447000000476777],[0.19916666666666671,0.7,2.1548000000119174],[0.19916666666666671,0.7,2.1603000000119152],[0.19916666666666671,0.7,2.1778000000119278],[0.20541666666666672,0.6946296296296297,2.2150000000000034],[0.20541666666666672,0.6946296296296297,2.223900000035769],[0.20750000000000005,0.6612962962962964,2.247],[0.20750000000000005,0.6612962962962964,2.254900000035761],[0.22666666666666657,0.6518518518518519,2.281100000023841],[0.22666666666666657,0.6518518518518519,2.29340000003576],[0.2131249999999999,0.6122222222222222,2.3029999999999973],[0.2131249999999999,0.6122222222222222,2.3102000000476863],[0.20666666666666675,0.5588888888888888,2.3269000000357636],[0.20666666666666675,0.5588888888888888,2.343600000023841],[0.17114583333333327,0.493888888888889,2.3602000000476835],[0.14135416666666673,0.4546296296296296,2.3771000000238445],[0.121875,0.39759259259259266,2.395100000023845],[0.02052083333333338,0.3362962962962963,2.415900000035762],[0.02052083333333338,0.3362962962962963,2.426900000035758],[-0.06843750000000005,0.27240740740740743,2.4436000000238494],[-0.14635416666666667,0.21518518518518526,2.4603000000119266],[-0.23062499999999997,0.2153703703703703,2.4782000000476785],[-0.23062499999999997,0.2153703703703703,2.4937000000476814],[-0.3120833333333334,0.19222222222222213,2.5103000000119238],[-0.36843750000000003,0.16740740740740737,2.528700000047678],[-0.36843750000000003,0.16740740740740737,2.5437000000476786],[-0.4310416666666666,0.14685185185185176,2.5602000000476863],[-0.48989583333333336,0.15203703703703708,2.576999999999998],[-0.5502083333333334,0.16703703703703712,2.5954000000357667],[-0.6080208333333333,0.2007407407407407,2.612800000011916],[-0.5826041666666666,0.22981481481481486,2.6311000000238494],[-0.5584375,0.2603703703703704,2.6471000000238405],[-0.5440625,0.30407407407407416,2.6644000000357693],[-0.5091666666666667,0.3272222222222223,2.6811000000238465],[-0.5091666666666667,0.3272222222222223,2.6936000000238494],[-0.49822916666666667,0.3516666666666666,2.7103000000119266],[-0.5065625,0.3638888888888889,2.727000000000004],[-0.5210416666666666,0.3792592592592592,2.7436000000238465],[-0.5210416666666666,0.3792592592592592,2.7603000000119238],[-0.5303125000000001,0.3990740740740741,2.7769000000357664],[-0.5469791666666667,0.39740740740740743,2.7936000000238437],[-0.5529166666666666,0.36925925925925923,2.8132000000476864],[-0.5860416666666667,0.36666666666666664,2.8324000000357614],[-0.623125,0.33833333333333343,2.8479000000357644],[-0.623125,0.33833333333333343,2.860300000011918],[-0.6439583333333334,0.31740740740740736,2.8769999999999953],[-0.665625,0.3025925925925925,2.8978000000119266],[-0.6625,0.26500000000000007,2.914700000047688],[-0.6421875,0.25037037037037047,2.9311000000238465],[-0.60625,0.23407407407407405,2.9478000000119238],[-0.60625,0.23407407407407405,2.9603000000119266],[-0.5291666666666667,0.23111111111111102,2.9769000000357693],[-0.44947916666666665,0.22537037037037044,2.9936000000238465],[-0.3735416666666667,0.2675925925925926,3.0104000000357587],[-0.29812500000000003,0.2492592592592593,3.029300000011915],[-0.21989583333333335,0.27925925925925915,3.045500000000004],[-0.14614583333333328,0.2653703703703703,3.061100000023842],[-0.14614583333333328,0.2653703703703703,3.0862000000476826],[-0.07416666666666671,0.2390740740740741,3.1055000000000064],[-0.07416666666666671,0.2390740740740741,3.113700000047686],[0.004791666666666691,0.25037037037037047,3.1269000000357607],[0.06927083333333334,0.2711111111111111,3.146500000000003],[0.12156250000000005,0.26907407407407397,3.164500000000004],[0.12927083333333325,0.2544444444444444,3.17940000003577],[0.134375,0.24259259259259258,3.1989000000357635],[0.11958333333333329,0.24388888888888896,3.2142000000476827],[0.12479166666666662,0.2542592592592592,3.228600000023846],[0.12302083333333323,0.25685185185185194,3.2461000000238442],[0.12302083333333323,0.25685185185185194,3.2630000000000052],[0.11520833333333323,0.24944444444444452,3.277200000047685],[0.10947916666666657,0.25259259259259254,3.295600000023839],[0.10947916666666657,0.25259259259259254,3.31040000003577],[0.0890625,0.2524074074074073,3.3291000000238427],[0.071875,0.21092592592592588,3.3438000000119246],[0.03229166666666667,0.1596296296296297,3.3618000000119252],[0.03229166666666667,0.1596296296296297,3.3799999999999955],[0.020729166666666642,0.09981481481481477,3.3939000000357566],[0.008229166666666643,0.0257407407407407,3.4104000000357644],[0.00625,-0.08296296296296299,3.4271000000238416],[-0.00791666666666669,-0.175,3.448400000035761],[-0.004062499999999977,-0.2887037037037037,3.462100000023838],[0.003854166666666714,-0.3690740740740741,3.477100000023839],[0.009895833333333333,-0.482962962962963,3.493900000035765],[0.009895833333333333,-0.482962962962963,3.510200000047689],[0.016666666666666666,-0.6046296296296296,3.527000000000001],[0.021458333333333357,-0.682962962962963,3.5434999999999945],[0.06020833333333329,-0.7024074074074075,3.5602000000476863],[0.0709374999999999,-0.7133333333333333,3.5809000000357685],[0.08260416666666662,-0.71,3.597300000011927],[0.09677083333333343,-0.7451851851851852,3.6131000000238487],[0.1109375,-0.7803703703703704,3.6302000000476795],[0.1109375,-0.7803703703703704,3.643600000023838],[0.09666666666666662,-0.7755555555555556,3.6604000000357644],[0.0978125000000001,-0.740925925925926,3.676900000035758],[0.10135416666666662,-0.6770370370370371,3.6936000000238494],[0.11802083333333328,-0.544074074074074,3.710200000047678],[0.1334374999999999,-0.4131481481481482,3.729400000035767],[0.10166666666666657,-0.29870370370370375,3.7434999999999974],[0.08322916666666676,-0.19092592592592597,3.760200000047689],[0.06583333333333338,-0.062407407407407384,3.777400000035769],[0.04770833333333328,0.1175925925925926,3.7964999999999947],[0.041666666666666664,0.26518518518518525,3.811800000011928],[0.06687500000000005,0.3918518518518519,3.8269000000357636],[0.05947916666666669,0.4412962962962962,3.84370000004769],[0.04010416666666667,0.42240740740740745,3.860400000035767],[0.005416666666666714,0.3611111111111111,3.8769000000357607],[0.003854166666666714,0.33055555555555555,3.893600000023838],[0.035104166666666714,0.26851851851851855,3.9109000000357668],[0.05135416666666662,0.2657407407407407,3.926900000035758],[0.06531250000000005,0.2183333333333333,3.9436000000238494],[0.06791666666666671,0.25462962962962965,3.960200000047678],[0.044270833333333336,0.31296296296296294,3.977000000000004],[0.044270833333333336,0.31296296296296294,3.9936000000238465],[0.0125,0.35537037037037034,4.010200000047689],[-0.0003124999999999526,0.4537037037037037,4.026900000035766],[0.01395833333333331,0.6092592592592593,4.043600000023844],[0.01395833333333331,0.6092592592592593,4.060300000011921],[0.030416666666666713,0.7381481481481482,4.076900000035764],[0.011041666666666691,0.7949999999999999,4.097100000023843],[0.004791666666666691,0.8487037037037036,4.115600000023846],[0.004791666666666691,0.8487037037037036,4.126999999999995],[-0.005520833333333286,0.7974074074074075,4.143700000047687],[-0.019895833333333356,0.7575925925925926,4.160400000035764],[-0.022291666666666644,0.6211111111111111,4.1789000000357674],[-0.022291666666666644,0.6211111111111111,4.193800000011919],[0.0032291666666666905,0.4751851851851852,4.210499999999996],[0.0171875,0.36370370370370364,4.227000000000004],[0.03968750000000002,0.19703703703703698,4.2464999999999975],[0.03968750000000002,0.19703703703703698,4.260400000035759],[0.06625000000000002,0.13537037037037042,4.277100000023836],[0.07729166666666672,0.019444444444444445,4.293900000035762],[0.09104166666666676,-0.055185185185185205,4.3125],[0.10187499999999995,-0.05870370370370368,4.328000000000003],[0.12281250000000009,0.00722222222222218,4.345100000023848],[0.15135416666666662,0.08574074074074066,4.362499999999997],[0.15791666666666657,0.14629629629629629,4.377499999999998],[0.15072916666666672,0.22666666666666663,4.393800000011922],[0.16104166666666658,0.2574074074074074,4.410200000047681],[0.16260416666666658,0.3388888888888889,4.426900000035758],[0.14260416666666675,0.3533333333333332,4.445499999999996],[0.12843749999999995,0.4101851851851852,4.463100000023843],[0.12635416666666663,0.469074074074074,4.4788000000119155],[0.11635416666666672,0.4831481481481481,4.4936000000238465],[0.09260416666666677,0.5349999999999999,4.510200000047689],[0.041770833333333354,0.5335185185185186,4.526900000035766],[0.011458333333333333,0.48629629629629634,4.5434999999999945],[-0.0296875,0.4222222222222222,4.56340000003577],[-0.07270833333333329,0.5237037037037037,4.576900000035764],[-0.11270833333333338,0.5757407407407407,4.5939000000357595],[-0.16677083333333337,0.5912962962962962,4.611700000047691],[-0.19822916666666662,0.634074074074074,4.626800000011926],[-0.24187500000000003,0.7072222222222222,4.646200000047685],[-0.2725,0.7168518518518519,4.662100000023841],[-0.29572916666666665,0.6742592592592593,4.679100000023837]]","[0.0003000000119186552,0.04020000004769031,0.04440000003576472,0.07750000000000057,0.08540000003576154,0.11280000001191581,0.12000000000000455,0.14650000000000318,0.15399999999999636,0.16030000001191524,0.17780000001192775,0.2126000000238406,0.21980000001191513,0.24670000004768156,0.25440000003575847,0.2797000000476828,0.28990000003575744,0.31260000002384913,0.3194000000357704,0.34600000000000364,0.35290000003575983,0.37930000001192354,0.38649999999999807,0.4128000000119272,0.420600000023839,0.44599999999999795,0.4531000000238379,0.47930000001191786,0.48699999999999477,0.5148000000119168,0.5221000000238405,0.5464999999999947,0.554000000000002,0.5806000000238356,0.5878000000119243,0.5936000000238408,0.6111000000238391,0.6447000000476777,0.6541000000238455,0.6792000000476861,0.6871000000238467,0.6936000000238494,0.7115000000000009,0.7442000000476838,0.7517000000476912,0.7783000000119245,0.7867000000476878,0.8126000000238491,0.8194000000357704,0.8469999999999942,0.855200000047688,0.8793000000119235,0.8867000000476821,0.9141000000238364,0.9224000000357648,0.9464000000357657,0.9541000000238427,0.9602000000476778,0.9783000000119273,1.012700000047687,1.0199000000357614,1.0471000000238462,1.055700000047679,1.0793000000119264,1.086700000047685,1.112900000035765,1.121400000035763,1.1443000000119241,1.1552000000476852,1.1803000000119255,1.1896000000238445,1.2129999999999939,1.221600000023841,1.2269000000357693,1.2448000000119208,1.280100000023836,1.2894000000357693,1.3129000000357678,1.3202000000476772,1.344300000011927,1.353600000023846,1.3794000000357585,1.387300000011919,1.4124999999999943,1.4203000000119204,1.4469000000357681,1.4549000000357637,1.4796000000238365,1.4873000000119276,1.4936000000238465,1.5111000000238448,1.544200000047681,1.5513000000119206,1.5775000000000006,1.5852000000476778,1.6126000000238463,1.6201000000238395,1.6460000000000008,1.653600000023843,1.6795000000000044,1.6886000000238397,1.7127000000476897,1.7203000000119175,1.7270000000000039,1.7452000000476886,1.7794000000357642,1.7867000000476878,1.8126000000238491,1.8206000000238447,1.84580000001192,1.8534999999999968,1.879200000047689,1.886499999999998,1.9127000000476784,1.9209000000357577,1.926900000035758,1.944500000000005,1.9776000000238412,1.9860000000000042,2.0130000000000052,2.0213000000119195,2.0469000000357624,2.054900000035758,2.080300000011917,2.088200000047678,2.113300000011918,2.1217000000476816,2.1447000000476777,2.1548000000119174,2.1603000000119152,2.1778000000119278,2.2150000000000034,2.223900000035769,2.247,2.254900000035761,2.281100000023841,2.29340000003576,2.3029999999999973,2.3102000000476863,2.3269000000357636,2.343600000023841,2.3602000000476835,2.3771000000238445,2.395100000023845,2.415900000035762,2.426900000035758,2.4436000000238494,2.4603000000119266,2.4782000000476785,2.4937000000476814,2.5103000000119238,2.528700000047678,2.5437000000476786,2.5602000000476863,2.576999999999998,2.5954000000357667,2.612800000011916,2.6311000000238494,2.6471000000238405,2.6644000000357693,2.6811000000238465,2.6936000000238494,2.7103000000119266,2.727000000000004,2.7436000000238465,2.7603000000119238,2.7769000000357664,2.7936000000238437,2.8132000000476864,2.8324000000357614,2.8479000000357644,2.860300000011918,2.8769999999999953,2.8978000000119266,2.914700000047688,2.9311000000238465,2.9478000000119238,2.9603000000119266,2.9769000000357693,2.9936000000238465,3.0104000000357587,3.029300000011915,3.045500000000004,3.061100000023842,3.0862000000476826,3.1055000000000064,3.113700000047686,3.1269000000357607,3.146500000000003,3.164500000000004,3.17940000003577,3.1989000000357635,3.2142000000476827,3.228600000023846,3.2461000000238442,3.2630000000000052,3.277200000047685,3.295600000023839,3.31040000003577,3.3291000000238427,3.3438000000119246,3.3618000000119252,3.3799999999999955,3.3939000000357566,3.4104000000357644,3.4271000000238416,3.448400000035761,3.462100000023838,3.477100000023839,3.493900000035765,3.510200000047689,3.527000000000001,3.5434999999999945,3.5602000000476863,3.5809000000357685,3.597300000011927,3.6131000000238487,3.6302000000476795,3.643600000023838,3.6604000000357644,3.676900000035758,3.6936000000238494,3.710200000047678,3.729400000035767,3.7434999999999974,3.760200000047689,3.777400000035769,3.7964999999999947,3.811800000011928,3.8269000000357636,3.84370000004769,3.860400000035767,3.8769000000357607,3.893600000023838,3.9109000000357668,3.926900000035758,3.9436000000238494,3.960200000047678,3.977000000000004,3.9936000000238465,4.010200000047689,4.026900000035766,4.043600000023844,4.060300000011921,4.076900000035764,4.097100000023843,4.115600000023846,4.126999999999995,4.143700000047687,4.160400000035764,4.1789000000357674,4.193800000011919,4.210499999999996,4.227000000000004,4.2464999999999975,4.260400000035759,4.277100000023836,4.293900000035762,4.3125,4.328000000000003,4.345100000023848,4.362499999999997,4.377499999999998,4.393800000011922,4.410200000047681,4.426900000035758,4.445499999999996,4.463100000023843,4.4788000000119155,4.4936000000238465,4.510200000047689,4.526900000035766,4.5434999999999945,4.56340000003577,4.576900000035764,4.5939000000357595,4.611700000047691,4.626800000011926,4.646200000047685,4.662100000023841,4.679100000023837]","[1732872862763,1732872862796,1732872862800,1732872862833,1732872862841,1732872862868,1732872862876,1732872862902,1732872862910,1732872862916,1732872862933,1732872862968,1732872862975,1732872863002,1732872863010,1732872863035,1732872863045,1732872863068,1732872863075,1732872863102,1732872863109,1732872863135,1732872863142,1732872863168,1732872863176,1732872863202,1732872863209,1732872863235,1732872863243,1732872863271,1732872863278,1732872863302,1732872863310,1732872863336,1732872863343,1732872863349,1732872863367,1732872863400,1732872863410,1732872863435,1732872863443,1732872863449,1732872863467,1732872863500,1732872863507,1732872863534,1732872863542,1732872863568,1732872863575,1732872863603,1732872863611,1732872863635,1732872863642,1732872863670,1732872863678,1732872863702,1732872863710,1732872863716,1732872863734,1732872863768,1732872863776,1732872863803,1732872863811,1732872863835,1732872863842,1732872863868,1732872863877,1732872863900,1732872863911,1732872863936,1732872863945,1732872863969,1732872863977,1732872863983,1732872864001,1732872864036,1732872864045,1732872864069,1732872864076,1732872864100,1732872864109,1732872864135,1732872864143,1732872864168,1732872864176,1732872864202,1732872864211,1732872864235,1732872864243,1732872864249,1732872864267,1732872864300,1732872864307,1732872864333,1732872864341,1732872864368,1732872864376,1732872864402,1732872864409,1732872864435,1732872864444,1732872864468,1732872864476,1732872864483,1732872864501,1732872864535,1732872864542,1732872864568,1732872864576,1732872864601,1732872864609,1732872864635,1732872864642,1732872864668,1732872864677,1732872864683,1732872864700,1732872864733,1732872864742,1732872864769,1732872864777,1732872864802,1732872864811,1732872864836,1732872864844,1732872864869,1732872864877,1732872864900,1732872864910,1732872864916,1732872864934,1732872864971,1732872864980,1732872865003,1732872865011,1732872865037,1732872865049,1732872865059,1732872865066,1732872865083,1732872865099,1732872865116,1732872865133,1732872865151,1732872865172,1732872865183,1732872865199,1732872865216,1732872865234,1732872865249,1732872865266,1732872865284,1732872865299,1732872865316,1732872865333,1732872865351,1732872865368,1732872865387,1732872865403,1732872865420,1732872865437,1732872865449,1732872865466,1732872865483,1732872865499,1732872865516,1732872865533,1732872865549,1732872865569,1732872865588,1732872865604,1732872865616,1732872865633,1732872865653,1732872865670,1732872865687,1732872865703,1732872865716,1732872865733,1732872865749,1732872865766,1732872865785,1732872865801,1732872865817,1732872865842,1732872865861,1732872865869,1732872865883,1732872865902,1732872865920,1732872865938,1732872865957,1732872865973,1732872865987,1732872866005,1732872866022,1732872866036,1732872866054,1732872866069,1732872866088,1732872866102,1732872866120,1732872866138,1732872866152,1732872866169,1732872866186,1732872866207,1732872866221,1732872866236,1732872866252,1732872866269,1732872866285,1732872866302,1732872866319,1732872866339,1732872866356,1732872866372,1732872866389,1732872866402,1732872866419,1732872866435,1732872866452,1732872866469,1732872866488,1732872866502,1732872866519,1732872866536,1732872866555,1732872866570,1732872866585,1732872866602,1732872866619,1732872866635,1732872866652,1732872866669,1732872866685,1732872866702,1732872866719,1732872866736,1732872866752,1732872866769,1732872866785,1732872866802,1732872866819,1732872866835,1732872866856,1732872866874,1732872866885,1732872866902,1732872866919,1732872866937,1732872866952,1732872866969,1732872866986,1732872867005,1732872867019,1732872867036,1732872867052,1732872867071,1732872867086,1732872867104,1732872867121,1732872867136,1732872867152,1732872867169,1732872867185,1732872867204,1732872867222,1732872867237,1732872867252,1732872867269,1732872867285,1732872867302,1732872867322,1732872867335,1732872867352,1732872867370,1732872867385,1732872867405,1732872867421,1732872867438]","[[946.9,823.5],[946.9,823.5],[946.9,823.5],[961.1,830.7],[961.1,830.7],[982.1,821.4],[982.1,821.4],[1004.9,825.1],[1004.9,825.1],[1004.9,825.1],[1004.9,825.1],[1021.2,826.1],[1021.2,826.1],[1026.6,830],[1026.6,830],[1058.7,836.7],[1058.7,836.7],[1082.7,854.1],[1082.7,854.1],[1095.7,866.6],[1095.7,866.6],[1121.9,866.1],[1121.9,866.1],[1148.1,865.6],[1148.1,865.6],[1124.2,871.6],[1124.2,871.6],[1101.3,903.4],[1101.3,903.4],[1062.8,889.8],[1062.8,889.8],[1015.5,883.4],[1015.5,883.4],[986.4,884.9],[986.4,884.9],[986.4,884.9],[986.4,884.9],[924.4,862.8],[924.4,862.8],[923,855.8],[923,855.8],[923,855.8],[923,855.8],[933.3,854.3],[933.3,854.3],[906.9,861.7],[906.9,861.7],[897.4,869.7],[897.4,869.7],[922,870],[922,870],[893.4,865.2],[893.4,865.2],[887.8,884.4],[887.8,884.4],[870.9,897.6],[870.9,897.6],[870.9,897.6],[870.9,897.6],[856.3,904.3],[856.3,904.3],[862.9,936.1],[862.9,936.1],[807.1,916.2],[807.1,916.2],[756.2,915.9],[756.2,915.9],[707.8,909.6],[707.8,909.6],[657.6,908],[657.6,908],[625,906.8],[625,906.8],[625,906.8],[625,906.8],[629.8,894.6],[629.8,894.6],[631.8,878.7],[631.8,878.7],[616.8,891.4],[616.8,891.4],[608,877.8],[608,877.8],[586.6,864.7],[586.6,864.7],[589.9,879.6],[589.9,879.6],[571.7,870.9],[571.7,870.9],[571.7,870.9],[571.7,870.9],[590.1,874.7],[590.1,874.7],[600.1,873],[600.1,873],[600.4,869.8],[600.4,869.8],[602.4,868.3],[602.4,868.3],[587,881.7],[587,881.7],[605.4,869],[605.4,869],[605.4,869],[605.4,869],[646,877.9],[646,877.9],[709.6,885.1],[709.6,885.1],[748.8,885.4],[748.8,885.4],[786.8,886.8],[786.8,886.8],[832.4,892.1],[832.4,892.1],[832.4,892.1],[832.4,892.1],[867.1,907.9],[867.1,907.9],[924.4,913.3],[924.4,913.3],[989,912.5],[989,912.5],[1052.3,908.4],[1052.3,908.4],[1126.1,912.7],[1126.1,912.7],[1151.2,918],[1151.2,918],[1151.2,918],[1151.2,918],[1157.2,915.1],[1157.2,915.1],[1159.2,897.1],[1159.2,897.1],[1177.6,892],[1177.6,892],[1164.6,870.6],[1164.6,870.6],[1158.4,841.8],[1158.4,841.8],[1124.3,806.7],[1095.7,785.5],[1077,754.7],[979.7,721.6],[979.7,721.6],[894.3,687.1],[819.5,656.2],[738.6,656.3],[738.6,656.3],[660.4,643.8],[606.3,630.4],[606.3,630.4],[546.2,619.3],[489.7,622.1],[431.8,630.2],[376.3,648.4],[400.7,664.1],[423.9,680.6],[437.7,704.2],[471.2,716.7],[471.2,716.7],[481.7,729.9],[473.7,736.5],[459.8,744.8],[459.8,744.8],[450.9,755.5],[434.9,754.6],[429.2,739.4],[397.4,738],[361.8,722.7],[361.8,722.7],[341.8,711.4],[321,703.4],[324,683.1],[343.5,675.2],[378,666.4],[378,666.4],[452,664.8],[528.5,661.7],[601.4,684.5],[673.8,674.6],[748.9,690.8],[819.7,683.3],[819.7,683.3],[888.8,669.1],[888.8,669.1],[964.6,675.2],[1026.5,686.4],[1076.7,685.3],[1084.1,677.4],[1089,671],[1074.8,671.7],[1079.8,677.3],[1078.1,678.7],[1078.1,678.7],[1070.6,674.7],[1065.1,676.4],[1065.1,676.4],[1045.5,676.3],[1029,653.9],[991,626.2],[991,626.2],[979.9,593.9],[967.9,553.9],[966,495.2],[952.4,445.5],[956.1,384.1],[963.7,340.7],[969.5,279.2],[969.5,279.2],[976,213.5],[980.6,171.2],[1017.8,160.7],[1028.1,154.8],[1039.3,156.6],[1052.9,137.6],[1066.5,118.6],[1066.5,118.6],[1052.8,121.2],[1053.9,139.9],[1057.3,174.4],[1073.3,246.2],[1088.1,316.9],[1057.6,378.7],[1039.9,436.9],[1023.2,506.3],[1005.8,603.5],[1000,683.2],[1024.2,751.6],[1017.1,778.3],[998.5,768.1],[965.2,735],[963.7,718.5],[993.7,685],[1009.3,683.5],[1022.7,657.9],[1025.2,677.5],[1002.5,709],[1002.5,709],[972,731.9],[959.7,785],[973.4,869],[973.4,869],[989.2,938.6],[970.6,969.3],[964.6,998.3],[964.6,998.3],[954.7,970.6],[940.9,949.1],[938.6,875.4],[938.6,875.4],[963.1,796.6],[976.5,736.4],[998.1,646.4],[998.1,646.4],[1023.6,613.1],[1034.2,550.5],[1047.4,510.2],[1057.8,508.3],[1077.9,543.9],[1105.3,586.3],[1111.6,619],[1104.7,662.4],[1114.6,679],[1116.1,723],[1096.9,730.8],[1083.3,761.5],[1081.3,793.3],[1071.7,800.9],[1048.9,828.9],[1000.1,828.1],[971,802.6],[931.5,768],[890.2,822.8],[851.8,850.9],[799.9,859.3],[769.7,882.4],[727.8,921.9],[698.4,927.1],[676.1,904.1]]","[0,0.5333]","[0.5333,0.5333]","[-0.5333,-0.5333]","[-0.5333,0]","[0,-0.5333]","[0.5333,-0.5333]","[0,0]","[0.5333,0]",0,0,0,0,1,3,Monitor,11,9,9,1
