inst1_resp.keys,inst1_resp.rt,calibrationMouse.x,calibrationMouse.y,calibrationMouse.leftButton,calibrationMouse.midButton,calibrationMouse.rightButton,calibrationClick.x,calibrationClick.y,calibrationClick.leftButton,calibrationClick.midButton,calibrationClick.rightButton,calibrationClick.clicked_name,trialsc.thisRepN,trialsc.thisTrialN,trialsc.thisN,trialsc.thisIndex,trialsc.ran,calibration_x,calibration_y,participant,session,date,expName,psychopyVersion,OS,frameRate,ScreenRes_pixels,Camera_pixels,mouse_2.x,mouse_2.y,mouse_2.leftButton,mouse_2.midButton,mouse_2.rightButton,mouse_2.time,mouse_2.clicked_name,mouse.x,mouse.y,mouse.leftButton,mouse.midButton,mouse.rightButton,mouse.time,mouse.clicked_name,Choice,Trial,TrialDuration,MOUSE_GAZE,ET_GAZE,ET_GAZE_x_T,time,unixTime,ET_GAZE_NF,Loc_Option1_label,Loc_Option2_label,Loc_Cost_label,Loc_Qual_label,Loc_Option1_cost,Loc_Option2_cost,Loc_Option1_quality,Loc_Option2_quality,trials.thisRepN,trials.thisTrialN,trials.thisN,trials.thisIndex,trials.ran,Block,Device,cost1,qual1,cost2,qual2
space,1.2647,-0.341666667,-0.622222222,1,0,0,0.00625,-0.672222222,1,0,0,calibration_square,0,0,0,9,1,0,-0.67,10,001,2024-11-29_18h00.14.883,Attention_exp_legacy,2023.1.0,Win32,59.88023952,,,,,,,,,,,,,,,,,,,,,,,,,,,,,,,,,,,,,,,,,,,,
,,,,,,,0.332291667,-0.001851852,1,0,0,calibration_square,0,1,1,16,1,0.33,0,10,001,2024-11-29_18h00.14.883,Attention_exp_legacy,2023.1.0,Win32,59.88023952,,,,,,,,,,,,,,,,,,,,,,,,,,,,,,,,,,,,,,,,,,,,
,,,,,,,-0.321875,-0.664814815,1,0,0,calibration_square,0,2,2,4,1,-0.33,-0.67,10,001,2024-11-29_18h00.14.883,Attention_exp_legacy,2023.1.0,Win32,59.88023952,,,,,,,,,,,,,,,,,,,,,,,,,,,,,,,,,,,,,,,,,,,,
,,,,,,,-0.322916667,-0.312962963,1,0,0,,0,3,3,5,1,-0.33,-0.33,10,001,2024-11-29_18h00.14.883,Attention_exp_legacy,2023.1.0,Win32,59.88023952,,,,,,,,,,,,,,,,,,,,,,,,,,,,,,,,,,,,,,,,,,,,
,,,,,,,-0.327083333,0.005555556,1,0,0,calibration_square,0,4,4,6,1,-0.33,0,10,001,2024-11-29_18h00.14.883,Attention_exp_legacy,2023.1.0,Win32,59.88023952,,,,,,,,,,,,,,,,,,,,,,,,,,,,,,,,,,,,,,,,,,,,
,,,,,,,-0.671875,-0.325925926,1,0,0,calibration_square,0,5,5,1,1,-0.67,-0.33,10,001,2024-11-29_18h00.14.883,Attention_exp_legacy,2023.1.0,Win32,59.88023952,,,,,,,,,,,,,,,,,,,,,,,,,,,,,,,,,,,,,,,,,,,,
,,,,,,,0.001041667,-0.327777778,1,0,0,calibration_square,0,6,6,10,1,0,-0.33,10,001,2024-11-29_18h00.14.883,Attention_exp_legacy,2023.1.0,Win32,59.88023952,,,,,,,,,,,,,,,,,,,,,,,,,,,,,,,,,,,,,,,,,,,,
,,,,,,,-0.671875,-0.005555556,1,0,0,calibration_square,0,7,7,2,1,-0.67,0,10,001,2024-11-29_18h00.14.883,Attention_exp_legacy,2023.1.0,Win32,59.88023952,,,,,,,,,,,,,,,,,,,,,,,,,,,,,,,,,,,,,,,,,,,,
,,,,,,,-0.328125,0.67962963,1,0,0,calibration_square,0,8,8,8,1,-0.33,0.67,10,001,2024-11-29_18h00.14.883,Attention_exp_legacy,2023.1.0,Win32,59.88023952,,,,,,,,,,,,,,,,,,,,,,,,,,,,,,,,,,,,,,,,,,,,
,,,,,,,0.003125,-0.007407407,1,0,0,calibration_square,0,9,9,11,1,0,0,10,001,2024-11-29_18h00.14.883,Attention_exp_legacy,2023.1.0,Win32,59.88023952,,,,,,,,,,,,,,,,,,,,,,,,,,,,,,,,,,,,,,,,,,,,
,,,,,,,-0.004166667,0.333333333,1,0,0,calibration_square,0,10,10,12,1,0,0.33,10,001,2024-11-29_18h00.14.883,Attention_exp_legacy,2023.1.0,Win32,59.88023952,,,,,,,,,,,,,,,,,,,,,,,,,,,,,,,,,,,,,,,,,,,,
,,,,,,,0.327083333,-0.324074074,1,0,0,calibration_square,0,11,11,15,1,0.33,-0.33,10,001,2024-11-29_18h00.14.883,Attention_exp_legacy,2023.1.0,Win32,59.88023952,,,,,,,,,,,,,,,,,,,,,,,,,,,,,,,,,,,,,,,,,,,,
,,,,,,,-0.339583333,0.32037037,1,0,0,calibration_square,0,12,12,7,1,-0.33,0.33,10,001,2024-11-29_18h00.14.883,Attention_exp_legacy,2023.1.0,Win32,59.88023952,,,,,,,,,,,,,,,,,,,,,,,,,,,,,,,,,,,,,,,,,,,,
,,,,,,,0.670833333,0.674074074,1,0,0,calibration_square,0,13,13,19,1,0.67,0.67,10,001,2024-11-29_18h00.14.883,Attention_exp_legacy,2023.1.0,Win32,59.88023952,,,,,,,,,,,,,,,,,,,,,,,,,,,,,,,,,,,,,,,,,,,,
,,,,,,,0.336458333,-0.659259259,1,0,0,,0,14,14,14,1,0.33,-0.67,10,001,2024-11-29_18h00.14.883,Attention_exp_legacy,2023.1.0,Win32,59.88023952,,,,,,,,,,,,,,,,,,,,,,,,,,,,,,,,,,,,,,,,,,,,
,,,,,,,-0.664583333,-0.67037037,1,0,0,calibration_square,0,15,15,0,1,-0.67,-0.67,10,001,2024-11-29_18h00.14.883,Attention_exp_legacy,2023.1.0,Win32,59.88023952,,,,,,,,,,,,,,,,,,,,,,,,,,,,,,,,,,,,,,,,,,,,
,,,,,,,0.323958333,0.666666667,1,0,0,calibration_square,0,16,16,18,1,0.33,0.67,10,001,2024-11-29_18h00.14.883,Attention_exp_legacy,2023.1.0,Win32,59.88023952,,,,,,,,,,,,,,,,,,,,,,,,,,,,,,,,,,,,,,,,,,,,
,,,,,,,0.328125,0.32962963,1,0,0,calibration_square,0,17,17,17,1,0.33,0.33,10,001,2024-11-29_18h00.14.883,Attention_exp_legacy,2023.1.0,Win32,59.88023952,,,,,,,,,,,,,,,,,,,,,,,,,,,,,,,,,,,,,,,,,,,,
,,,,,,,0.667708333,-0.662962963,1,0,0,calibration_square,0,18,18,20,1,0.67,-0.67,10,001,2024-11-29_18h00.14.883,Attention_exp_legacy,2023.1.0,Win32,59.88023952,,,,,,,,,,,,,,,,,,,,,,,,,,,,,,,,,,,,,,,,,,,,
,,,,,,,-0.669791667,0.324074074,1,0,0,calibration_square,0,19,19,3,1,-0.67,0.33,10,001,2024-11-29_18h00.14.883,Attention_exp_legacy,2023.1.0,Win32,59.88023952,,,,,,,,,,,,,,,,,,,,,,,,,,,,,,,,,,,,,,,,,,,,
,,,,,,,0,0.675925926,1,0,0,calibration_square,0,20,20,13,1,0,0.67,10,001,2024-11-29_18h00.14.883,Attention_exp_legacy,2023.1.0,Win32,59.88023952,,,,,,,,,,,,,,,,,,,,,,,,,,,,,,,,,,,,,,,,,,,,
,,,,,,,,,,,,,,,,,,,,10,001,2024-11-29_18h00.14.883,Attention_exp_legacy,2023.1.0,Win32,59.88023952,"[1920,1080]","[640,480]",[0.057291666666666664],[-0.5055555555555555],[1],[0],[0],[1.3308000000119193],"[""StartButton""]",[0.490625],[0.4666666666666667],[1],[0],[0],[3.340300000011922],"[""Option2_label""]",Option2_label,1,4.365,"[[-0.21458333333333332,0.08518518518518518],[-0.21458333333333332,0.08518518518518518],[-0.21458333333333332,0.08518518518518518],[-0.21458333333333332,0.08518518518518518],[-0.21458333333333332,0.08518518518518518],[-0.21458333333333332,0.08518518518518518],[-0.21458333333333332,0.08518518518518518],[-0.21458333333333332,0.08518518518518518],[-0.21458333333333332,0.08518518518518518],[-0.21458333333333332,0.08518518518518518],[-0.21458333333333332,0.08518518518518518],[-0.21458333333333332,0.08518518518518518],[-0.21458333333333332,0.08518518518518518],[-0.21458333333333332,0.08518518518518518],[-0.21458333333333332,0.08518518518518518],[-0.21458333333333332,0.08518518518518518],[-0.21458333333333332,0.08518518518518518],[-0.21458333333333332,0.08518518518518518],[-0.21458333333333332,0.08518518518518518],[-0.21458333333333332,0.08518518518518518],[-0.21458333333333332,0.08518518518518518],[-0.21458333333333332,0.08518518518518518],[-0.21458333333333332,0.08518518518518518],[-0.21458333333333332,0.08518518518518518],[-0.21458333333333332,0.08518518518518518],[-0.21458333333333332,0.08518518518518518],[-0.21458333333333332,0.08518518518518518],[-0.21458333333333332,0.08518518518518518],[-0.21458333333333332,0.08518518518518518],[-0.21458333333333332,0.08518518518518518],[-0.21458333333333332,0.08518518518518518],[-0.21458333333333332,0.08518518518518518],[-0.21458333333333332,0.08518518518518518],[-0.21458333333333332,0.08518518518518518],[-0.21458333333333332,0.08518518518518518],[-0.21458333333333332,0.08518518518518518],[-0.21458333333333332,0.08518518518518518],[-0.21458333333333332,0.08518518518518518],[-0.21458333333333332,0.08518518518518518],[-0.21458333333333332,0.08518518518518518],[-0.21458333333333332,0.08518518518518518],[-0.21458333333333332,0.08518518518518518],[-0.21458333333333332,0.08518518518518518],[-0.21458333333333332,0.08518518518518518],[-0.21458333333333332,0.08518518518518518],[-0.21458333333333332,0.08518518518518518],[-0.21458333333333332,0.08518518518518518],[-0.21458333333333332,0.08518518518518518],[-0.21458333333333332,0.08518518518518518],[-0.21458333333333332,0.08518518518518518],[-0.21458333333333332,0.08518518518518518],[-0.21458333333333332,0.08518518518518518],[-0.21458333333333332,0.08518518518518518],[-0.21458333333333332,0.08518518518518518],[-0.21458333333333332,0.08518518518518518],[-0.21458333333333332,0.08518518518518518],[-0.21458333333333332,0.08518518518518518],[-0.21458333333333332,0.08518518518518518],[-0.21458333333333332,0.08518518518518518],[-0.21458333333333332,0.08518518518518518],[-0.21458333333333332,0.08518518518518518],[-0.21458333333333332,0.08518518518518518],[-0.21458333333333332,0.08518518518518518],[-0.21458333333333332,0.08518518518518518],[-0.21458333333333332,0.08888888888888889],[-0.209375,0.10925925925925926],[-0.19479166666666667,0.12962962962962962],[-0.175,0.15],[-0.13958333333333334,0.17962962962962964],[-0.12708333333333333,0.19074074074074074],[-0.11041666666666666,0.2074074074074074],[-0.09791666666666667,0.22037037037037038],[-0.08854166666666667,0.22962962962962963],[-0.08020833333333334,0.24259259259259258],[-0.07395833333333333,0.25],[-0.071875,0.2518518518518518],[-0.06979166666666667,0.2518518518518518],[-0.065625,0.25555555555555554],[-0.06354166666666666,0.2574074074074074],[-0.059375,0.25925925925925924],[-0.05520833333333333,0.26481481481481484],[-0.04791666666666667,0.2722222222222222],[-0.042708333333333334,0.2777777777777778],[-0.0375,0.2814814814814815],[-0.03125,0.28888888888888886],[-0.028125,0.29259259259259257],[-0.022916666666666665,0.3],[-0.01875,0.3074074074074074],[-0.013541666666666667,0.3148148148148148],[-0.010416666666666666,0.31851851851851853],[-0.00625,0.32592592592592595],[-0.005208333333333333,0.3277777777777778],[-0.003125,0.3314814814814815],[-0.0010416666666666667,0.3351851851851852],[0,0.3388888888888889],[0.003125,0.34629629629629627],[0.00625,0.35555555555555557],[0.008333333333333333,0.3592592592592593],[0.010416666666666666,0.3648148148148148],[0.011458333333333333,0.37037037037037035],[0.0125,0.37592592592592594],[0.014583333333333334,0.38333333333333336],[0.016666666666666666,0.3888888888888889],[0.01875,0.3962962962962963],[0.020833333333333332,0.40370370370370373],[0.022916666666666665,0.4111111111111111],[0.025,0.4166666666666667],[0.025,0.4222222222222222],[0.026041666666666668,0.42777777777777776],[0.027083333333333334,0.43333333333333335],[0.028125,0.4351851851851852],[0.028125,0.4388888888888889],[0.028125,0.44074074074074077],[0.028125,0.4425925925925926],[0.028125,0.4444444444444444],[0.029166666666666667,0.4462962962962963],[0.029166666666666667,0.4462962962962963],[0.029166666666666667,0.4462962962962963],[0.029166666666666667,0.44814814814814813],[0.029166666666666667,0.44814814814814813],[0.029166666666666667,0.44814814814814813],[0.029166666666666667,0.44814814814814813],[0.029166666666666667,0.44814814814814813],[0.029166666666666667,0.44814814814814813],[0.029166666666666667,0.44814814814814813],[0.029166666666666667,0.44814814814814813],[0.029166666666666667,0.44814814814814813],[0.029166666666666667,0.44814814814814813],[0.029166666666666667,0.44814814814814813],[0.029166666666666667,0.44814814814814813],[0.029166666666666667,0.44814814814814813],[0.029166666666666667,0.44814814814814813],[0.029166666666666667,0.44814814814814813],[0.029166666666666667,0.44814814814814813],[0.029166666666666667,0.44814814814814813],[0.029166666666666667,0.44814814814814813],[0.029166666666666667,0.44814814814814813],[0.029166666666666667,0.44814814814814813],[0.029166666666666667,0.44814814814814813],[0.029166666666666667,0.44814814814814813],[0.029166666666666667,0.44814814814814813],[0.029166666666666667,0.44814814814814813],[0.029166666666666667,0.44814814814814813],[0.029166666666666667,0.44814814814814813],[0.029166666666666667,0.44814814814814813],[0.029166666666666667,0.44814814814814813],[0.029166666666666667,0.44814814814814813],[0.029166666666666667,0.45],[0.029166666666666667,0.45],[0.029166666666666667,0.45],[0.029166666666666667,0.45],[0.029166666666666667,0.45],[0.029166666666666667,0.45],[0.029166666666666667,0.45],[0.029166666666666667,0.45],[0.029166666666666667,0.45],[0.029166666666666667,0.45],[0.029166666666666667,0.45],[0.029166666666666667,0.45],[0.029166666666666667,0.45],[0.029166666666666667,0.45],[0.029166666666666667,0.45],[0.029166666666666667,0.45],[0.028125,0.45],[0.034375,0.44814814814814813],[0.036458333333333336,0.44814814814814813],[0.04375,0.44814814814814813],[0.059375,0.44814814814814813],[0.09791666666666667,0.44814814814814813],[0.12604166666666666,0.44814814814814813],[0.15520833333333334,0.44814814814814813],[0.18541666666666667,0.44814814814814813],[0.21458333333333332,0.44814814814814813],[0.25729166666666664,0.44814814814814813],[0.3020833333333333,0.4537037037037037],[0.35208333333333336,0.46111111111111114],[0.39166666666666666,0.4666666666666667],[0.41458333333333336,0.4666666666666667],[0.43333333333333335,0.4666666666666667],[0.4479166666666667,0.4666666666666667],[0.4666666666666667,0.4666666666666667],[0.478125,0.4666666666666667],[0.484375,0.4666666666666667],[0.48854166666666665,0.4666666666666667],[0.490625,0.4666666666666667],[0.490625,0.4666666666666667],[0.490625,0.4666666666666667],[0.490625,0.4666666666666667],[0.490625,0.4666666666666667],[0.490625,0.4666666666666667],[0.490625,0.4666666666666667],[0.490625,0.4666666666666667],[0.490625,0.4666666666666667],[0.490625,0.4666666666666667],[0.490625,0.4666666666666667],[0.490625,0.4666666666666667],[0.490625,0.4666666666666667],[0.490625,0.4666666666666667],[0.490625,0.4666666666666667],[0.490625,0.4666666666666667],[0.490625,0.4666666666666667],[0.490625,0.4666666666666667],[0.490625,0.4666666666666667],[0.490625,0.4666666666666667],[0.490625,0.4666666666666667],[0.490625,0.4666666666666667],[0.490625,0.4666666666666667],[0.490625,0.4666666666666667],[0.490625,0.4666666666666667],[0.490625,0.4666666666666667],[0.490625,0.4666666666666667],[0.490625,0.4666666666666667],[0.490625,0.4666666666666667],[0.490625,0.4666666666666667],[0.490625,0.4666666666666667],[0.490625,0.4666666666666667],[0.490625,0.4666666666666667],[0.490625,0.4666666666666667],[0.490625,0.4666666666666667],[0.490625,0.4666666666666667],[0.490625,0.4666666666666667],[0.4895833333333333,0.4666666666666667],[0.4895833333333333,0.4666666666666667],[0.4895833333333333,0.4666666666666667],[0.4895833333333333,0.4666666666666667],[0.48854166666666665,0.4666666666666667],[0.48854166666666665,0.4666666666666667],[0.48854166666666665,0.4666666666666667],[0.48854166666666665,0.4666666666666667],[0.48854166666666665,0.4666666666666667],[0.48854166666666665,0.4666666666666667],[0.48854166666666665,0.4666666666666667],[0.48854166666666665,0.4666666666666667],[0.48854166666666665,0.4666666666666667],[0.48854166666666665,0.4666666666666667],[0.48854166666666665,0.4666666666666667],[0.48854166666666665,0.4666666666666667],[0.48854166666666665,0.4666666666666667],[0.48854166666666665,0.4666666666666667],[0.48854166666666665,0.4666666666666667],[0.48854166666666665,0.4666666666666667],[0.48854166666666665,0.4666666666666667],[0.48854166666666665,0.4666666666666667],[0.48854166666666665,0.4666666666666667],[0.48854166666666665,0.4666666666666667],[0.48854166666666665,0.4666666666666667],[0.48854166666666665,0.4666666666666667],[0.48854166666666665,0.4666666666666667],[0.48854166666666665,0.4666666666666667],[0.48854166666666665,0.4666666666666667],[0.48854166666666665,0.4666666666666667],[0.48854166666666665,0.4666666666666667],[0.48854166666666665,0.4666666666666667],[0.48854166666666665,0.4666666666666667],[0.48854166666666665,0.4666666666666667],[0.48854166666666665,0.4666666666666667],[0.4875,0.4666666666666667],[0.4875,0.4666666666666667],[0.4875,0.4666666666666667],[0.4875,0.4666666666666667],[0.4875,0.4666666666666667],[0.4875,0.4666666666666667]]","[[0.02645833333333331,0.467962962962963],[0.02645833333333331,0.467962962962963],[0.02645833333333331,0.467962962962963],[0.0265625,0.47740740740740734],[0.006562499999999953,0.4975925925925927],[-0.004791666666666691,0.5003703703703705],[-0.00916666666666662,0.5285185185185185],[-0.021145833333333287,0.5303703703703704],[-0.025625000000000023,0.5199999999999999],[-0.02374999999999995,0.5272222222222223],[-0.053125,0.5622222222222223],[-0.07072916666666665,0.5907407407407408],[-0.07270833333333329,0.6114814814814815],[-0.08250000000000005,0.6305555555555555],[-0.057395833333333354,0.6405555555555555],[-0.03229166666666667,0.6505555555555554],[-0.025520833333333333,0.6375925925925925],[-0.016666666666666666,0.6394444444444444],[-0.025416666666666643,0.653888888888889],[-0.034166666666666616,0.6683333333333333],[-0.029270833333333357,0.6383333333333334],[-0.013437499999999976,0.6118518518518518],[0.012083333333333357,0.6033333333333333],[-0.025312499999999953,0.577962962962963],[-0.027291666666666714,0.5592592592592592],[-0.027291666666666714,0.5592592592592592],[-0.014999999999999977,0.5261111111111112],[-0.02791666666666662,0.4807407407407408],[-0.016979166666666618,0.4383333333333334],[-0.033854166666666664,0.3890740740740741],[-0.005624999999999976,0.3316666666666667],[-0.025,0.3118518518518518],[-0.015625,0.3212962962962963],[-0.015104166666666667,0.3290740740740742],[0.011770833333333286,0.33796296296296297],[0.002812500000000047,0.35462962962962963],[-0.019270833333333334,0.37962962962962965],[-0.019270833333333334,0.37962962962962965],[-0.00791666666666669,0.4140740740740741],[-0.00791666666666669,0.4140740740740741],[-0.012916666666666642,0.4507407407407407],[-0.012916666666666642,0.4507407407407407],[-0.028125,0.4885185185185184],[-0.10739583333333336,0.5174074074074073],[-0.13927083333333337,0.5333333333333333],[-0.13927083333333337,0.5333333333333333],[-0.17906249999999999,0.5237037037037037],[-0.21802083333333327,0.5014814814814814],[-0.2586458333333333,0.47685185185185186],[-0.2586458333333333,0.47685185185185186],[-0.28239583333333335,0.44888888888888884],[-0.3204166666666667,0.4396296296296296],[-0.3460416666666667,0.4140740740740741],[-0.3751041666666667,0.3933333333333333],[-0.37604166666666666,0.3772222222222223],[-0.3601041666666667,0.3685185185185185],[-0.3601041666666667,0.3685185185185185],[-0.34270833333333334,0.3785185185185185],[-0.3333333333333333,0.3381481481481482],[-0.3188541666666667,0.3198148148148149],[-0.2960416666666667,0.3133333333333334],[-0.2719791666666667,0.2942592592592592],[-0.2594791666666667,0.2788888888888889],[-0.25802083333333337,0.272037037037037],[-0.2598958333333333,0.2718518518518518],[-0.2391666666666667,0.22333333333333338],[-0.22322916666666662,0.17592592592592593],[-0.2016666666666667,0.11500000000000005],[-0.23635416666666664,0.09759259259259268],[-0.23635416666666664,0.09759259259259268],[-0.2263541666666666,0.06759259259259259],[-0.19666666666666663,0.04018518518518527],[-0.2111458333333334,0.004259259259259175],[-0.17677083333333338,-0.039629629629629584],[-0.16145833333333334,-0.08703703703703704],[-0.16145833333333334,-0.08703703703703704],[-0.14781249999999999,-0.15703703703703706],[-0.12364583333333339,-0.1624074074074074],[-0.10687500000000003,-0.1551851851851852],[-0.10687500000000003,-0.1551851851851852],[-0.06604166666666664,-0.16574074074074074],[-0.01427083333333338,-0.1714814814814815],[-0.01427083333333338,-0.1714814814814815],[-0.026979166666666644,-0.19740740740740745],[-0.028750000000000022,-0.2094444444444445],[-0.01885416666666669,-0.2131481481481482],[-0.01885416666666669,-0.2131481481481482],[-0.03812500000000003,-0.2140740740740741],[-0.05572916666666667,-0.19759259259259257],[-0.065625,-0.1814814814814815],[-0.065625,-0.1814814814814815],[-0.10020833333333339,-0.1675925925925926],[-0.11083333333333331,-0.17796296296296302],[-0.1454166666666667,-0.17907407407407405],[-0.1454166666666667,-0.17907407407407405],[-0.16906249999999995,-0.21722222222222223],[-0.21770833333333334,-0.20537037037037034],[-0.21770833333333334,-0.20537037037037034],[-0.21666666666666667,-0.21500000000000005],[-0.215625,-0.22462962962962965],[-0.21687500000000004,-0.2561111111111111],[-0.18260416666666662,-0.28407407407407403],[-0.18260416666666662,-0.28407407407407403],[-0.17020833333333332,-0.32092592592592595],[-0.11197916666666667,-0.3453703703703704],[-0.08760416666666669,-0.36518518518518517],[-0.08760416666666669,-0.36518518518518517],[-0.06156250000000003,-0.392037037037037],[-0.04666666666666662,-0.3861111111111111],[-0.04666666666666662,-0.3861111111111111],[0.007083333333333286,-0.40685185185185185],[0.008749999999999977,-0.4383333333333333],[0.016666666666666666,-0.44833333333333336],[0.03187500000000002,-0.4475925925925926],[0.0696875000000001,-0.497037037037037],[0.0696875000000001,-0.497037037037037],[0.10760416666666663,-0.5296296296296297],[0.10072916666666672,-0.582962962962963],[0.10072916666666672,-0.582962962962963],[0.12729166666666672,-0.6059259259259259],[0.15010416666666657,-0.6101851851851852],[0.2037499999999999,-0.6077777777777778],[0.2367708333333333,-0.6098148148148148],[0.2612499999999999,-0.5935185185185186],[0.2775000000000001,-0.6172222222222222],[0.29375,-0.640925925925926],[0.26677083333333323,-0.605],[0.24166666666666667,-0.5775925925925925],[0.28541666666666665,-0.5246296296296297],[0.3198958333333332,-0.48648148148148146],[0.3419791666666666,-0.4468518518518519],[0.3609375,-0.43203703703703705],[0.38791666666666674,-0.41648148148148145],[0.4184375000000001,-0.40018518518518525],[0.4304166666666667,-0.3333333333333333],[0.4304166666666667,-0.3333333333333333],[0.46041666666666664,-0.2853703703703704],[0.47156250000000005,-0.2707407407407407],[0.4118750000000001,-0.27388888888888885],[0.4118750000000001,-0.27388888888888885],[0.2938541666666666,-0.30759259259259264],[0.15750000000000006,-0.34388888888888886],[0.024583333333333356,-0.3888888888888889],[-0.11656249999999997,-0.4179629629629629],[-0.2296875,-0.4203703703703704],[-0.2920833333333333,-0.4396296296296296],[-0.33187500000000003,-0.490925925925926],[-0.33187500000000003,-0.490925925925926],[-0.38125,-0.5164814814814814],[-0.35562499999999997,-0.5153703703703704],[-0.2635416666666667,-0.5011111111111112],[-0.17145833333333335,-0.4868518518518518],[-0.05687500000000002,-0.47092592592592597],[0.06187499999999998,-0.45759259259259266],[0.18864583333333323,-0.42296296296296293],[0.2972916666666668,-0.4244444444444444],[0.3394791666666668,-0.41518518518518516],[0.3758333333333333,-0.4035185185185185],[0.41166666666666674,-0.38481481481481483],[0.39562499999999995,-0.3781481481481481],[0.4058333333333332,-0.38351851851851854],[0.4192708333333333,-0.3859259259259259],[0.4140625,-0.38740740740740737],[0.4088541666666667,-0.3888888888888889],[0.39572916666666674,-0.3940740740740741],[0.3797916666666666,-0.40925925925925927],[0.3819791666666667,-0.41574074074074074],[0.3710416666666667,-0.44000000000000006],[0.35218749999999993,-0.4781481481481481],[0.32874999999999993,-0.4964814814814815],[0.29656250000000006,-0.49129629629629634],[0.2613541666666668,-0.4892592592592592],[0.23770833333333338,-0.49148148148148146],[0.2140625,-0.49370370370370376],[0.17239583333333333,-0.517962962962963],[0.13624999999999995,-0.5190740740740741],[0.13624999999999995,-0.5190740740740741],[0.13427083333333342,-0.5166666666666667],[0.13427083333333342,-0.5166666666666667],[0.14385416666666656,-0.5151851851851852],[0.14385416666666656,-0.5151851851851852],[0.16437499999999997,-0.5018518518518519],[0.17468750000000005,-0.49981481481481477],[0.18499999999999991,-0.4977777777777778],[0.18499999999999991,-0.4977777777777778],[0.22322916666666662,-0.49018518518518517],[0.24177083333333324,-0.4759259259259259],[0.2603125000000001,-0.46166666666666667],[0.2603125000000001,-0.46166666666666667],[0.3151041666666667,-0.40925925925925927],[0.39520833333333344,-0.37111111111111106],[0.4189583333333334,-0.33537037037037043],[0.4189583333333334,-0.33537037037037043],[0.45947916666666655,-0.2640740740740741],[0.5013541666666667,-0.2116666666666667],[0.5453125,-0.14944444444444444],[0.5453125,-0.14944444444444444],[0.5863541666666667,-0.08055555555555556],[0.5805208333333333,-0.03685185185185181],[0.5972916666666668,0.004444444444444402],[0.6313541666666665,0.03777777777777774],[0.6313541666666665,0.03777777777777774],[0.6470833333333333,0.03740740740740749],[0.6479166666666667,0.06092592592592588],[0.6613541666666668,0.07074074074074083],[0.6665625000000001,0.06129629629629634],[0.6459374999999999,0.058333333333333334],[0.6370833333333332,0.03518518518518519],[0.6265625,0.018888888888888972],[0.6265625,0.018888888888888972],[0.6371875,-0.028703703703703703],[0.6478125000000001,-0.07629629629629628],[0.6193749999999999,-0.11148148148148146],[0.5909375,-0.14666666666666664],[0.5579166666666666,-0.19796296296296292],[0.5285416666666668,-0.24000000000000005],[0.5006249999999999,-0.30185185185185187],[0.5006249999999999,-0.30185185185185187],[0.4895833333333333,-0.3622222222222223],[0.45968749999999997,-0.43037037037037035],[0.44333333333333325,-0.5066666666666667],[0.44333333333333325,-0.5066666666666667],[0.4423958333333334,-0.5253703703703704],[0.45031249999999995,-0.5283333333333333],[0.46145833333333336,-0.5174074074074073],[0.45822916666666674,-0.5109259259259259],[0.4510416666666667,-0.5225925925925926],[0.4601041666666667,-0.5318518518518518],[0.4188541666666666,-0.4987037037037037],[0.3828125,-0.47851851851851845],[0.33875000000000005,-0.44518518518518513],[0.2986458333333334,-0.4094444444444445],[0.240625,-0.38925925925925925],[0.240625,-0.38925925925925925],[0.17374999999999996,-0.38481481481481483],[0.10145833333333343,-0.3962962962962963],[0.10145833333333343,-0.3962962962962963],[0.06187499999999998,-0.40907407407407403],[0.02010416666666662,-0.39296296296296296],[-0.03791666666666664,-0.3792592592592593],[-0.03833333333333329,-0.367037037037037],[-0.03822916666666672,-0.3477777777777778],[-0.00458333333333331,-0.3307407407407408],[0.014999999999999977,-0.3307407407407408],[0.029062499999999977,-0.29555555555555557],[0.029062499999999977,-0.29555555555555557],[0.03677083333333329,-0.2855555555555555],[0.034687499999999954,-0.2948148148148148],[0.0609375,-0.2735185185185185],[0.08114583333333343,-0.25574074074074077],[0.09697916666666657,-0.2390740740740741],[0.10052083333333334,-0.22740740740740742],[0.05802083333333338,-0.2531481481481481],[0.009791666666666643,-0.2801851851851852],[-0.021145833333333287,-0.2940740740740741],[-0.04645833333333336,-0.334074074074074],[-0.07052083333333338,-0.3175925925925926],[0.0046875,-0.3175925925925926],[0.002812500000000047,-0.355],[0.007291666666666667,-0.3931481481481482],[0.0078125,-0.4196296296296297],[0.027395833333333286,-0.4631481481481482]]","[[0.02645833333333331,0.467962962962963,0.00030000001192576065],[0.02645833333333331,0.467962962962963,0.040400000035766936],[0.02645833333333331,0.467962962962963,0.04490000003576711],[0.0265625,0.47740740740740734,0.06160000002384436],[0.006562499999999953,0.4975925925925927,0.07930000001192639],[-0.004791666666666691,0.5003703703703705,0.09800000000000608],[-0.00916666666666662,0.5285185185185185,0.11230000001192053],[-0.021145833333333287,0.5303703703703704,0.1284000000357679],[-0.025625000000000023,0.5199999999999999,0.14500000000000313],[-0.02374999999999995,0.5272222222222223,0.16160000002384578],[-0.053125,0.5622222222222223,0.17830000001192303],[-0.07072916666666665,0.5907407407407408,0.19500000000000028],[-0.07270833333333329,0.6114814814814815,0.21180000001192667],[-0.08250000000000005,0.6305555555555555,0.22850000000000392],[-0.057395833333333354,0.6405555555555555,0.24500000000000455],[-0.03229166666666667,0.6505555555555554,0.2616999999880818],[-0.025520833333333333,0.6375925925925925,0.2786000000238431],[-0.016666666666666666,0.6394444444444444,0.2950000000000017],[-0.025416666666666643,0.653888888888889,0.31169999998807896],[-0.034166666666666616,0.6683333333333333,0.328900000035766],[-0.029270833333333357,0.6383333333333334,0.34500000000000597],[-0.013437499999999976,0.6118518518518518,0.3616000000238415],[0.012083333333333357,0.6033333333333333,0.3784000000357679],[-0.025312499999999953,0.577962962962963,0.3950000000000031],[-0.027291666666666714,0.5592592592592592,0.4116999999880804],[-0.027291666666666714,0.5592592592592592,0.42830000001192303],[-0.014999999999999977,0.5261111111111112,0.4449000000357657],[-0.02791666666666662,0.4807407407407408,0.46160000002384294],[-0.016979166666666618,0.4383333333333334,0.4789000000357646],[-0.033854166666666664,0.3890740740740741,0.49490000003576284],[-0.005624999999999976,0.3316666666666667,0.5116000000238472],[-0.025,0.3118518518518518,0.5283000000119245],[-0.015625,0.3212962962962963,0.5450000000000017],[-0.015104166666666667,0.3290740740740742,0.561699999988079],[0.011770833333333286,0.33796296296296297,0.5783000000119216],[0.002812500000000047,0.35462962962962963,0.5949000000357643],[-0.019270833333333334,0.37962962962962965,0.6116999999880832],[-0.019270833333333334,0.37962962962962965,0.6283000000119259],[-0.00791666666666669,0.4140740740740741,0.6450000000000031],[-0.00791666666666669,0.4140740740740741,0.6616999999880804],[-0.012916666666666642,0.4507407407407407,0.678300000011923],[-0.012916666666666642,0.4507407407407407,0.6950000000000003],[-0.028125,0.4885185185185184,0.7118000000119267],[-0.10739583333333336,0.5174074074074073,0.7326999999880783],[-0.13927083333333337,0.5333333333333333,0.7503000000119258],[-0.13927083333333337,0.5333333333333333,0.7616000000238472],[-0.17906249999999999,0.5237037037037037,0.7783000000119245],[-0.21802083333333327,0.5014814814814814,0.7950000000000017],[-0.2586458333333333,0.47685185185185186,0.8116000000238444],[-0.2586458333333333,0.47685185185185186,0.8283000000119216],[-0.28239583333333335,0.44888888888888884,0.845000000000006],[-0.3204166666666667,0.4396296296296296,0.8616999999880832],[-0.3460416666666667,0.4140740740740741,0.8783000000119259],[-0.3751041666666667,0.3933333333333333,0.8966999999880798],[-0.37604166666666666,0.3772222222222223,0.9133000000119225],[-0.3601041666666667,0.3685185185185185,0.9299999999999997],[-0.3601041666666667,0.3685185185185185,0.9451000000238423],[-0.34270833333333334,0.3785185185185185,0.9616999999880846],[-0.3333333333333333,0.3381481481481482,0.9818000000119227],[-0.3188541666666667,0.3198148148148149,0.9976000000238443],[-0.2960416666666667,0.3133333333333334,1.0118000000119238],[-0.2719791666666667,0.2942592592592592,1.028500000000001],[-0.2594791666666667,0.2788888888888889,1.0466000000238438],[-0.25802083333333337,0.272037037037037,1.061699999988079],[-0.2598958333333333,0.2718518518518518,1.0821000000238428],[-0.2391666666666667,0.22333333333333338,1.098699999988085],[-0.22322916666666662,0.17592592592592593,1.1138000000119206],[-0.2016666666666667,0.11500000000000005,1.133500000000005],[-0.23635416666666664,0.09759259259259268,1.1501999999880823],[-0.23635416666666664,0.09759259259259268,1.1618000000119224],[-0.2263541666666666,0.06759259259259259,1.1784999999999997],[-0.19666666666666663,0.04018518518518527,1.1979000000357658],[-0.2111458333333334,0.004259259259259175,1.2120000000000033],[-0.17677083333333338,-0.039629629629629584,1.2326000000238437],[-0.16145833333333334,-0.08703703703703704,1.250900000035763],[-0.16145833333333334,-0.08703703703703704,1.2618000000119238],[-0.14781249999999999,-0.15703703703703706,1.278500000000001],[-0.12364583333333339,-0.1624074074074074,1.2966000000238438],[-0.10687500000000003,-0.1551851851851852,1.318900000035768],[-0.10687500000000003,-0.1551851851851852,1.3284000000357636],[-0.06604166666666664,-0.16574074074074074,1.345100000023848],[-0.01427083333333338,-0.1714814814814815,1.3616999999880832],[-0.01427083333333338,-0.1714814814814815,1.3831999999880793],[-0.026979166666666644,-0.19740740740740745,1.3951999999880798],[-0.028750000000000022,-0.2094444444444445,1.4118000000119224],[-0.01885416666666669,-0.2131481481481482,1.4349000000357677],[-0.01885416666666669,-0.2131481481481482,1.4451000000238423],[-0.03812500000000003,-0.2140740740740741,1.4619000000357687],[-0.05572916666666667,-0.19759259259259257,1.478500000000004],[-0.065625,-0.1814814814814815,1.4980000000000047],[-0.065625,-0.1814814814814815,1.5118000000119238],[-0.10020833333333339,-0.1675925925925926,1.528500000000001],[-0.11083333333333331,-0.17796296296296302,1.5451000000238437],[-0.1454166666666667,-0.17907407407407405,1.5649000000357631],[-0.1454166666666667,-0.17907407407407405,1.5785000000000053],[-0.16906249999999995,-0.21722222222222223,1.5951999999880826],[-0.21770833333333334,-0.20537037037037034,1.6164000000357674],[-0.21770833333333334,-0.20537037037037034,1.6285000000000025],[-0.21666666666666667,-0.21500000000000005,1.6451000000238452],[-0.215625,-0.22462962962962965,1.6618000000119224],[-0.21687500000000004,-0.2561111111111111,1.6816999999880835],[-0.18260416666666662,-0.28407407407407403,1.6981999999880841],[-0.18260416666666662,-0.28407407407407403,1.7118000000119267],[-0.17020833333333332,-0.32092592592592595,1.728600000023846],[-0.11197916666666667,-0.3453703703703704,1.7481999999880813],[-0.08760416666666669,-0.36518518518518517,1.7635000000000005],[-0.08760416666666669,-0.36518518518518517,1.778500000000001],[-0.06156250000000003,-0.392037037037037,1.7993000000119252],[-0.04666666666666662,-0.3861111111111111,1.8156999999880838],[-0.04666666666666662,-0.3861111111111111,1.8284000000357636],[0.007083333333333286,-0.40685185185185185,1.8496000000238482],[0.008749999999999977,-0.4383333333333333,1.8661000000238417],[0.016666666666666666,-0.44833333333333336,1.882000000000005],[0.03187500000000002,-0.4475925925925926,1.9011000000238454],[0.0696875000000001,-0.497037037037037,1.9173000000119202],[0.0696875000000001,-0.497037037037037,1.929100000023844],[0.10760416666666663,-0.5296296296296297,1.9451000000238423],[0.10072916666666672,-0.582962962962963,1.96669999998808],[0.10072916666666672,-0.582962962962963,1.9876000000238463],[0.12729166666666672,-0.6059259259259259,1.9950000000000045],[0.15010416666666657,-0.6101851851851852,2.011600000023847],[0.2037499999999999,-0.6077777777777778,2.029300000011922],[0.2367708333333333,-0.6098148148148148,2.047300000011923],[0.2612499999999999,-0.5935185185185186,2.0645000000000024],[0.2775000000000001,-0.6172222222222222,2.080199999988082],[0.29375,-0.640925925925926,2.097199999988085],[0.26677083333333323,-0.605,2.111699999988083],[0.24166666666666667,-0.5775925925925925,2.1339000000357657],[0.28541666666666665,-0.5246296296296297,2.1488000000119243],[0.3198958333333332,-0.48648148148148146,2.165300000011925],[0.3419791666666666,-0.4468518518518519,2.182699999988081],[0.3609375,-0.43203703703703705,2.198600000023845],[0.38791666666666674,-0.41648148148148145,2.2133000000119267],[0.4184375000000001,-0.40018518518518525,2.2306000000238413],[0.4304166666666667,-0.3333333333333333,2.248600000023842],[0.4304166666666667,-0.3333333333333333,2.2666000000238427],[0.46041666666666664,-0.2853703703703704,2.2830000000000013],[0.47156250000000005,-0.2707407407407407,2.2986000000238462],[0.4118750000000001,-0.27388888888888885,2.311900000035763],[0.4118750000000001,-0.27388888888888885,2.3283000000119216],[0.2938541666666666,-0.30759259259259264,2.345000000000006],[0.15750000000000006,-0.34388888888888886,2.3616000000238415],[0.024583333333333356,-0.3888888888888889,2.378300000011926],[-0.11656249999999997,-0.4179629629629629,2.398400000035764],[-0.2296875,-0.4203703703703704,2.413800000011925],[-0.2920833333333333,-0.4396296296296296,2.4314999999999998],[-0.33187500000000003,-0.490925925925926,2.445199999988084],[-0.33187500000000003,-0.490925925925926,2.466900000035764],[-0.38125,-0.5164814814814814,2.4781999999880853],[-0.35562499999999997,-0.5153703703703704,2.494900000035763],[-0.2635416666666667,-0.5011111111111112,2.511600000023847],[-0.17145833333333335,-0.4868518518518518,2.5291000000238455],[-0.05687500000000002,-0.47092592592592597,2.5468000000119204],[0.06187499999999998,-0.45759259259259266,2.561800000011921],[0.18864583333333323,-0.42296296296296293,2.5783000000119216],[0.2972916666666668,-0.4244444444444444,2.595000000000006],[0.3394791666666668,-0.41518518518518516,2.614300000011923],[0.3758333333333333,-0.4035185185185185,2.6285000000000025],[0.41166666666666674,-0.38481481481481483,2.6449000000357685],[0.39562499999999995,-0.3781481481481481,2.662300000011925],[0.4058333333333332,-0.38351851851851854,2.6786000000238417],[0.4192708333333333,-0.3859259259259259,2.6950000000000003],[0.4140625,-0.38740740740740737,2.711600000023843],[0.4088541666666667,-0.3888888888888889,2.7333000000119227],[0.39572916666666674,-0.3940740740740741,2.7484000000357653],[0.3797916666666666,-0.40925925925925927,2.7636999999880842],[0.3819791666666667,-0.41574074074074074,2.7814000000357666],[0.3710416666666667,-0.44000000000000006,2.7951000000238437],[0.35218749999999993,-0.4781481481481481,2.8123000000119234],[0.32874999999999993,-0.4964814814814815,2.8285000000000053],[0.29656250000000006,-0.49129629629629634,2.8476000000238457],[0.2613541666666668,-0.4892592592592592,2.8619000000357673],[0.23770833333333338,-0.49148148148148146,2.878800000011921],[0.2140625,-0.49370370370370376,2.8985000000000056],[0.17239583333333333,-0.517962962962963,2.913500000000006],[0.13624999999999995,-0.5190740740740741,2.9286000000238417],[0.13624999999999995,-0.5190740740740741,2.949100000023847],[0.13427083333333342,-0.5166666666666667,2.9619000000357687],[0.13427083333333342,-0.5166666666666667,2.978500000000004],[0.14385416666666656,-0.5151851851851852,2.9981999999880813],[0.14385416666666656,-0.5151851851851852,3.011800000011924],[0.16437499999999997,-0.5018518518518519,3.0284000000357665],[0.17468750000000005,-0.49981481481481477,3.0451000000238437],[0.18499999999999991,-0.4977777777777778,3.065600000023842],[0.18499999999999991,-0.4977777777777778,3.0785000000000053],[0.22322916666666662,-0.49018518518518517,3.0954000000357667],[0.24177083333333324,-0.4759259259259259,3.1116000000238415],[0.2603125000000001,-0.46166666666666667,3.131400000035768],[0.2603125000000001,-0.46166666666666667,3.145000000000003],[0.3151041666666667,-0.40925925925925927,3.161600000023846],[0.39520833333333344,-0.37111111111111106,3.178199999988081],[0.4189583333333334,-0.33537037037037043,3.1950000000000003],[0.4189583333333334,-0.33537037037037043,3.2116999999880846],[0.45947916666666655,-0.2640740740740741,3.22830000001192],[0.5013541666666667,-0.2116666666666667,3.244900000035763],[0.5453125,-0.14944444444444444,3.261600000023847],[0.5453125,-0.14944444444444444,3.2783000000119245],[0.5863541666666667,-0.08055555555555556,3.294900000035767],[0.5805208333333333,-0.03685185185185181,3.311699999988079],[0.5972916666666668,0.004444444444444402,3.3284000000357636],[0.6313541666666665,0.03777777777777774,3.3485000000000014],[0.6313541666666665,0.03777777777777774,3.3614999999999995],[0.6470833333333333,0.03740740740740749,3.378300000011926],[0.6479166666666667,0.06092592592592588,3.3949000000357685],[0.6613541666666668,0.07074074074074083,3.412300000011925],[0.6665625000000001,0.06129629629629634,3.430500000000002],[0.6459374999999999,0.058333333333333334,3.4449000000357657],[0.6370833333333332,0.03518518518518519,3.461600000023843],[0.6265625,0.018888888888888972,3.4841999999880784],[0.6265625,0.018888888888888972,3.4950000000000045],[0.6371875,-0.028703703703703703,3.511600000023847],[0.6478125000000001,-0.07629629629629628,3.528800000011927],[0.6193749999999999,-0.11148148148148146,3.5450000000000017],[0.5909375,-0.14666666666666664,3.5621000000238467],[0.5579166666666666,-0.19796296296296292,3.5783000000119216],[0.5285416666666668,-0.24000000000000005,3.595000000000006],[0.5006249999999999,-0.30185185185185187,3.611699999988083],[0.5006249999999999,-0.30185185185185187,3.628300000011926],[0.4895833333333333,-0.3622222222222223,3.645000000000003],[0.45968749999999997,-0.43037037037037035,3.6616999999880804],[0.44333333333333325,-0.5066666666666667,3.678300000011923],[0.44333333333333325,-0.5066666666666667,3.698300000011926],[0.4423958333333334,-0.5253703703703704,3.711600000023843],[0.45031249999999995,-0.5283333333333333,3.72830000001192],[0.46145833333333336,-0.5174074074074073,3.7450000000000045],[0.45822916666666674,-0.5109259259259259,3.7669000000357684],[0.4510416666666667,-0.5225925925925926,3.781800000011927],[0.4601041666666667,-0.5318518518518518,3.7976000000238415],[0.4188541666666666,-0.4987037037037037,3.8115000000000023],[0.3828125,-0.47851851851851845,3.8313000000119217],[0.33875000000000005,-0.44518518518518513,3.845100000023848],[0.2986458333333334,-0.4094444444444445,3.8616000000238415],[0.240625,-0.38925925925925925,3.8786000000238445],[0.240625,-0.38925925925925925,3.895000000000003],[0.17374999999999996,-0.38481481481481483,3.911600000023846],[0.10145833333333343,-0.3962962962962963,3.9286000000238417],[0.10145833333333343,-0.3962962962962963,3.9451000000238423],[0.06187499999999998,-0.40907407407407403,3.9616999999880846],[0.02010416666666662,-0.39296296296296296,3.9796000000238436],[-0.03791666666666664,-0.3792592592592593,3.9950000000000045],[-0.03833333333333329,-0.367037037037037,4.011600000023847],[-0.03822916666666672,-0.3477777777777778,4.032699999988083],[-0.00458333333333331,-0.3307407407407408,4.0489999999999995],[0.014999999999999977,-0.3307407407407408,4.066400000035763],[0.029062499999999977,-0.29555555555555557,4.081100000023845],[0.029062499999999977,-0.29555555555555557,4.095000000000006],[0.03677083333333329,-0.2855555555555555,4.1116000000238415],[0.034687499999999954,-0.2948148148148148,4.128800000011921],[0.0609375,-0.2735185185185185,4.1449000000357685],[0.08114583333333343,-0.25574074074074077,4.1626000000238434],[0.09697916666666657,-0.2390740740740741,4.1816999999880835],[0.10052083333333334,-0.22740740740740742,4.197900000035766],[0.05802083333333338,-0.2531481481481481,4.214100000023848],[0.009791666666666643,-0.2801851851851852,4.233199999988081],[-0.021145833333333287,-0.2940740740740741,4.248600000023842],[-0.04645833333333336,-0.334074074074074,4.2621000000238425],[-0.07052083333333338,-0.3175925925925926,4.282100000023846],[0.0046875,-0.3175925925925926,4.2983000000119205],[0.002812500000000047,-0.355,4.3151999999880815],[0.007291666666666667,-0.3931481481481482,4.331699999988082],[0.0078125,-0.4196296296296297,4.347500000000004],[0.027395833333333286,-0.4631481481481482,4.365000000000002]]","[0.00030000001192576065,0.040400000035766936,0.04490000003576711,0.06160000002384436,0.07930000001192639,0.09800000000000608,0.11230000001192053,0.1284000000357679,0.14500000000000313,0.16160000002384578,0.17830000001192303,0.19500000000000028,0.21180000001192667,0.22850000000000392,0.24500000000000455,0.2616999999880818,0.2786000000238431,0.2950000000000017,0.31169999998807896,0.328900000035766,0.34500000000000597,0.3616000000238415,0.3784000000357679,0.3950000000000031,0.4116999999880804,0.42830000001192303,0.4449000000357657,0.46160000002384294,0.4789000000357646,0.49490000003576284,0.5116000000238472,0.5283000000119245,0.5450000000000017,0.561699999988079,0.5783000000119216,0.5949000000357643,0.6116999999880832,0.6283000000119259,0.6450000000000031,0.6616999999880804,0.678300000011923,0.6950000000000003,0.7118000000119267,0.7326999999880783,0.7503000000119258,0.7616000000238472,0.7783000000119245,0.7950000000000017,0.8116000000238444,0.8283000000119216,0.845000000000006,0.8616999999880832,0.8783000000119259,0.8966999999880798,0.9133000000119225,0.9299999999999997,0.9451000000238423,0.9616999999880846,0.9818000000119227,0.9976000000238443,1.0118000000119238,1.028500000000001,1.0466000000238438,1.061699999988079,1.0821000000238428,1.098699999988085,1.1138000000119206,1.133500000000005,1.1501999999880823,1.1618000000119224,1.1784999999999997,1.1979000000357658,1.2120000000000033,1.2326000000238437,1.250900000035763,1.2618000000119238,1.278500000000001,1.2966000000238438,1.318900000035768,1.3284000000357636,1.345100000023848,1.3616999999880832,1.3831999999880793,1.3951999999880798,1.4118000000119224,1.4349000000357677,1.4451000000238423,1.4619000000357687,1.478500000000004,1.4980000000000047,1.5118000000119238,1.528500000000001,1.5451000000238437,1.5649000000357631,1.5785000000000053,1.5951999999880826,1.6164000000357674,1.6285000000000025,1.6451000000238452,1.6618000000119224,1.6816999999880835,1.6981999999880841,1.7118000000119267,1.728600000023846,1.7481999999880813,1.7635000000000005,1.778500000000001,1.7993000000119252,1.8156999999880838,1.8284000000357636,1.8496000000238482,1.8661000000238417,1.882000000000005,1.9011000000238454,1.9173000000119202,1.929100000023844,1.9451000000238423,1.96669999998808,1.9876000000238463,1.9950000000000045,2.011600000023847,2.029300000011922,2.047300000011923,2.0645000000000024,2.080199999988082,2.097199999988085,2.111699999988083,2.1339000000357657,2.1488000000119243,2.165300000011925,2.182699999988081,2.198600000023845,2.2133000000119267,2.2306000000238413,2.248600000023842,2.2666000000238427,2.2830000000000013,2.2986000000238462,2.311900000035763,2.3283000000119216,2.345000000000006,2.3616000000238415,2.378300000011926,2.398400000035764,2.413800000011925,2.4314999999999998,2.445199999988084,2.466900000035764,2.4781999999880853,2.494900000035763,2.511600000023847,2.5291000000238455,2.5468000000119204,2.561800000011921,2.5783000000119216,2.595000000000006,2.614300000011923,2.6285000000000025,2.6449000000357685,2.662300000011925,2.6786000000238417,2.6950000000000003,2.711600000023843,2.7333000000119227,2.7484000000357653,2.7636999999880842,2.7814000000357666,2.7951000000238437,2.8123000000119234,2.8285000000000053,2.8476000000238457,2.8619000000357673,2.878800000011921,2.8985000000000056,2.913500000000006,2.9286000000238417,2.949100000023847,2.9619000000357687,2.978500000000004,2.9981999999880813,3.011800000011924,3.0284000000357665,3.0451000000238437,3.065600000023842,3.0785000000000053,3.0954000000357667,3.1116000000238415,3.131400000035768,3.145000000000003,3.161600000023846,3.178199999988081,3.1950000000000003,3.2116999999880846,3.22830000001192,3.244900000035763,3.261600000023847,3.2783000000119245,3.294900000035767,3.311699999988079,3.3284000000357636,3.3485000000000014,3.3614999999999995,3.378300000011926,3.3949000000357685,3.412300000011925,3.430500000000002,3.4449000000357657,3.461600000023843,3.4841999999880784,3.4950000000000045,3.511600000023847,3.528800000011927,3.5450000000000017,3.5621000000238467,3.5783000000119216,3.595000000000006,3.611699999988083,3.628300000011926,3.645000000000003,3.6616999999880804,3.678300000011923,3.698300000011926,3.711600000023843,3.72830000001192,3.7450000000000045,3.7669000000357684,3.781800000011927,3.7976000000238415,3.8115000000000023,3.8313000000119217,3.845100000023848,3.8616000000238415,3.8786000000238445,3.895000000000003,3.911600000023846,3.9286000000238417,3.9451000000238423,3.9616999999880846,3.9796000000238436,3.9950000000000045,4.011600000023847,4.032699999988083,4.0489999999999995,4.066400000035763,4.081100000023845,4.095000000000006,4.1116000000238415,4.128800000011921,4.1449000000357685,4.1626000000238434,4.1816999999880835,4.197900000035766,4.214100000023848,4.233199999988081,4.248600000023842,4.2621000000238425,4.282100000023846,4.2983000000119205,4.3151999999880815,4.331699999988082,4.347500000000004,4.365000000000002]","[1732874455210,1732874455242,1732874455247,1732874455264,1732874455281,1732874455300,1732874455314,1732874455330,1732874455347,1732874455364,1732874455380,1732874455397,1732874455414,1732874455431,1732874455447,1732874455464,1732874455481,1732874455497,1732874455514,1732874455531,1732874455547,1732874455564,1732874455580,1732874455597,1732874455614,1732874455630,1732874455647,1732874455664,1732874455681,1732874455697,1732874455714,1732874455730,1732874455747,1732874455764,1732874455780,1732874455797,1732874455814,1732874455830,1732874455847,1732874455864,1732874455880,1732874455897,1732874455914,1732874455935,1732874455952,1732874455964,1732874455980,1732874455997,1732874456014,1732874456030,1732874456047,1732874456064,1732874456080,1732874456099,1732874456115,1732874456132,1732874456147,1732874456164,1732874456184,1732874456200,1732874456214,1732874456231,1732874456249,1732874456264,1732874456284,1732874456301,1732874456316,1732874456336,1732874456352,1732874456364,1732874456380,1732874456400,1732874456414,1732874456435,1732874456453,1732874456464,1732874456480,1732874456499,1732874456521,1732874456530,1732874456547,1732874456564,1732874456585,1732874456597,1732874456614,1732874456637,1732874456647,1732874456664,1732874456680,1732874456700,1732874456714,1732874456730,1732874456747,1732874456767,1732874456780,1732874456797,1732874456818,1732874456830,1732874456847,1732874456864,1732874456884,1732874456900,1732874456914,1732874456931,1732874456950,1732874456965,1732874456981,1732874457001,1732874457018,1732874457030,1732874457052,1732874457068,1732874457084,1732874457103,1732874457119,1732874457131,1732874457147,1732874457169,1732874457190,1732874457197,1732874457214,1732874457231,1732874457249,1732874457266,1732874457282,1732874457299,1732874457314,1732874457336,1732874457351,1732874457367,1732874457385,1732874457401,1732874457415,1732874457433,1732874457451,1732874457469,1732874457485,1732874457501,1732874457514,1732874457530,1732874457547,1732874457564,1732874457580,1732874457600,1732874457616,1732874457634,1732874457647,1732874457669,1732874457680,1732874457697,1732874457714,1732874457731,1732874457749,1732874457764,1732874457780,1732874457797,1732874457816,1732874457830,1732874457847,1732874457864,1732874457881,1732874457897,1732874457914,1732874457935,1732874457950,1732874457966,1732874457983,1732874457997,1732874458014,1732874458030,1732874458050,1732874458064,1732874458081,1732874458100,1732874458115,1732874458131,1732874458151,1732874458164,1732874458181,1732874458200,1732874458214,1732874458230,1732874458247,1732874458268,1732874458283,1732874458300,1732874458316,1732874458336,1732874458349,1732874458366,1732874458383,1732874458399,1732874458416,1732874458433,1732874458449,1732874458466,1732874458483,1732874458499,1732874458516,1732874458533,1732874458553,1732874458566,1732874458583,1732874458599,1732874458617,1732874458635,1732874458649,1732874458666,1732874458689,1732874458699,1732874458716,1732874458733,1732874458749,1732874458766,1732874458783,1732874458799,1732874458816,1732874458833,1732874458849,1732874458866,1732874458883,1732874458903,1732874458916,1732874458933,1732874458949,1732874458971,1732874458986,1732874459002,1732874459016,1732874459036,1732874459049,1732874459066,1732874459083,1732874459099,1732874459116,1732874459133,1732874459149,1732874459166,1732874459184,1732874459199,1732874459216,1732874459237,1732874459253,1732874459271,1732874459285,1732874459299,1732874459316,1732874459333,1732874459349,1732874459367,1732874459386,1732874459402,1732874459419,1732874459438,1732874459453,1732874459467,1732874459486,1732874459503,1732874459520,1732874459536,1732874459552,1732874459569]","[[985.4,792.7],[985.4,792.7],[985.4,792.7],[985.5,797.8],[966.3,808.7],[955.4,810.2],[951.2,825.4],[939.7,826.4],[935.4,820.8],[937.2,824.7],[909,843.6],[892.1,859],[890.2,870.2],[880.8,880.5],[904.9,885.9],[929,891.3],[935.5,884.3],[944,885.3],[935.6,893.1],[927.2,900.9],[931.9,884.7],[947.1,870.4],[971.6,865.8],[935.7,852.1],[933.8,842],[933.8,842],[945.6,824.1],[933.2,799.6],[943.7,776.7],[927.5,750.1],[954.6,719.1],[936,708.4],[945,713.5],[945.5,717.7],[971.3,722.5],[962.7,731.5],[941.5,745],[941.5,745],[952.4,763.6],[952.4,763.6],[947.6,783.4],[947.6,783.4],[933,803.8],[856.9,819.4],[826.3,828],[826.3,828],[788.1,822.8],[750.7,810.8],[711.7,797.5],[711.7,797.5],[688.9,782.4],[652.4,777.4],[627.8,763.6],[599.9,752.4],[599,743.7],[614.3,739],[614.3,739],[631,744.4],[640,722.6],[653.9,712.7],[675.8,709.2],[698.9,698.9],[710.9,690.6],[712.3,686.9],[710.5,686.8],[730.4,660.6],[745.7,635],[766.4,602.1],[733.1,592.7],[733.1,592.7],[742.7,576.5],[771.2,561.7],[757.3,542.3],[790.3,518.6],[805,493],[805,493],[818.1,455.2],[841.3,452.3],[857.4,456.2],[857.4,456.2],[896.6,450.5],[946.3,447.4],[946.3,447.4],[934.1,433.4],[932.4,426.9],[941.9,424.9],[941.9,424.9],[923.4,424.4],[906.5,433.3],[897,442],[897,442],[863.8,449.5],[853.6,443.9],[820.4,443.3],[820.4,443.3],[797.7,422.7],[751,429.1],[751,429.1],[752,423.9],[753,418.7],[751.8,401.7],[784.7,386.6],[784.7,386.6],[796.6,366.7],[852.5,353.5],[875.9,342.8],[875.9,342.8],[900.9,328.3],[915.2,331.5],[915.2,331.5],[966.8,320.3],[968.4,303.3],[976,297.9],[990.6,298.3],[1026.9,271.6],[1026.9,271.6],[1063.3,254],[1056.7,225.2],[1056.7,225.2],[1082.2,212.8],[1104.1,210.5],[1155.6,211.8],[1187.3,210.7],[1210.8,219.5],[1226.4,206.7],[1242,193.9],[1216.1,213.3],[1192,228.1],[1234,256.7],[1267.1,277.3],[1288.3,298.7],[1306.5,306.7],[1332.4,315.1],[1361.7,323.9],[1373.2,360],[1373.2,360],[1402,385.9],[1412.7,393.8],[1355.4,392.1],[1355.4,392.1],[1242.1,373.9],[1111.2,354.3],[983.6,330],[848.1,314.3],[739.5,313],[679.6,302.6],[641.4,274.9],[641.4,274.9],[594,261.1],[618.6,261.7],[707,269.4],[795.4,277.1],[905.4,285.7],[1019.4,292.9],[1141.1,311.6],[1245.4,310.8],[1285.9,315.8],[1320.8,322.1],[1355.2,332.2],[1339.8,335.8],[1349.6,332.9],[1362.5,331.6],[1357.5,330.8],[1352.5,330],[1339.9,327.2],[1324.6,319],[1326.7,315.5],[1316.2,302.4],[1298.1,281.8],[1275.6,271.9],[1244.7,274.7],[1210.9,275.8],[1188.2,274.6],[1165.5,273.4],[1125.5,260.3],[1090.8,259.7],[1090.8,259.7],[1088.9,261],[1088.9,261],[1098.1,261.8],[1098.1,261.8],[1117.8,269],[1127.7,270.1],[1137.6,271.2],[1137.6,271.2],[1174.3,275.3],[1192.1,283],[1209.9,290.7],[1209.9,290.7],[1262.5,319],[1339.4,339.6],[1362.2,358.9],[1362.2,358.9],[1401.1,397.4],[1441.3,425.7],[1483.5,459.3],[1483.5,459.3],[1522.9,496.5],[1517.3,520.1],[1533.4,542.4],[1566.1,560.4],[1566.1,560.4],[1581.2,560.2],[1582,572.9],[1594.9,578.2],[1599.9,573.1],[1580.1,571.5],[1571.6,559],[1561.5,550.2],[1561.5,550.2],[1571.7,524.5],[1581.9,498.8],[1554.6,479.8],[1527.3,460.8],[1495.6,433.1],[1467.4,410.4],[1440.6,377],[1440.6,377],[1430,344.4],[1401.3,307.6],[1385.6,266.4],[1385.6,266.4],[1384.7,256.3],[1392.3,254.7],[1403,260.6],[1399.9,264.1],[1393,257.8],[1401.7,252.8],[1362.1,270.7],[1327.5,281.6],[1285.2,299.6],[1246.7,318.9],[1191,329.8],[1191,329.8],[1126.8,332.2],[1057.4,326],[1057.4,326],[1019.4,319.1],[979.3,327.8],[923.6,335.2],[923.2,341.8],[923.3,352.2],[955.6,361.4],[974.4,361.4],[987.9,380.4],[987.9,380.4],[995.3,385.8],[993.3,380.8],[1018.5,392.3],[1037.9,401.9],[1053.1,410.9],[1056.5,417.2],[1015.7,403.3],[969.4,388.7],[939.7,381.2],[915.4,359.6],[892.3,368.5],[964.5,368.5],[962.7,348.3],[967,327.7],[967.5,313.4],[986.3,289.9]]","[0,0.5333]","[0.5333,0.5333]","[-0.5333,0]","[-0.5333,-0.5333]","[0,0]","[0.5333,0]","[0,-0.5333]","[0.5333,-0.5333]",0,0,0,0,1,4,Monitor,11,5,13,9
,,,,,,,,,,,,,,,,,,,,10,001,2024-11-29_18h00.14.883,Attention_exp_legacy,2023.1.0,Win32,59.88023952,,,,,,,,,,[0.47291666666666665],[0.46111111111111114],[1],[0],[0],[1.1648000000119225],"[""Option2_label""]",Option2_label,2,2.1665,"[[0.48020833333333335,0.4648148148148148],[0.478125,0.46296296296296297],[0.478125,0.46296296296296297],[0.478125,0.46296296296296297],[0.47708333333333336,0.46296296296296297],[0.47604166666666664,0.46296296296296297],[0.47604166666666664,0.46296296296296297],[0.47604166666666664,0.46296296296296297],[0.475,0.46296296296296297],[0.475,0.46296296296296297],[0.475,0.46111111111111114],[0.475,0.46111111111111114],[0.475,0.46111111111111114],[0.4739583333333333,0.46111111111111114],[0.4739583333333333,0.46111111111111114],[0.4739583333333333,0.46111111111111114],[0.47291666666666665,0.46111111111111114],[0.47291666666666665,0.46111111111111114],[0.47291666666666665,0.46111111111111114],[0.47291666666666665,0.46111111111111114],[0.47291666666666665,0.46111111111111114],[0.47291666666666665,0.46111111111111114],[0.47291666666666665,0.46111111111111114],[0.47291666666666665,0.46111111111111114],[0.47291666666666665,0.46111111111111114],[0.47291666666666665,0.46111111111111114],[0.47291666666666665,0.46111111111111114],[0.47291666666666665,0.46111111111111114],[0.47291666666666665,0.46111111111111114],[0.47291666666666665,0.46111111111111114],[0.47291666666666665,0.46111111111111114],[0.47291666666666665,0.46111111111111114],[0.47291666666666665,0.46111111111111114],[0.47291666666666665,0.46111111111111114],[0.47291666666666665,0.46111111111111114],[0.47291666666666665,0.46111111111111114],[0.47291666666666665,0.46111111111111114],[0.47291666666666665,0.46111111111111114],[0.47291666666666665,0.46111111111111114],[0.47291666666666665,0.46111111111111114],[0.47291666666666665,0.46111111111111114],[0.47291666666666665,0.46111111111111114],[0.47291666666666665,0.46111111111111114],[0.47291666666666665,0.46111111111111114],[0.47291666666666665,0.46111111111111114],[0.47291666666666665,0.46111111111111114],[0.47291666666666665,0.46111111111111114],[0.47291666666666665,0.46111111111111114],[0.47291666666666665,0.46111111111111114],[0.47291666666666665,0.46111111111111114],[0.47291666666666665,0.46111111111111114],[0.47291666666666665,0.46111111111111114],[0.47291666666666665,0.46111111111111114],[0.47291666666666665,0.46111111111111114],[0.47291666666666665,0.46111111111111114],[0.47291666666666665,0.46111111111111114],[0.47291666666666665,0.46111111111111114],[0.47291666666666665,0.46111111111111114],[0.47291666666666665,0.46111111111111114],[0.47291666666666665,0.46111111111111114],[0.47291666666666665,0.46111111111111114],[0.47291666666666665,0.46111111111111114],[0.47291666666666665,0.46111111111111114],[0.47291666666666665,0.46111111111111114],[0.47291666666666665,0.46111111111111114],[0.47291666666666665,0.46111111111111114],[0.47291666666666665,0.46111111111111114],[0.47291666666666665,0.46111111111111114],[0.47291666666666665,0.46111111111111114],[0.47291666666666665,0.46111111111111114],[0.47291666666666665,0.46111111111111114],[0.47291666666666665,0.46111111111111114],[0.47291666666666665,0.46111111111111114],[0.47291666666666665,0.46111111111111114],[0.47291666666666665,0.46111111111111114],[0.47291666666666665,0.46111111111111114],[0.47291666666666665,0.46111111111111114],[0.47291666666666665,0.46111111111111114],[0.47291666666666665,0.46111111111111114],[0.47291666666666665,0.46111111111111114],[0.47291666666666665,0.46111111111111114],[0.47291666666666665,0.46111111111111114],[0.47291666666666665,0.46111111111111114],[0.47291666666666665,0.46111111111111114],[0.47291666666666665,0.46111111111111114],[0.47291666666666665,0.46111111111111114],[0.47291666666666665,0.46111111111111114],[0.47291666666666665,0.46111111111111114],[0.47291666666666665,0.46111111111111114],[0.47291666666666665,0.46111111111111114],[0.47291666666666665,0.46111111111111114],[0.47291666666666665,0.46111111111111114],[0.47291666666666665,0.46111111111111114],[0.47291666666666665,0.46111111111111114],[0.47291666666666665,0.46111111111111114],[0.47291666666666665,0.46111111111111114],[0.47291666666666665,0.46111111111111114],[0.47291666666666665,0.46111111111111114],[0.47291666666666665,0.46111111111111114],[0.47291666666666665,0.46111111111111114],[0.47291666666666665,0.46111111111111114],[0.47291666666666665,0.46111111111111114],[0.47291666666666665,0.46111111111111114],[0.47291666666666665,0.46111111111111114],[0.47291666666666665,0.46111111111111114],[0.47291666666666665,0.46111111111111114],[0.47291666666666665,0.46111111111111114],[0.47291666666666665,0.46111111111111114],[0.47291666666666665,0.46111111111111114],[0.47291666666666665,0.46111111111111114],[0.47291666666666665,0.46111111111111114],[0.47291666666666665,0.46111111111111114],[0.47291666666666665,0.46111111111111114],[0.47291666666666665,0.46111111111111114],[0.47291666666666665,0.46111111111111114],[0.47291666666666665,0.46111111111111114],[0.47291666666666665,0.46111111111111114],[0.47291666666666665,0.46111111111111114],[0.47291666666666665,0.46111111111111114],[0.47291666666666665,0.46111111111111114],[0.47291666666666665,0.46111111111111114],[0.47291666666666665,0.46111111111111114],[0.47291666666666665,0.46111111111111114],[0.47291666666666665,0.46111111111111114],[0.47291666666666665,0.46111111111111114],[0.47291666666666665,0.46111111111111114],[0.47291666666666665,0.46111111111111114],[0.47291666666666665,0.46111111111111114],[0.47291666666666665,0.46111111111111114],[0.47291666666666665,0.46111111111111114],[0.47291666666666665,0.46111111111111114]]","[[0.17135416666666667,-0.023148148148148147],[0.17135416666666667,-0.023148148148148147],[0.20458333333333342,-0.05],[0.2275000000000001,-0.0883333333333333],[0.2864583333333333,-0.14685185185185187],[0.2864583333333333,-0.14685185185185187],[0.3307291666666667,-0.24240740740740738],[0.37958333333333344,-0.3296296296296296],[0.3828125,-0.35481481481481486],[0.3828125,-0.35481481481481486],[0.39187500000000003,-0.37333333333333335],[0.4147916666666667,-0.43037037037037035],[0.39854166666666657,-0.462037037037037],[0.39854166666666657,-0.462037037037037],[0.41302083333333334,-0.492037037037037],[0.41375000000000006,-0.5361111111111111],[0.4202083333333334,-0.571111111111111],[0.40499999999999997,-0.607962962962963],[0.40499999999999997,-0.607962962962963],[0.41083333333333344,-0.6087037037037036],[0.4184375000000001,-0.6027777777777777],[0.4301041666666668,-0.6146296296296296],[0.42937500000000006,-0.5988888888888888],[0.4379166666666668,-0.5798148148148149],[0.44510416666666663,-0.5455555555555556],[0.4318749999999999,-0.5492592592592593],[0.43031249999999993,-0.5487037037037037],[0.3977083333333333,-0.5175925925925926],[0.40427083333333325,-0.5205555555555555],[0.38083333333333325,-0.5014814814814815],[0.3544791666666666,-0.4714814814814815],[0.32843749999999994,-0.46592592592592597],[0.3189583333333334,-0.45685185185185184],[0.30145833333333344,-0.4557407407407408],[0.30145833333333344,-0.4557407407407408],[0.30666666666666675,-0.47370370370370374],[0.30666666666666675,-0.47370370370370374],[0.3245833333333332,-0.4677777777777778],[0.31364583333333323,-0.44592592592592595],[0.31364583333333323,-0.44592592592592595],[0.33354166666666674,-0.46296296296296297],[0.33833333333333326,-0.43444444444444447],[0.33833333333333326,-0.43444444444444447],[0.36218750000000005,-0.42962962962962964],[0.38479166666666675,-0.4440740740740741],[0.403125,-0.43851851851851853],[0.403125,-0.43851851851851853],[0.4248958333333334,-0.4440740740740741],[0.4461458333333333,-0.4366666666666667],[0.4461458333333333,-0.4366666666666667],[0.4661458333333333,-0.4359259259259259],[0.4661458333333333,-0.4359259259259259],[0.47708333333333336,-0.43388888888888894],[0.5034375,-0.45388888888888895],[0.5034375,-0.45388888888888895],[0.5473958333333333,-0.46407407407407414],[0.5591666666666666,-0.47185185185185186],[0.5599999999999999,-0.5014814814814815],[0.5599999999999999,-0.5014814814814815],[0.6034375,-0.5025925925925926],[0.6292708333333332,-0.5068518518518518],[0.625,-0.4911111111111111],[0.6262500000000001,-0.4735185185185185],[0.6338541666666667,-0.4777777777777778],[0.6395833333333333,-0.4612962962962963],[0.6470833333333333,-0.4440740740740741],[0.6235416666666665,-0.40314814814814814],[0.6368750000000001,-0.3864814814814815],[0.6483333333333334,-0.33296296296296296],[0.6130208333333333,-0.3375925925925926],[0.6309375,-0.3014814814814815],[0.6443749999999999,-0.2874074074074074],[0.62,-0.2757407407407407],[0.5932291666666667,-0.25925925925925924],[0.590625,-0.2337037037037037],[0.5879166666666668,-0.22148148148148153],[0.5933333333333333,-0.24407407407407408],[0.5797916666666666,-0.24203703703703702],[0.5619791666666667,-0.26500000000000007],[0.5511458333333332,-0.2564814814814815],[0.49031250000000004,-0.28833333333333333],[0.44854166666666656,-0.3168518518518519],[0.4703125,-0.33425925925925926],[0.4931250000000001,-0.3446296296296297],[0.4822916666666667,-0.35962962962962963],[0.4639583333333334,-0.3742592592592593],[0.4015625,-0.33777777777777773],[0.3396874999999999,-0.3314814814814815],[0.3055208333333333,-0.3055555555555556],[0.25770833333333343,-0.27907407407407403],[0.21645833333333328,-0.24574074074074073],[0.1671875,-0.20981481481481484],[0.10916666666666662,-0.17240740740740745],[0.051250000000000046,-0.14962962962962964],[0.051250000000000046,-0.14962962962962964],[0.010000000000000024,-0.10833333333333334],[0.010000000000000024,-0.10833333333333334],[-0.029791666666666692,-0.07037037037037037],[-0.05354166666666664,-0.062037037037037036],[-0.05354166666666664,-0.062037037037037036],[-0.06854166666666663,-0.03685185185185181],[-0.07833333333333338,-0.02166666666666675],[-0.10333333333333337,-0.013518518518518435],[-0.09979166666666663,0.007777777777777862],[-0.08937499999999995,0.006481481481481481],[-0.09666666666666662,-0.008703703703703788],[-0.12729166666666672,0.0020370370370370794],[-0.16510416666666666,-0.010185185185185186],[-0.16510416666666666,-0.010185185185185186],[-0.1782291666666667,-0.007592592592592635],[-0.18229166666666666,-0.006851851851851936],[-0.17229166666666665,-0.0257407407407407],[-0.1716666666666666,-0.057777777777777754],[-0.1514583333333333,-0.07962962962962963],[-0.17718750000000003,-0.1022222222222222],[-0.20979166666666665,-0.1022222222222222],[-0.22760416666666666,-0.09240740740740737],[-0.22218749999999995,-0.09388888888888887],[-0.20260416666666667,-0.09796296296296292],[-0.2015625,-0.1],[-0.17999999999999997,-0.10833333333333334],[-0.17250000000000001,-0.09703703703703699],[-0.16958333333333328,-0.07407407407407407],[-0.17354166666666668,-0.060370370370370414],[-0.1336458333333333,-0.05592592592592591],[-0.10104166666666667,-0.039629629629629584],[-0.09166666666666666,-0.03462962962962971],[-0.08229166666666667,-0.02962962962962963],[-0.07989583333333337,-0.034444444444444486],[-0.0858333333333333,-0.03481481481481473],[-0.10687500000000003,-0.01518518518518527]]","[[0.17135416666666667,-0.023148148148148147,0.00010000002384202844],[0.17135416666666667,-0.023148148148148147,0.020199999988079753],[0.20458333333333342,-0.05,0.03310000002384328],[0.2275000000000001,-0.0883333333333333,0.0508000000119182],[0.2864583333333333,-0.14685185185185187,0.071800000011919],[0.2864583333333333,-0.14685185185185187,0.08330000001192417],[0.3307291666666667,-0.24240740740740738,0.09969999998808277],[0.37958333333333344,-0.3296296296296296,0.11640000003576034],[0.3828125,-0.35481481481481486,0.13569999998807702],[0.3828125,-0.35481481481481486,0.14980000001192195],[0.39187500000000003,-0.37333333333333335,0.16660000002384123],[0.4147916666666667,-0.43037037037037035,0.18310000002384186],[0.39854166666666657,-0.462037037037037,0.20290000003576125],[0.39854166666666657,-0.462037037037037,0.22110000002384567],[0.41302083333333334,-0.492037037037037,0.23310000002383902],[0.41375000000000006,-0.5361111111111111,0.25150000000000006],[0.4202083333333334,-0.571111111111111,0.26960000002384277],[0.40499999999999997,-0.607962962962963,0.28830000001192246],[0.40499999999999997,-0.607962962962963,0.29980000001192053],[0.41083333333333344,-0.6087037037037036,0.3164000000357632],[0.4184375000000001,-0.6027777777777777,0.33330000001192417],[0.4301041666666668,-0.6146296296296296,0.3539000000357646],[0.42937500000000006,-0.5988888888888888,0.36990000003576284],[0.4379166666666668,-0.5798148148148149,0.38530000001192377],[0.44510416666666663,-0.5455555555555556,0.40140000003576404],[0.4318749999999999,-0.5492592592592593,0.4186000000238437],[0.43031249999999993,-0.5487037037037037,0.43610000002384197],[0.3977083333333333,-0.5175925925925926,0.4526000000238426],[0.40427083333333325,-0.5205555555555555,0.46650000000000347],[0.38083333333333325,-0.5014814814814815,0.483100000023839],[0.3544791666666666,-0.4714814814814815,0.5035000000000025],[0.32843749999999994,-0.46592592592592597,0.5186000000238451],[0.3189583333333334,-0.45685185185185184,0.5331000000238433],[0.30145833333333344,-0.4557407407407408,0.551800000011923],[0.30145833333333344,-0.4557407407407408,0.5671000000238422],[0.30666666666666675,-0.47370370370370374,0.5833000000119242],[0.30666666666666675,-0.47370370370370374,0.5998000000119177],[0.3245833333333332,-0.4677777777777778,0.616500000000002],[0.31364583333333323,-0.44592592592592595,0.6353000000119238],[0.31364583333333323,-0.44592592592592595,0.649800000011922],[0.33354166666666674,-0.46296296296296297,0.6664000000357646],[0.33833333333333326,-0.43444444444444447,0.6831999999880765],[0.33833333333333326,-0.43444444444444447,0.6998000000119191],[0.36218750000000005,-0.42962962962962964,0.7165000000000035],[0.38479166666666675,-0.4440740740740741,0.732999999999997],[0.403125,-0.43851851851851853,0.7523000000119211],[0.403125,-0.43851851851851853,0.7665000000000006],[0.4248958333333334,-0.4440740740740741,0.7831000000238433],[0.4461458333333333,-0.4366666666666667,0.7999000000357626],[0.4461458333333333,-0.4366666666666667,0.8254999999999981],[0.4661458333333333,-0.4359259259259259,0.8443000000119198],[0.4661458333333333,-0.4359259259259259,0.8515000000000015],[0.47708333333333336,-0.43388888888888894,0.8664000000357603],[0.5034375,-0.45388888888888895,0.8830000000000027],[0.5034375,-0.45388888888888895,0.899800000011922],[0.5473958333333333,-0.46407407407407414,0.9164000000357646],[0.5591666666666666,-0.47185185185185186,0.9331999999880765],[0.5599999999999999,-0.5014814814814815,0.9498000000119191],[0.5599999999999999,-0.5014814814814815,0.9664000000357618],[0.6034375,-0.5025925925925926,0.983100000023839],[0.6292708333333332,-0.5068518518518518,0.9996999999880813],[0.625,-0.4911111111111111,1.016400000035766],[0.6262500000000001,-0.4735185185185185,1.0335000000000036],[0.6338541666666667,-0.4777777777777778,1.0536000000238417],[0.6395833333333333,-0.4612962962962963,1.0664000000357632],[0.6470833333333333,-0.4440740740740741,1.0829999999999984],[0.6235416666666665,-0.40314814814814814,1.0998000000119177],[0.6368750000000001,-0.3864814814814815,1.1164000000357603],[0.6483333333333334,-0.33296296296296296,1.1331000000238447],[0.6130208333333333,-0.3375925925925926,1.149800000011922],[0.6309375,-0.3014814814814815,1.1664000000357646],[0.6443749999999999,-0.2874074074074074,1.185400000035763],[0.62,-0.2757407407407407,1.199699999988077],[0.5932291666666667,-0.25925925925925924,1.2164000000357618],[0.590625,-0.2337037037037037,1.2336000000238414],[0.5879166666666668,-0.22148148148148153,1.2498000000119234],[0.5933333333333333,-0.24407407407407408,1.2665000000000006],[0.5797916666666666,-0.24203703703703702,1.2831000000238433],[0.5619791666666667,-0.26500000000000007,1.3021000000238416],[0.5511458333333332,-0.2564814814814815,1.3163000000119212],[0.49031250000000004,-0.28833333333333333,1.3331000000238404],[0.44854166666666656,-0.3168518518518519,1.3496999999880828],[0.4703125,-0.33425925925925926,1.3664000000357603],[0.4931250000000001,-0.3446296296296297,1.3831000000238447],[0.4822916666666667,-0.35962962962962963,1.399800000011922],[0.4639583333333334,-0.3742592592592593,1.4164000000357646],[0.4015625,-0.33777777777777773,1.4331000000238419],[0.3396874999999999,-0.3314814814814815,1.453000000000003],[0.3055208333333333,-0.3055555555555556,1.46669999998808],[0.25770833333333343,-0.27907407407407403,1.483100000023839],[0.21645833333333328,-0.24574074074074073,1.4996999999880813],[0.1671875,-0.20981481481481484,1.516400000035766],[0.10916666666666662,-0.17240740740740745,1.5330000000000013],[0.051250000000000046,-0.14962962962962964,1.5496999999880785],[0.051250000000000046,-0.14962962962962964,1.5664999999999978],[0.010000000000000024,-0.10833333333333334,1.5831000000238404],[0.010000000000000024,-0.10833333333333334,1.5996999999880828],[-0.029791666666666692,-0.07037037037037037,1.616500000000002],[-0.05354166666666664,-0.062037037037037036,1.6330000000000027],[-0.05354166666666664,-0.062037037037037036,1.649800000011922],[-0.06854166666666663,-0.03685185185185181,1.6664000000357646],[-0.07833333333333338,-0.02166666666666675,1.6831000000238419],[-0.10333333333333337,-0.013518518518518435,1.699800000011919],[-0.09979166666666663,0.007777777777777862,1.7199000000357643],[-0.08937499999999995,0.006481481481481481,1.7334999999999994],[-0.09666666666666662,-0.008703703703703788,1.7529000000357655],[-0.12729166666666672,0.0020370370370370794,1.766300000011924],[-0.16510416666666666,-0.010185185185185186,1.7873000000119177],[-0.16510416666666666,-0.010185185185185186,1.7998000000119205],[-0.1782291666666667,-0.007592592592592635,1.8164000000357632],[-0.18229166666666666,-0.006851851851851936,1.8329999999999984],[-0.17229166666666665,-0.0257407407407407,1.8531000000238436],[-0.1716666666666666,-0.057777777777777754,1.866500000000002],[-0.1514583333333333,-0.07962962962962963,1.8830000000000027],[-0.17718750000000003,-0.1022222222222222,1.89969999998808],[-0.20979166666666665,-0.1022222222222222,1.9164000000357646],[-0.22760416666666666,-0.09240740740740737,1.9348000000119185],[-0.22218749999999995,-0.09388888888888887,1.9519000000357636],[-0.20260416666666667,-0.09796296296296292,1.9664000000357618],[-0.2015625,-0.1,1.983100000023839],[-0.17999999999999997,-0.10833333333333334,1.9999000000357654],[-0.17250000000000001,-0.09703703703703699,2.016400000035766],[-0.16958333333333328,-0.07407407407407407,2.0330000000000013],[-0.17354166666666668,-0.060370370370370414,2.0549999999999997],[-0.1336458333333333,-0.05592592592592591,2.0691999999880792],[-0.10104166666666667,-0.039629629629629584,2.0829999999999984],[-0.09166666666666666,-0.03462962962962971,2.0996999999880828],[-0.08229166666666667,-0.02962962962962963,2.116500000000002],[-0.07989583333333337,-0.034444444444444486,2.1331999999880793],[-0.0858333333333333,-0.03481481481481473,2.1534000000357665],[-0.10687500000000003,-0.01518518518518527,2.166499999999999]]","[0.00010000002384202844,0.020199999988079753,0.03310000002384328,0.0508000000119182,0.071800000011919,0.08330000001192417,0.09969999998808277,0.11640000003576034,0.13569999998807702,0.14980000001192195,0.16660000002384123,0.18310000002384186,0.20290000003576125,0.22110000002384567,0.23310000002383902,0.25150000000000006,0.26960000002384277,0.28830000001192246,0.29980000001192053,0.3164000000357632,0.33330000001192417,0.3539000000357646,0.36990000003576284,0.38530000001192377,0.40140000003576404,0.4186000000238437,0.43610000002384197,0.4526000000238426,0.46650000000000347,0.483100000023839,0.5035000000000025,0.5186000000238451,0.5331000000238433,0.551800000011923,0.5671000000238422,0.5833000000119242,0.5998000000119177,0.616500000000002,0.6353000000119238,0.649800000011922,0.6664000000357646,0.6831999999880765,0.6998000000119191,0.7165000000000035,0.732999999999997,0.7523000000119211,0.7665000000000006,0.7831000000238433,0.7999000000357626,0.8254999999999981,0.8443000000119198,0.8515000000000015,0.8664000000357603,0.8830000000000027,0.899800000011922,0.9164000000357646,0.9331999999880765,0.9498000000119191,0.9664000000357618,0.983100000023839,0.9996999999880813,1.016400000035766,1.0335000000000036,1.0536000000238417,1.0664000000357632,1.0829999999999984,1.0998000000119177,1.1164000000357603,1.1331000000238447,1.149800000011922,1.1664000000357646,1.185400000035763,1.199699999988077,1.2164000000357618,1.2336000000238414,1.2498000000119234,1.2665000000000006,1.2831000000238433,1.3021000000238416,1.3163000000119212,1.3331000000238404,1.3496999999880828,1.3664000000357603,1.3831000000238447,1.399800000011922,1.4164000000357646,1.4331000000238419,1.453000000000003,1.46669999998808,1.483100000023839,1.4996999999880813,1.516400000035766,1.5330000000000013,1.5496999999880785,1.5664999999999978,1.5831000000238404,1.5996999999880828,1.616500000000002,1.6330000000000027,1.649800000011922,1.6664000000357646,1.6831000000238419,1.699800000011919,1.7199000000357643,1.7334999999999994,1.7529000000357655,1.766300000011924,1.7873000000119177,1.7998000000119205,1.8164000000357632,1.8329999999999984,1.8531000000238436,1.866500000000002,1.8830000000000027,1.89969999998808,1.9164000000357646,1.9348000000119185,1.9519000000357636,1.9664000000357618,1.983100000023839,1.9999000000357654,2.016400000035766,2.0330000000000013,2.0549999999999997,2.0691999999880792,2.0829999999999984,2.0996999999880828,2.116500000000002,2.1331999999880793,2.1534000000357665,2.166499999999999]","[1732874460585,1732874460603,1732874460616,1732874460634,1732874460655,1732874460666,1732874460683,1732874460699,1732874460719,1732874460733,1732874460749,1732874460766,1732874460786,1732874460804,1732874460816,1732874460834,1732874460853,1732874460871,1732874460883,1732874460899,1732874460916,1732874460937,1732874460953,1732874460968,1732874460984,1732874461001,1732874461019,1732874461036,1732874461049,1732874461066,1732874461086,1732874461101,1732874461116,1732874461135,1732874461150,1732874461166,1732874461183,1732874461199,1732874461218,1732874461233,1732874461249,1732874461266,1732874461283,1732874461299,1732874461316,1732874461335,1732874461349,1732874461366,1732874461383,1732874461408,1732874461427,1732874461434,1732874461449,1732874461466,1732874461483,1732874461499,1732874461516,1732874461533,1732874461549,1732874461566,1732874461583,1732874461599,1732874461616,1732874461636,1732874461649,1732874461666,1732874461683,1732874461699,1732874461716,1732874461733,1732874461749,1732874461768,1732874461783,1732874461799,1732874461817,1732874461833,1732874461849,1732874461866,1732874461885,1732874461899,1732874461916,1732874461933,1732874461949,1732874461966,1732874461983,1732874461999,1732874462016,1732874462036,1732874462050,1732874462066,1732874462083,1732874462099,1732874462116,1732874462133,1732874462149,1732874462166,1732874462183,1732874462199,1732874462216,1732874462233,1732874462249,1732874462266,1732874462283,1732874462303,1732874462316,1732874462336,1732874462349,1732874462370,1732874462383,1732874462399,1732874462416,1732874462436,1732874462449,1732874462466,1732874462483,1732874462499,1732874462518,1732874462535,1732874462549,1732874462566,1732874462583,1732874462599,1732874462616,1732874462638,1732874462652,1732874462666,1732874462683,1732874462699,1732874462716,1732874462736,1732874462749]","[[1124.5,527.5],[1124.5,527.5],[1156.4,513],[1178.4,492.3],[1235,460.7],[1235,460.7],[1277.5,409.1],[1324.4,362],[1327.5,348.4],[1327.5,348.4],[1336.2,338.4],[1358.2,307.6],[1342.6,290.5],[1342.6,290.5],[1356.5,274.3],[1357.2,250.5],[1363.4,231.6],[1348.8,211.7],[1348.8,211.7],[1354.4,211.3],[1361.7,214.5],[1372.9,208.1],[1372.2,216.6],[1380.4,226.9],[1387.3,245.4],[1374.6,243.4],[1373.1,243.7],[1341.8,260.5],[1348.1,258.9],[1325.6,269.2],[1300.3,285.4],[1275.3,288.4],[1266.2,293.3],[1249.4,293.9],[1249.4,293.9],[1254.4,284.2],[1254.4,284.2],[1271.6,287.4],[1261.1,299.2],[1261.1,299.2],[1280.2,290],[1284.8,305.4],[1284.8,305.4],[1307.7,308],[1329.4,300.2],[1347,303.2],[1347,303.2],[1367.9,300.2],[1388.3,304.2],[1388.3,304.2],[1407.5,304.6],[1407.5,304.6],[1418,305.7],[1443.3,294.9],[1443.3,294.9],[1485.5,289.4],[1496.8,285.2],[1497.6,269.2],[1497.6,269.2],[1539.3,268.6],[1564.1,266.3],[1560,274.8],[1561.2,284.3],[1568.5,282],[1574,290.9],[1581.2,300.2],[1558.6,322.3],[1571.4,331.3],[1582.4,360.2],[1548.5,357.7],[1565.7,377.2],[1578.6,384.8],[1555.2,391.1],[1529.5,400],[1527,413.8],[1524.4,420.4],[1529.6,408.2],[1516.6,409.3],[1499.5,396.9],[1489.1,401.5],[1430.7,384.3],[1390.6,368.9],[1411.5,359.5],[1433.4,353.9],[1423,345.8],[1405.4,337.9],[1345.5,357.6],[1286.1,361],[1253.3,375],[1207.4,389.3],[1167.8,407.3],[1120.5,426.7],[1064.8,446.9],[1009.2,459.2],[1009.2,459.2],[969.6,481.5],[969.6,481.5],[931.4,502],[908.6,506.5],[908.6,506.5],[894.2,520.1],[884.8,528.3],[860.8,532.7],[864.2,544.2],[874.2,543.5],[867.2,535.3],[837.8,541.1],[801.5,534.5],[801.5,534.5],[788.9,535.9],[785,536.3],[794.6,526.1],[795.2,508.8],[814.6,497],[789.9,484.8],[758.6,484.8],[741.5,490.1],[746.7,489.3],[765.5,487.1],[766.5,486],[787.2,481.5],[794.4,487.6],[797.2,500],[793.4,507.4],[831.7,509.8],[863,518.6],[872,521.3],[881,524],[883.3,521.4],[877.6,521.2],[857.4,531.8]]","[0,0.5333]","[0.5333,0.5333]","[-0.5333,-0.5333]","[-0.5333,0]","[0,-0.5333]","[0.5333,-0.5333]","[0,0]","[0.5333,0]",0,1,1,1,1,4,Monitor,5,1,13,7
