inst1_resp.keys,inst1_resp.rt,calibrationMouse.x,calibrationMouse.y,calibrationMouse.leftButton,calibrationMouse.midButton,calibrationMouse.rightButton,calibrationClick.x,calibrationClick.y,calibrationClick.leftButton,calibrationClick.midButton,calibrationClick.rightButton,trialsc.thisRepN,trialsc.thisTrialN,trialsc.thisN,trialsc.thisIndex,trialsc.ran,calibration_x,calibration_y,participant,session,date,expName,psychopyVersion,OS,frameRate,calibrationClick.clicked_name,ScreenRes_pixels,Camera_pixels,mouse_2.x,mouse_2.y,mouse_2.leftButton,mouse_2.midButton,mouse_2.rightButton,mouse_2.time,mouse_2.clicked_name,mouse.x,mouse.y,mouse.leftButton,mouse.midButton,mouse.rightButton,mouse.time,mouse.clicked_name,Choice,Trial,TrialDuration,MOUSE_GAZE,ET_GAZE,ET_GAZE_x_T,time,unixTime,ET_GAZE_NF,Loc_Option1_label,Loc_Option2_label,Loc_Cost_label,Loc_Qual_label,Loc_Option1_cost,Loc_Option2_cost,Loc_Option1_quality,Loc_Option2_quality,trials.thisRepN,trials.thisTrialN,trials.thisN,trials.thisIndex,trials.ran,Block,Device,cost1,qual1,cost2,qual2
space,1.9806,-0.26875,-0.083333333,1,0,0,0.071875,0.785185185,0,0,0,0,0,0,13,1,0,0.67,38,001,2024-11-29_17h56.32.941,Attention_exp_legacy,2023.1.0,Win32,59.88023952,,,,,,,,,,,,,,,,,,,,,,,,,,,,,,,,,,,,,,,,,,,,,
,,,,,,,0.002083333,0.681481481,1,0,0,0,1,1,0,1,-0.67,-0.67,38,001,2024-11-29_17h56.32.941,Attention_exp_legacy,2023.1.0,Win32,59.88023952,,,,,,,,,,,,,,,,,,,,,,,,,,,,,,,,,,,,,,,,,,,,,
,,,,,,,0.332291667,-0.333333333,1,0,0,0,2,2,15,1,0.33,-0.33,38,001,2024-11-29_17h56.32.941,Attention_exp_legacy,2023.1.0,Win32,59.88023952,calibration_square,,,,,,,,,,,,,,,,,,,,,,,,,,,,,,,,,,,,,,,,,,,,
,,,,,,,-0.333333333,-0.333333333,1,0,0,0,3,3,5,1,-0.33,-0.33,38,001,2024-11-29_17h56.32.941,Attention_exp_legacy,2023.1.0,Win32,59.88023952,calibration_square,,,,,,,,,,,,,,,,,,,,,,,,,,,,,,,,,,,,,,,,,,,,
,,,,,,,0.679166667,-0.675925926,1,0,0,0,4,4,20,1,0.67,-0.67,38,001,2024-11-29_17h56.32.941,Attention_exp_legacy,2023.1.0,Win32,59.88023952,calibration_square,,,,,,,,,,,,,,,,,,,,,,,,,,,,,,,,,,,,,,,,,,,,
,,,,,,,0.327083333,0.344444444,1,0,0,0,5,5,17,1,0.33,0.33,38,001,2024-11-29_17h56.32.941,Attention_exp_legacy,2023.1.0,Win32,59.88023952,,,,,,,,,,,,,,,,,,,,,,,,,,,,,,,,,,,,,,,,,,,,,
,,,,,,,-0.326041667,-0.661111111,1,0,0,0,6,6,4,1,-0.33,-0.67,38,001,2024-11-29_17h56.32.941,Attention_exp_legacy,2023.1.0,Win32,59.88023952,calibration_square,,,,,,,,,,,,,,,,,,,,,,,,,,,,,,,,,,,,,,,,,,,,
,,,,,,,0.33125,0.007407407,1,0,0,0,7,7,16,1,0.33,0,38,001,2024-11-29_17h56.32.941,Attention_exp_legacy,2023.1.0,Win32,59.88023952,calibration_square,,,,,,,,,,,,,,,,,,,,,,,,,,,,,,,,,,,,,,,,,,,,
,,,,,,,-0.669791667,0.32962963,1,0,0,0,8,8,3,1,-0.67,0.33,38,001,2024-11-29_17h56.32.941,Attention_exp_legacy,2023.1.0,Win32,59.88023952,calibration_square,,,,,,,,,,,,,,,,,,,,,,,,,,,,,,,,,,,,,,,,,,,,
,,,,,,,0.010416667,-0.324074074,1,0,0,0,9,9,10,1,0,-0.33,38,001,2024-11-29_17h56.32.941,Attention_exp_legacy,2023.1.0,Win32,59.88023952,,,,,,,,,,,,,,,,,,,,,,,,,,,,,,,,,,,,,,,,,,,,,
,,,,,,,0.336458333,-0.674074074,1,0,0,0,10,10,14,1,0.33,-0.67,38,001,2024-11-29_17h56.32.941,Attention_exp_legacy,2023.1.0,Win32,59.88023952,calibration_square,,,,,,,,,,,,,,,,,,,,,,,,,,,,,,,,,,,,,,,,,,,,
,,,,,,,-0.326041667,0.001851852,1,0,0,0,11,11,6,1,-0.33,0,38,001,2024-11-29_17h56.32.941,Attention_exp_legacy,2023.1.0,Win32,59.88023952,calibration_square,,,,,,,,,,,,,,,,,,,,,,,,,,,,,,,,,,,,,,,,,,,,
,,,,,,,-0.33125,0.681481481,1,0,0,0,12,12,8,1,-0.33,0.67,38,001,2024-11-29_17h56.32.941,Attention_exp_legacy,2023.1.0,Win32,59.88023952,,,,,,,,,,,,,,,,,,,,,,,,,,,,,,,,,,,,,,,,,,,,,
,,,,,,,0.333333333,0.672222222,1,0,0,0,13,13,18,1,0.33,0.67,38,001,2024-11-29_17h56.32.941,Attention_exp_legacy,2023.1.0,Win32,59.88023952,calibration_square,,,,,,,,,,,,,,,,,,,,,,,,,,,,,,,,,,,,,,,,,,,,
,,,,,,,-0.002083333,-0.675925926,1,0,0,0,14,14,9,1,0,-0.67,38,001,2024-11-29_17h56.32.941,Attention_exp_legacy,2023.1.0,Win32,59.88023952,calibration_square,,,,,,,,,,,,,,,,,,,,,,,,,,,,,,,,,,,,,,,,,,,,
,,,,,,,-0.328125,0.338888889,1,0,0,0,15,15,7,1,-0.33,0.33,38,001,2024-11-29_17h56.32.941,Attention_exp_legacy,2023.1.0,Win32,59.88023952,calibration_square,,,,,,,,,,,,,,,,,,,,,,,,,,,,,,,,,,,,,,,,,,,,
,,,,,,,-0.679166667,-0.32037037,1,0,0,0,16,16,1,1,-0.67,-0.33,38,001,2024-11-29_17h56.32.941,Attention_exp_legacy,2023.1.0,Win32,59.88023952,calibration_square,,,,,,,,,,,,,,,,,,,,,,,,,,,,,,,,,,,,,,,,,,,,
,,,,,,,0.676041667,0.690740741,1,0,0,0,17,17,19,1,0.67,0.67,38,001,2024-11-29_17h56.32.941,Attention_exp_legacy,2023.1.0,Win32,59.88023952,,,,,,,,,,,,,,,,,,,,,,,,,,,,,,,,,,,,,,,,,,,,,
,,,,,,,-0.003125,-0.005555556,1,0,0,0,18,18,11,1,0,0,38,001,2024-11-29_17h56.32.941,Attention_exp_legacy,2023.1.0,Win32,59.88023952,calibration_square,,,,,,,,,,,,,,,,,,,,,,,,,,,,,,,,,,,,,,,,,,,,
,,,,,,,-0.670833333,0,1,0,0,0,19,19,2,1,-0.67,0,38,001,2024-11-29_17h56.32.941,Attention_exp_legacy,2023.1.0,Win32,59.88023952,calibration_square,,,,,,,,,,,,,,,,,,,,,,,,,,,,,,,,,,,,,,,,,,,,
,,,,,,,0.002083333,0.344444444,1,0,0,0,20,20,12,1,0,0.33,38,001,2024-11-29_17h56.32.941,Attention_exp_legacy,2023.1.0,Win32,59.88023952,,,,,,,,,,,,,,,,,,,,,,,,,,,,,,,,,,,,,,,,,,,,,
,,,,,,,,,,,,,,,,,,,38,001,2024-11-29_17h56.32.941,Attention_exp_legacy,2023.1.0,Win32,59.88023952,,"[1920,1080]","[640,480]",[0.0020833333333333333],[-0.5222222222222223],[1],[0],[0],[1.0828000000119218],"[""StartButton""]",[0.3489583333333333],[0.37222222222222223],[1],[0],[0],[2.2036000000238403],"[""Option2_label""]",Option2_label,1,3.2235,"[[0.026041666666666668,-0.29074074074074074],[0.026041666666666668,-0.29074074074074074],[0.026041666666666668,-0.29074074074074074],[0.026041666666666668,-0.29074074074074074],[0.026041666666666668,-0.29074074074074074],[0.026041666666666668,-0.29074074074074074],[0.026041666666666668,-0.29074074074074074],[0.026041666666666668,-0.29074074074074074],[0.026041666666666668,-0.29074074074074074],[0.026041666666666668,-0.29074074074074074],[0.026041666666666668,-0.29074074074074074],[0.026041666666666668,-0.29074074074074074],[0.026041666666666668,-0.29074074074074074],[0.026041666666666668,-0.29074074074074074],[0.026041666666666668,-0.29074074074074074],[0.026041666666666668,-0.29074074074074074],[0.026041666666666668,-0.29074074074074074],[0.026041666666666668,-0.29074074074074074],[0.026041666666666668,-0.29074074074074074],[0.026041666666666668,-0.29074074074074074],[0.026041666666666668,-0.29074074074074074],[0.026041666666666668,-0.29074074074074074],[0.026041666666666668,-0.29074074074074074],[0.026041666666666668,-0.29074074074074074],[0.026041666666666668,-0.29074074074074074],[0.026041666666666668,-0.29074074074074074],[0.026041666666666668,-0.29074074074074074],[0.026041666666666668,-0.29074074074074074],[0.026041666666666668,-0.29074074074074074],[0.026041666666666668,-0.29074074074074074],[0.026041666666666668,-0.29074074074074074],[0.026041666666666668,-0.29074074074074074],[0.026041666666666668,-0.29074074074074074],[0.026041666666666668,-0.29074074074074074],[0.026041666666666668,-0.29074074074074074],[0.026041666666666668,-0.29074074074074074],[0.026041666666666668,-0.29074074074074074],[0.026041666666666668,-0.29074074074074074],[0.026041666666666668,-0.29074074074074074],[0.026041666666666668,-0.29074074074074074],[0.026041666666666668,-0.29074074074074074],[0.026041666666666668,-0.29074074074074074],[0.026041666666666668,-0.29074074074074074],[0.026041666666666668,-0.29074074074074074],[0.026041666666666668,-0.29074074074074074],[0.026041666666666668,-0.29074074074074074],[0.026041666666666668,-0.29074074074074074],[0.026041666666666668,-0.29074074074074074],[0.026041666666666668,-0.29074074074074074],[0.026041666666666668,-0.29074074074074074],[0.026041666666666668,-0.29074074074074074],[0.026041666666666668,-0.29074074074074074],[0.026041666666666668,-0.29074074074074074],[0.026041666666666668,-0.29074074074074074],[0.026041666666666668,-0.29074074074074074],[0.026041666666666668,-0.29074074074074074],[0.026041666666666668,-0.29074074074074074],[0.026041666666666668,-0.29074074074074074],[0.026041666666666668,-0.29074074074074074],[0.026041666666666668,-0.29074074074074074],[0.026041666666666668,-0.29074074074074074],[0.026041666666666668,-0.29074074074074074],[0.026041666666666668,-0.29074074074074074],[0.026041666666666668,-0.29074074074074074],[0.026041666666666668,-0.29074074074074074],[0.026041666666666668,-0.29074074074074074],[0.027083333333333334,-0.28888888888888886],[0.034375,-0.26666666666666666],[0.040625,-0.25555555555555554],[0.057291666666666664,-0.22592592592592592],[0.07083333333333333,-0.20925925925925926],[0.0875,-0.19814814814814816],[0.09375,-0.1962962962962963],[0.11770833333333333,-0.1814814814814815],[0.13541666666666666,-0.17222222222222222],[0.17083333333333334,-0.1537037037037037],[0.18229166666666666,-0.15185185185185185],[0.221875,-0.13703703703703704],[0.24583333333333332,-0.12962962962962962],[0.26666666666666666,-0.11851851851851852],[0.29270833333333335,-0.10740740740740741],[0.3177083333333333,-0.09074074074074075],[0.34270833333333334,-0.06666666666666667],[0.365625,-0.037037037037037035],[0.371875,-0.027777777777777776],[0.37604166666666666,-0.022222222222222223],[0.378125,-0.018518518518518517],[0.378125,-0.016666666666666666],[0.378125,-0.003703703703703704],[0.378125,0.024074074074074074],[0.3697916666666667,0.04814814814814815],[0.3572916666666667,0.06851851851851852],[0.34479166666666666,0.08148148148148149],[0.3302083333333333,0.1],[0.321875,0.11666666666666667],[0.3125,0.14814814814814814],[0.30833333333333335,0.1814814814814815],[0.303125,0.2222222222222222],[0.3020833333333333,0.24814814814814815],[0.3020833333333333,0.25555555555555554],[0.3020833333333333,0.2777777777777778],[0.3020833333333333,0.29259259259259257],[0.303125,0.3055555555555556],[0.30416666666666664,0.31296296296296294],[0.3072916666666667,0.32037037037037036],[0.30833333333333335,0.32592592592592595],[0.3104166666666667,0.3296296296296296],[0.31145833333333334,0.3333333333333333],[0.3145833333333333,0.3388888888888889],[0.3177083333333333,0.34444444444444444],[0.31979166666666664,0.34814814814814815],[0.32395833333333335,0.35185185185185186],[0.3302083333333333,0.3574074074074074],[0.33229166666666665,0.3611111111111111],[0.33541666666666664,0.3611111111111111],[0.3385416666666667,0.362962962962963],[0.33958333333333335,0.3648148148148148],[0.34270833333333334,0.36666666666666664],[0.3458333333333333,0.3685185185185185],[0.346875,0.37037037037037035],[0.3489583333333333,0.37222222222222223],[0.3489583333333333,0.37222222222222223],[0.3489583333333333,0.37222222222222223],[0.3489583333333333,0.37222222222222223],[0.3489583333333333,0.37222222222222223],[0.3489583333333333,0.37222222222222223],[0.3489583333333333,0.37222222222222223],[0.3489583333333333,0.37222222222222223],[0.3489583333333333,0.37222222222222223],[0.3489583333333333,0.37222222222222223],[0.3489583333333333,0.37222222222222223],[0.3489583333333333,0.37222222222222223],[0.3489583333333333,0.37222222222222223],[0.3489583333333333,0.37222222222222223],[0.3489583333333333,0.37222222222222223],[0.3489583333333333,0.37222222222222223],[0.3489583333333333,0.37222222222222223],[0.3489583333333333,0.37222222222222223],[0.3489583333333333,0.37222222222222223],[0.3489583333333333,0.37222222222222223],[0.3489583333333333,0.37222222222222223],[0.3489583333333333,0.37222222222222223],[0.3489583333333333,0.37222222222222223],[0.3489583333333333,0.37222222222222223],[0.3489583333333333,0.37222222222222223],[0.3489583333333333,0.37222222222222223],[0.3489583333333333,0.37222222222222223],[0.3489583333333333,0.37222222222222223],[0.3489583333333333,0.37222222222222223],[0.3489583333333333,0.37222222222222223],[0.3489583333333333,0.37222222222222223],[0.3489583333333333,0.37222222222222223],[0.3489583333333333,0.37222222222222223],[0.3489583333333333,0.37222222222222223],[0.3489583333333333,0.37222222222222223],[0.3489583333333333,0.37222222222222223],[0.3489583333333333,0.37222222222222223],[0.3489583333333333,0.37222222222222223],[0.3489583333333333,0.37222222222222223],[0.3489583333333333,0.37222222222222223],[0.3489583333333333,0.37222222222222223],[0.3489583333333333,0.37222222222222223],[0.3489583333333333,0.37222222222222223],[0.3489583333333333,0.37222222222222223],[0.3489583333333333,0.37222222222222223],[0.3489583333333333,0.37222222222222223],[0.3489583333333333,0.37222222222222223],[0.3489583333333333,0.37222222222222223],[0.3489583333333333,0.37222222222222223],[0.3489583333333333,0.37222222222222223],[0.3489583333333333,0.37222222222222223],[0.3489583333333333,0.37222222222222223],[0.3489583333333333,0.37222222222222223],[0.3489583333333333,0.37222222222222223],[0.3489583333333333,0.37222222222222223],[0.3489583333333333,0.37222222222222223],[0.3489583333333333,0.37222222222222223],[0.3489583333333333,0.37222222222222223],[0.3489583333333333,0.37222222222222223],[0.3489583333333333,0.37222222222222223],[0.3489583333333333,0.37222222222222223],[0.3489583333333333,0.37222222222222223],[0.3489583333333333,0.37222222222222223],[0.3489583333333333,0.37222222222222223],[0.3489583333333333,0.37222222222222223],[0.3489583333333333,0.37222222222222223],[0.3489583333333333,0.37222222222222223],[0.3489583333333333,0.37222222222222223],[0.3489583333333333,0.37222222222222223],[0.3489583333333333,0.37222222222222223],[0.3489583333333333,0.37222222222222223],[0.3489583333333333,0.37222222222222223],[0.3489583333333333,0.37222222222222223]]","[[-0.21947916666666673,0.5170370370370371],[-0.21947916666666673,0.5170370370370371],[-0.20625,0.5157407407407407],[-0.20625,0.5157407407407407],[-0.22406250000000003,0.5014814814814814],[-0.22406250000000003,0.5014814814814814],[-0.2543750000000001,0.5331481481481481],[-0.2543750000000001,0.5331481481481481],[-0.25364583333333335,0.5335185185185186],[-0.25364583333333335,0.5335185185185186],[-0.2543750000000001,0.5527777777777778],[-0.2543750000000001,0.5527777777777778],[-0.2607291666666666,0.5859259259259259],[-0.2607291666666666,0.5859259259259259],[-0.25239583333333326,0.5977777777777777],[-0.25239583333333326,0.5977777777777777],[-0.2877083333333334,0.6248148148148148],[-0.2877083333333334,0.6248148148148148],[-0.29354166666666665,0.6151851851851853],[-0.29354166666666665,0.6151851851851853],[-0.28125,0.61],[-0.28125,0.61],[-0.2617708333333333,0.6031481481481482],[-0.2617708333333333,0.6031481481481482],[-0.2390625,0.581851851851852],[-0.2390625,0.581851851851852],[-0.21104166666666668,0.5238888888888888],[-0.21104166666666668,0.5238888888888888],[-0.21614583333333334,0.4812962962962963],[-0.21614583333333334,0.4812962962962963],[-0.2139583333333333,0.42555555555555546],[-0.2139583333333333,0.42555555555555546],[-0.2055208333333333,0.3696296296296297],[-0.2055208333333333,0.3696296296296297],[-0.2033333333333334,0.3175925925925926],[-0.2033333333333334,0.3175925925925926],[-0.19083333333333338,0.2601851851851852],[-0.19083333333333338,0.2601851851851852],[-0.15520833333333334,0.2412962962962962],[-0.15520833333333334,0.2412962962962962],[-0.13479166666666664,0.2051851851851851],[-0.13479166666666664,0.2051851851851851],[-0.15010416666666668,0.20870370370370378],[-0.15010416666666668,0.20870370370370378],[-0.14489583333333336,0.21277777777777773],[-0.14489583333333336,0.21277777777777773],[-0.15427083333333336,0.25629629629629624],[-0.15427083333333336,0.25629629629629624],[-0.15697916666666673,0.32518518518518524],[-0.15697916666666673,0.32518518518518524],[-0.10510416666666664,0.33611111111111114],[-0.10510416666666664,0.33611111111111114],[-0.05802083333333338,0.3398148148148148],[-0.05802083333333338,0.3398148148148148],[-0.021562500000000047,0.3537037037037037],[-0.021562500000000047,0.3537037037037037],[0.027187500000000024,0.3670370370370371],[0.027187500000000024,0.3670370370370371],[0.027187500000000024,0.3670370370370371],[0.05166666666666669,0.36796296296296305],[0.05166666666666669,0.36796296296296305],[0.09083333333333338,0.3792592592592592],[0.09083333333333338,0.3792592592592592],[0.17302083333333323,0.3531481481481482],[0.17302083333333323,0.3531481481481482],[0.2397916666666667,0.31574074074074077],[0.2397916666666667,0.31574074074074077],[0.2445833333333333,0.3138888888888889],[0.2445833333333333,0.3138888888888889],[0.24447916666666672,0.2887037037037037],[0.24447916666666672,0.2887037037037037],[0.21395833333333342,0.3007407407407407],[0.21395833333333342,0.3007407407407407],[0.19375,0.32444444444444454],[0.19375,0.32444444444444454],[0.17468750000000005,0.31203703703703706],[0.17468750000000005,0.31203703703703706],[0.1384375000000001,0.30648148148148147],[0.1384375000000001,0.30648148148148147],[0.14031250000000003,0.31740740740740736],[0.12729166666666672,0.2874074074074075],[0.12729166666666672,0.2874074074074075],[0.10927083333333343,0.2890740740740741],[0.09239583333333339,0.3087037037037038],[0.09239583333333339,0.3087037037037038],[0.1273958333333333,0.25925925925925924],[0.1273958333333333,0.25925925925925924],[0.21218750000000006,0.2116666666666666],[0.21218750000000006,0.2116666666666666],[0.26281249999999995,0.16777777777777783],[0.26281249999999995,0.16777777777777783],[0.2904166666666666,0.10833333333333334],[0.2904166666666666,0.10833333333333334],[0.3349999999999999,0.08000000000000008],[0.3349999999999999,0.08000000000000008],[0.39114583333333336,0.05722222222222218],[0.41729166666666656,0.02833333333333325],[0.44166666666666665,0.022777777777777692],[0.44166666666666665,0.022777777777777692],[0.42843749999999997,0.003703703703703704],[0.4332291666666668,-0.019999999999999917],[0.4340625000000001,-0.024629629629629547],[0.4340625000000001,-0.024629629629629547],[0.38395833333333323,-0.0035185185185184764],[0.3466666666666666,0.017592592592592594],[0.3466666666666666,0.017592592592592594],[0.33927083333333335,0.04351851851851852],[0.3289583333333333,0.072037037037037],[0.3289583333333333,0.072037037037037],[0.2984375,0.058703703703703786],[0.2984375,0.058703703703703786],[0.2694791666666667,0.05462962962962963],[0.23552083333333323,0.08203703703703695],[0.23552083333333323,0.08203703703703695],[0.24354166666666663,0.0933333333333333],[0.2335416666666667,0.10925925925925926],[0.2335416666666667,0.10925925925925926],[0.2490624999999999,0.09648148148148153],[0.2490624999999999,0.09648148148148153],[0.2573958333333332,0.06277777777777774],[0.2526041666666667,0.04351851851851852],[0.20968749999999994,0.020740740740740823],[0.20968749999999994,0.020740740740740823],[0.1544791666666666,0.005370370370370328],[0.12541666666666676,0.026111111111111154],[0.08510416666666672,-0.015555555555555513],[0.057187499999999974,-0.08351851851851856],[0.057187499999999974,-0.08351851851851856],[0.013229166666666714,-0.11092592592592589],[0.013229166666666714,-0.11092592592592589],[-0.02166666666666662,-0.1403703703703704],[-0.02166666666666662,-0.1403703703703704],[-0.05395833333333329,-0.1418518518518519],[-0.084375,-0.15129629629629626],[-0.11000000000000003,-0.14370370370370375],[-0.11000000000000003,-0.14370370370370375],[-0.12000000000000005,-0.09944444444444442],[-0.11770833333333333,-0.06259259259259262],[-0.1390625,-0.04888888888888885],[-0.1390625,-0.04888888888888885],[-0.10895833333333335,-0.03611111111111111],[-0.07833333333333338,-0.020740740740740823],[-0.05406249999999998,-0.028888888888888933],[-0.05406249999999998,-0.028888888888888933],[-0.05343749999999995,-0.01629629629629621],[-0.05479166666666669,0.013333333333333417],[-0.06270833333333338,0.06388888888888888],[-0.06270833333333338,0.06388888888888888],[-0.02687499999999995,0.06500000000000004],[0.0021875000000000236,0.10685185185185193],[0.0021875000000000236,0.10685185185185193],[0.029062499999999977,0.1361111111111111],[0.05458333333333331,0.15648148148148147],[0.05458333333333331,0.15648148148148147],[0.03312499999999995,0.20888888888888882],[0.03312499999999995,0.20888888888888882],[0.015625,0.23796296296296296],[-0.0375,0.29907407407407405],[-0.06468750000000002,0.3442592592592592],[-0.09781249999999998,0.381111111111111],[-0.09781249999999998,0.381111111111111],[-0.11375000000000005,0.40259259259259256],[-0.15177083333333338,0.45129629629629636],[-0.15177083333333338,0.45129629629629636],[-0.16291666666666665,0.42407407407407405],[-0.16968749999999996,0.4170370370370371],[-0.18187500000000004,0.4361111111111111],[-0.18187500000000004,0.4361111111111111],[-0.16177083333333328,0.4316666666666667],[-0.16177083333333328,0.4316666666666667],[-0.17218749999999997,0.4601851851851852],[-0.16614583333333333,0.4422222222222221],[-0.16614583333333333,0.4422222222222221],[-0.1580208333333334,0.42907407407407416],[-0.1580208333333334,0.42907407407407416],[-0.1248958333333333,0.45740740740740743],[-0.09291666666666672,0.477962962962963],[-0.10343749999999995,0.48296296296296287],[-0.10343749999999995,0.48296296296296287],[-0.10822916666666664,0.49740740740740746],[-0.10822916666666664,0.49740740740740746],[-0.11697916666666662,0.4896296296296296],[-0.10541666666666671,0.48574074074074064],[-0.10541666666666671,0.48574074074074064],[-0.12593749999999998,0.5187037037037038],[-0.12593749999999998,0.5187037037037038],[-0.12041666666666669,0.5394444444444444],[-0.10208333333333333,0.5637037037037037],[-0.10208333333333333,0.5637037037037037],[-0.0860416666666667,0.5746296296296295],[-0.1123958333333333,0.5520370370370371],[-0.1123958333333333,0.5520370370370371],[-0.11968749999999997,0.5209259259259258]]","[[-0.21947916666666673,0.5170370370370371,0.00010000002384202844],[-0.21947916666666673,0.5170370370370371,0.03839999997616417],[-0.20625,0.5157407407407407,0.058899999976162576],[-0.20625,0.5157407407407407,0.06750000000000256],[-0.22406250000000003,0.5014814814814814,0.09210000002384788],[-0.22406250000000003,0.5014814814814814,0.09960000002384817],[-0.2543750000000001,0.5331481481481481,0.12569999998807901],[-0.2543750000000001,0.5331481481481481,0.13280000001192604],[-0.25364583333333335,0.5335185185185186,0.158899999976164],[-0.25364583333333335,0.5335185185185186,0.1665000000000063],[-0.2543750000000001,0.5527777777777778,0.19080000001192587],[-0.2543750000000001,0.5527777777777778,0.19780000001192377],[-0.2607291666666666,0.5859259259259259,0.22450000000000614],[-0.2607291666666666,0.5859259259259259,0.2330000000000041],[-0.25239583333333326,0.5977777777777777,0.25739999997615826],[-0.25239583333333326,0.5977777777777777,0.2646999999880819],[-0.2877083333333334,0.6248148148148148,0.292500000000004],[-0.2877083333333334,0.6248148148148148,0.30119999998807856],[-0.29354166666666665,0.6151851851851853,0.32550000000000523],[-0.29354166666666665,0.6151851851851853,0.33330000001192417],[-0.28125,0.61,0.3591999999880855],[-0.28125,0.61,0.3696000000238442],[-0.2617708333333333,0.6031481481481482,0.3925000000000054],[-0.2617708333333333,0.6031481481481482,0.39980000001192195],[-0.2390625,0.581851851851852,0.42619999998807856],[-0.2390625,0.581851851851852,0.43650000000000233],[-0.21104166666666668,0.5238888888888888,0.45880000001192656],[-0.21104166666666668,0.5238888888888888,0.46639999997616144],[-0.21614583333333334,0.4812962962962963,0.49380000001192315],[-0.21614583333333334,0.4812962962962963,0.5018999999761604],[-0.2139583333333333,0.42555555555555546,0.5253000000119243],[-0.2139583333333333,0.42555555555555546,0.5321999999880802],[-0.2055208333333333,0.3696296296296297,0.5576999999880812],[-0.2055208333333333,0.3696296296296297,0.5676999999880792],[-0.2033333333333334,0.3175925925925926,0.5921999999880825],[-0.2033333333333334,0.3175925925925926,0.5988000000119271],[-0.19083333333333338,0.2601851851851852,0.624199999988079],[-0.19083333333333338,0.2601851851851852,0.6336000000238471],[-0.15520833333333334,0.2412962962962962,0.658899999976164],[-0.15520833333333334,0.2412962962962962,0.6663999999761643],[-0.13479166666666664,0.2051851851851851,0.6923000000119259],[-0.13479166666666664,0.2051851851851851,0.7071000000238428],[-0.15010416666666668,0.20870370370370378,0.7253999999761618],[-0.15010416666666668,0.20870370370370378,0.7335000000000065],[-0.14489583333333336,0.21277777777777773,0.7590000000000003],[-0.14489583333333336,0.21277777777777773,0.7678999999761587],[-0.15427083333333336,0.25629629629629624,0.792600000023846],[-0.15427083333333336,0.25629629629629624,0.8003000000119229],[-0.15697916666666673,0.32518518518518524,0.8253000000119215],[-0.15697916666666673,0.32518518518518524,0.8325000000000031],[-0.10510416666666664,0.33611111111111114,0.8586999999880831],[-0.10510416666666664,0.33611111111111114,0.8666999999880787],[-0.05802083333333338,0.3398148148148148,0.8921999999880796],[-0.05802083333333338,0.3398148148148148,0.901300000011922],[-0.021562500000000047,0.3537037037037037,0.9254999999999995],[-0.021562500000000047,0.3537037037037037,0.9323999999761625],[0.027187500000000024,0.3670370370370371,0.9586000000238428],[0.027187500000000024,0.3670370370370371,0.9671000000238479],[0.027187500000000024,0.3670370370370371,0.9740000000000038],[0.05166666666666669,0.36796296296296305,1.008600000023847],[0.05166666666666669,0.36796296296296305,1.0158000000119216],[0.09083333333333338,0.3792592592592592,1.041100000023846],[0.09083333333333338,0.3792592592592592,1.049600000023844],[0.17302083333333323,0.3531481481481482,1.0756999999880819],[0.17302083333333323,0.3531481481481482,1.0850000000000009],[0.2397916666666667,0.31574074074074077,1.1081000000238461],[0.2397916666666667,0.31574074074074077,1.125100000023842],[0.2445833333333333,0.3138888888888889,1.142800000011924],[0.2445833333333333,0.3138888888888889,1.1501000000238477],[0.24447916666666672,0.2887037037037037,1.1803000000119255],[0.24447916666666672,0.2887037037037037,1.1885000000000048],[0.21395833333333342,0.3007407407407407,1.2093000000119218],[0.21395833333333342,0.3007407407407407,1.21669999998808],[0.19375,0.32444444444444454,1.2443000000119255],[0.19375,0.32444444444444454,1.2520000000000024],[0.17468750000000005,0.31203703703703706,1.2781000000238478],[0.17468750000000005,0.31203703703703706,1.2863000000119271],[0.1384375000000001,0.30648148148148147,1.316600000023847],[0.1384375000000001,0.30648148148148147,1.3243999999761584],[0.14031250000000003,0.31740740740740736,1.340300000011922],[0.12729166666666672,0.2874074074074075,1.3621999999880785],[0.12729166666666672,0.2874074074074075,1.3811000000238423],[0.10927083333333343,0.2890740740740741,1.390399999976161],[0.09239583333333339,0.3087037037037038,1.4136999999880828],[0.09239583333333339,0.3087037037037038,1.4278999999761623],[0.1273958333333333,0.25925925925925924,1.4405000000000001],[0.1273958333333333,0.25925925925925924,1.4568999999761587],[0.21218750000000006,0.2116666666666666,1.479199999988083],[0.21218750000000006,0.2116666666666666,1.4906000000238464],[0.26281249999999995,0.16777777777777783,1.507000000000005],[0.26281249999999995,0.16777777777777783,1.5236000000238477],[0.2904166666666666,0.10833333333333334,1.544699999988083],[0.2904166666666666,0.10833333333333334,1.5568999999761601],[0.3349999999999999,0.08000000000000008,1.5736999999880794],[0.3349999999999999,0.08000000000000008,1.5948000000119222],[0.39114583333333336,0.05722222222222218,1.6068999999761644],[0.41729166666666656,0.02833333333333325,1.6241000000238444],[0.44166666666666665,0.022777777777777692,1.6513999999761637],[0.44166666666666665,0.022777777777777692,1.6596000000238433],[0.42843749999999997,0.003703703703703704,1.6736999999880808],[0.4332291666666668,-0.019999999999999917,1.694500000000005],[0.4340625000000001,-0.024629629629629547,1.7168000000119221],[0.4340625000000001,-0.024629629629629547,1.7276000000238483],[0.38395833333333323,-0.0035185185185184764,1.7403999999761623],[0.3466666666666666,0.017592592592592594,1.7613000000119214],[0.3466666666666666,0.017592592592592594,1.7808999999761639],[0.33927083333333335,0.04351851851851852,1.7915000000000063],[0.3289583333333333,0.072037037037037,1.8088000000119209],[0.3289583333333333,0.072037037037037,1.8235000000000028],[0.2984375,0.058703703703703786,1.8456000000238433],[0.2984375,0.058703703703703786,1.8570000000000064],[0.2694791666666667,0.05462962962962963,1.8736999999880837],[0.23552083333333323,0.08203703703703695,1.8973999999761588],[0.23552083333333323,0.08203703703703695,1.9070000000000036],[0.24354166666666663,0.0933333333333333,1.9236999999880808],[0.2335416666666667,0.10925925925925926,1.9488000000119214],[0.2335416666666667,0.10925925925925926,1.9571000000238428],[0.2490624999999999,0.09648148148148153,1.973699999988085],[0.2490624999999999,0.09648148148148153,1.9903999999761623],[0.2573958333333332,0.06277777777777774,2.0120000000000005],[0.2526041666666667,0.04351851851851852,2.028100000023848],[0.20968749999999994,0.020740740740740823,2.0446000000238413],[0.20968749999999994,0.020740740740740823,2.0568000000119255],[0.1544791666666666,0.005370370370370328,2.073500000000003],[0.12541666666666676,0.026111111111111154,2.0916000000238455],[0.08510416666666672,-0.015555555555555513,2.108800000011925],[0.057187499999999974,-0.08351851851851856,2.128899999976163],[0.057187499999999974,-0.08351851851851856,2.1401999999880843],[0.013229166666666714,-0.11092592592592589,2.156800000011927],[0.013229166666666714,-0.11092592592592589,2.1736000000238462],[-0.02166666666666662,-0.1403703703703704,2.190100000023847],[-0.02166666666666662,-0.1403703703703704,2.206800000011924],[-0.05395833333333329,-0.1418518518518519,2.2233999999761593],[-0.084375,-0.15129629629629626,2.2456999999880836],[-0.11000000000000003,-0.14370370370370375,2.264000000000003],[-0.11000000000000003,-0.14370370370370375,2.2733999999761636],[-0.12000000000000005,-0.09944444444444442,2.2901000000238483],[-0.11770833333333333,-0.06259259259259262,2.3068000000119255],[-0.1390625,-0.04888888888888885,2.329500000000003],[-0.1390625,-0.04888888888888885,2.343500000000006],[-0.10895833333333335,-0.03611111111111111,2.3568999999761644],[-0.07833333333333338,-0.020740740740740823,2.375699999988079],[-0.05406249999999998,-0.028888888888888933,2.3955000000000055],[-0.05406249999999998,-0.028888888888888933,2.406800000011927],[-0.05343749999999995,-0.01629629629629621,2.423500000000004],[-0.05479166666666669,0.013333333333333417,2.440100000023847],[-0.06270833333333338,0.06388888888888888,2.461600000023843],[-0.06270833333333338,0.06388888888888888,2.4735000000000014],[-0.02687499999999995,0.06500000000000004,2.490100000023844],[0.0021875000000000236,0.10685185185185193,2.511399999976163],[0.0021875000000000236,0.10685185185185193,2.5233999999761636],[0.029062499999999977,0.1361111111111111,2.5401000000238483],[0.05458333333333331,0.15648148148148147,2.5613000000119257],[0.05458333333333331,0.15648148148148147,2.5733999999761608],[0.03312499999999995,0.20888888888888882,2.59019999998808],[0.03312499999999995,0.20888888888888882,2.6068000000119227],[0.015625,0.23796296296296296,2.623399999976158],[-0.0375,0.29907407407407405,2.6416000000238427],[-0.06468750000000002,0.3442592592592592,2.658199999988085],[-0.09781249999999998,0.381111111111111,2.679699999988081],[-0.09781249999999998,0.381111111111111,2.690100000023847],[-0.11375000000000005,0.40259259259259256,2.706800000011924],[-0.15177083333333338,0.45129629629629636,2.7248999999761594],[-0.15177083333333338,0.45129629629629636,2.740100000023844],[-0.16291666666666665,0.42407407407407405,2.757000000000005],[-0.16968749999999996,0.4170370370370371,2.778000000000006],[-0.18187500000000004,0.4361111111111111,2.7950000000000017],[-0.18187500000000004,0.4361111111111111,2.807100000023844],[-0.16177083333333328,0.4316666666666667,2.8233999999761608],[-0.16177083333333328,0.4316666666666667,2.8401000000238454],[-0.17218749999999997,0.4601851851851852,2.8568000000119227],[-0.16614583333333333,0.4422222222222221,2.877500000000005],[-0.16614583333333333,0.4422222222222221,2.8901000000238426],[-0.1580208333333334,0.42907407407407416,2.9068999999761616],[-0.1580208333333334,0.42907407407407416,2.923399999976162],[-0.1248958333333333,0.45740740740740743,2.940399999976158],[-0.09291666666666672,0.477962962962963,2.9601999999880846],[-0.10343749999999995,0.48296296296296287,2.980000000000004],[-0.10343749999999995,0.48296296296296287,2.990100000023844],[-0.10822916666666664,0.49740740740740746,3.006899999976163],[-0.10822916666666664,0.49740740740740746,3.0235000000000056],[-0.11697916666666662,0.4896296296296296,3.0401000000238483],[-0.10541666666666671,0.48574074074074064,3.0626999999880837],[-0.10541666666666671,0.48574074074074064,3.073899999976163],[-0.12593749999999998,0.5187037037037038,3.090600000023848],[-0.12593749999999998,0.5187037037037038,3.1068999999761644],[-0.12041666666666669,0.5394444444444444,3.1235],[-0.10208333333333333,0.5637037037037037,3.1433000000119264],[-0.10208333333333333,0.5637037037037037,3.156800000011927],[-0.0860416666666667,0.5746296296296295,3.173500000000004],[-0.1123958333333333,0.5520370370370371,3.193399999976158],[-0.1123958333333333,0.5520370370370371,3.206800000011924],[-0.11968749999999997,0.5209259259259258,3.2235000000000014]]","[0.00010000002384202844,0.03839999997616417,0.058899999976162576,0.06750000000000256,0.09210000002384788,0.09960000002384817,0.12569999998807901,0.13280000001192604,0.158899999976164,0.1665000000000063,0.19080000001192587,0.19780000001192377,0.22450000000000614,0.2330000000000041,0.25739999997615826,0.2646999999880819,0.292500000000004,0.30119999998807856,0.32550000000000523,0.33330000001192417,0.3591999999880855,0.3696000000238442,0.3925000000000054,0.39980000001192195,0.42619999998807856,0.43650000000000233,0.45880000001192656,0.46639999997616144,0.49380000001192315,0.5018999999761604,0.5253000000119243,0.5321999999880802,0.5576999999880812,0.5676999999880792,0.5921999999880825,0.5988000000119271,0.624199999988079,0.6336000000238471,0.658899999976164,0.6663999999761643,0.6923000000119259,0.7071000000238428,0.7253999999761618,0.7335000000000065,0.7590000000000003,0.7678999999761587,0.792600000023846,0.8003000000119229,0.8253000000119215,0.8325000000000031,0.8586999999880831,0.8666999999880787,0.8921999999880796,0.901300000011922,0.9254999999999995,0.9323999999761625,0.9586000000238428,0.9671000000238479,0.9740000000000038,1.008600000023847,1.0158000000119216,1.041100000023846,1.049600000023844,1.0756999999880819,1.0850000000000009,1.1081000000238461,1.125100000023842,1.142800000011924,1.1501000000238477,1.1803000000119255,1.1885000000000048,1.2093000000119218,1.21669999998808,1.2443000000119255,1.2520000000000024,1.2781000000238478,1.2863000000119271,1.316600000023847,1.3243999999761584,1.340300000011922,1.3621999999880785,1.3811000000238423,1.390399999976161,1.4136999999880828,1.4278999999761623,1.4405000000000001,1.4568999999761587,1.479199999988083,1.4906000000238464,1.507000000000005,1.5236000000238477,1.544699999988083,1.5568999999761601,1.5736999999880794,1.5948000000119222,1.6068999999761644,1.6241000000238444,1.6513999999761637,1.6596000000238433,1.6736999999880808,1.694500000000005,1.7168000000119221,1.7276000000238483,1.7403999999761623,1.7613000000119214,1.7808999999761639,1.7915000000000063,1.8088000000119209,1.8235000000000028,1.8456000000238433,1.8570000000000064,1.8736999999880837,1.8973999999761588,1.9070000000000036,1.9236999999880808,1.9488000000119214,1.9571000000238428,1.973699999988085,1.9903999999761623,2.0120000000000005,2.028100000023848,2.0446000000238413,2.0568000000119255,2.073500000000003,2.0916000000238455,2.108800000011925,2.128899999976163,2.1401999999880843,2.156800000011927,2.1736000000238462,2.190100000023847,2.206800000011924,2.2233999999761593,2.2456999999880836,2.264000000000003,2.2733999999761636,2.2901000000238483,2.3068000000119255,2.329500000000003,2.343500000000006,2.3568999999761644,2.375699999988079,2.3955000000000055,2.406800000011927,2.423500000000004,2.440100000023847,2.461600000023843,2.4735000000000014,2.490100000023844,2.511399999976163,2.5233999999761636,2.5401000000238483,2.5613000000119257,2.5733999999761608,2.59019999998808,2.6068000000119227,2.623399999976158,2.6416000000238427,2.658199999988085,2.679699999988081,2.690100000023847,2.706800000011924,2.7248999999761594,2.740100000023844,2.757000000000005,2.778000000000006,2.7950000000000017,2.807100000023844,2.8233999999761608,2.8401000000238454,2.8568000000119227,2.877500000000005,2.8901000000238426,2.9068999999761616,2.923399999976162,2.940399999976158,2.9601999999880846,2.980000000000004,2.990100000023844,3.006899999976163,3.0235000000000056,3.0401000000238483,3.0626999999880837,3.073899999976163,3.090600000023848,3.1068999999761644,3.1235,3.1433000000119264,3.156800000011927,3.173500000000004,3.193399999976158,3.206800000011924,3.2235000000000014]","[1732874235439,1732874235474,1732874235494,1732874235503,1732874235527,1732874235535,1732874235561,1732874235568,1732874235594,1732874235602,1732874235626,1732874235633,1732874235660,1732874235668,1732874235693,1732874235700,1732874235728,1732874235736,1732874235761,1732874235768,1732874235794,1732874235805,1732874235828,1732874235835,1732874235861,1732874235872,1732874235894,1732874235902,1732874235929,1732874235937,1732874235961,1732874235967,1732874235993,1732874236003,1732874236027,1732874236034,1732874236059,1732874236069,1732874236094,1732874236102,1732874236128,1732874236142,1732874236161,1732874236169,1732874236194,1732874236203,1732874236228,1732874236236,1732874236260,1732874236268,1732874236294,1732874236302,1732874236327,1732874236336,1732874236361,1732874236368,1732874236394,1732874236402,1732874236409,1732874236444,1732874236451,1732874236476,1732874236485,1732874236511,1732874236520,1732874236543,1732874236560,1732874236578,1732874236585,1732874236615,1732874236624,1732874236644,1732874236652,1732874236679,1732874236687,1732874236713,1732874236722,1732874236752,1732874236760,1732874236776,1732874236797,1732874236816,1732874236826,1732874236849,1732874236863,1732874236876,1732874236892,1732874236914,1732874236926,1732874236942,1732874236959,1732874236980,1732874236992,1732874237009,1732874237030,1732874237042,1732874237059,1732874237087,1732874237095,1732874237109,1732874237130,1732874237152,1732874237163,1732874237176,1732874237196,1732874237216,1732874237227,1732874237244,1732874237259,1732874237281,1732874237292,1732874237309,1732874237333,1732874237342,1732874237359,1732874237384,1732874237392,1732874237409,1732874237426,1732874237447,1732874237463,1732874237480,1732874237492,1732874237509,1732874237527,1732874237544,1732874237564,1732874237575,1732874237592,1732874237609,1732874237625,1732874237642,1732874237659,1732874237681,1732874237699,1732874237709,1732874237725,1732874237742,1732874237765,1732874237779,1732874237792,1732874237811,1732874237831,1732874237842,1732874237859,1732874237875,1732874237897,1732874237909,1732874237925,1732874237947,1732874237959,1732874237975,1732874237996,1732874238009,1732874238025,1732874238042,1732874238059,1732874238077,1732874238093,1732874238115,1732874238125,1732874238142,1732874238160,1732874238175,1732874238192,1732874238213,1732874238230,1732874238242,1732874238259,1732874238275,1732874238292,1732874238313,1732874238325,1732874238342,1732874238359,1732874238376,1732874238395,1732874238415,1732874238425,1732874238442,1732874238459,1732874238475,1732874238498,1732874238509,1732874238526,1732874238542,1732874238559,1732874238578,1732874238592,1732874238609,1732874238629,1732874238642,1732874238659]","[[749.3,819.2],[749.3,819.2],[762,818.5],[762,818.5],[744.9,810.8],[744.9,810.8],[715.8,827.9],[715.8,827.9],[716.5,828.1],[716.5,828.1],[715.8,838.5],[715.8,838.5],[709.7,856.4],[709.7,856.4],[717.7,862.8],[717.7,862.8],[683.8,877.4],[683.8,877.4],[678.2,872.2],[678.2,872.2],[690,869.4],[690,869.4],[708.7,865.7],[708.7,865.7],[730.5,854.2],[730.5,854.2],[757.4,822.9],[757.4,822.9],[752.5,799.9],[752.5,799.9],[754.6,769.8],[754.6,769.8],[762.7,739.6],[762.7,739.6],[764.8,711.5],[764.8,711.5],[776.8,680.5],[776.8,680.5],[811,670.3],[811,670.3],[830.6,650.8],[830.6,650.8],[815.9,652.7],[815.9,652.7],[820.9,654.9],[820.9,654.9],[811.9,678.4],[811.9,678.4],[809.3,715.6],[809.3,715.6],[859.1,721.5],[859.1,721.5],[904.3,723.5],[904.3,723.5],[939.3,731],[939.3,731],[986.1,738.2],[986.1,738.2],[986.1,738.2],[1009.6,738.7],[1009.6,738.7],[1047.2,744.8],[1047.2,744.8],[1126.1,730.7],[1126.1,730.7],[1190.2,710.5],[1190.2,710.5],[1194.8,709.5],[1194.8,709.5],[1194.7,695.9],[1194.7,695.9],[1165.4,702.4],[1165.4,702.4],[1146,715.2],[1146,715.2],[1127.7,708.5],[1127.7,708.5],[1092.9,705.5],[1092.9,705.5],[1094.7,711.4],[1082.2,695.2],[1082.2,695.2],[1064.9,696.1],[1048.7,706.7],[1048.7,706.7],[1082.3,680],[1082.3,680],[1163.7,654.3],[1163.7,654.3],[1212.3,630.6],[1212.3,630.6],[1238.8,598.5],[1238.8,598.5],[1281.6,583.2],[1281.6,583.2],[1335.5,570.9],[1360.6,555.3],[1384,552.3],[1384,552.3],[1371.3,542],[1375.9,529.2],[1376.7,526.7],[1376.7,526.7],[1328.6,538.1],[1292.8,549.5],[1292.8,549.5],[1285.7,563.5],[1275.8,578.9],[1275.8,578.9],[1246.5,571.7],[1246.5,571.7],[1218.7,569.5],[1186.1,584.3],[1186.1,584.3],[1193.8,590.4],[1184.2,599],[1184.2,599],[1199.1,592.1],[1199.1,592.1],[1207.1,573.9],[1202.5,563.5],[1161.3,551.2],[1161.3,551.2],[1108.3,542.9],[1080.4,554.1],[1041.7,531.6],[1014.9,494.9],[1014.9,494.9],[972.7,480.1],[972.7,480.1],[939.2,464.2],[939.2,464.2],[908.2,463.4],[879,458.3],[854.4,462.4],[854.4,462.4],[844.8,486.3],[847,506.2],[826.5,513.6],[826.5,513.6],[855.4,520.5],[884.8,528.8],[908.1,524.4],[908.1,524.4],[908.7,531.2],[907.4,547.2],[899.8,574.5],[899.8,574.5],[934.2,575.1],[962.1,597.7],[962.1,597.7],[987.9,613.5],[1012.4,624.5],[1012.4,624.5],[991.8,652.8],[991.8,652.8],[975,668.5],[924,701.5],[897.9,725.9],[866.1,745.8],[866.1,745.8],[850.8,757.4],[814.3,783.7],[814.3,783.7],[803.6,769],[797.1,765.2],[785.4,775.5],[785.4,775.5],[804.7,773.1],[804.7,773.1],[794.7,788.5],[800.5,778.8],[800.5,778.8],[808.3,771.7],[808.3,771.7],[840.1,787],[870.8,798.1],[860.7,800.8],[860.7,800.8],[856.1,808.6],[856.1,808.6],[847.7,804.4],[858.8,802.3],[858.8,802.3],[839.1,820.1],[839.1,820.1],[844.4,831.3],[862,844.4],[862,844.4],[877.4,850.3],[852.1,838.1],[852.1,838.1],[845.1,821.3]]","[0,0.37864299999999995]","[0.37864299999999995,0.37864299999999995]","[-0.37864299999999995,0]","[-0.37864299999999995,-0.37864299999999995]","[0,0]","[0.37864299999999995,0]","[0,-0.37864299999999995]","[0.37864299999999995,-0.37864299999999995]",0,0,0,0,1,4,Laptop,11,5,13,9
,,,,,,,,,,,,,,,,,,,38,001,2024-11-29_17h56.32.941,Attention_exp_legacy,2023.1.0,Win32,59.88023952,,,,,,,,,,,[0.3802083333333333],[0.4166666666666667],[1],[0],[0],[1.582399999976161],"[""Option2_label""]",Option2_label,2,2.5996,"[[0.3489583333333333,0.37222222222222223],[0.3489583333333333,0.37222222222222223],[0.3489583333333333,0.37222222222222223],[0.3489583333333333,0.37222222222222223],[0.3489583333333333,0.37222222222222223],[0.3489583333333333,0.37222222222222223],[0.3489583333333333,0.37222222222222223],[0.3489583333333333,0.37222222222222223],[0.3489583333333333,0.37222222222222223],[0.3489583333333333,0.37222222222222223],[0.3489583333333333,0.37222222222222223],[0.3489583333333333,0.37222222222222223],[0.3489583333333333,0.37222222222222223],[0.3489583333333333,0.37222222222222223],[0.3489583333333333,0.37222222222222223],[0.3489583333333333,0.37222222222222223],[0.3489583333333333,0.37222222222222223],[0.3489583333333333,0.37222222222222223],[0.3489583333333333,0.37222222222222223],[0.3489583333333333,0.37222222222222223],[0.3489583333333333,0.37222222222222223],[0.3489583333333333,0.37222222222222223],[0.3489583333333333,0.37222222222222223],[0.3489583333333333,0.37222222222222223],[0.3489583333333333,0.37222222222222223],[0.3489583333333333,0.37222222222222223],[0.3489583333333333,0.37222222222222223],[0.3489583333333333,0.37222222222222223],[0.3489583333333333,0.37222222222222223],[0.3489583333333333,0.37222222222222223],[0.3489583333333333,0.37222222222222223],[0.3489583333333333,0.37222222222222223],[0.3489583333333333,0.37222222222222223],[0.3489583333333333,0.37222222222222223],[0.3489583333333333,0.37222222222222223],[0.3489583333333333,0.37222222222222223],[0.3489583333333333,0.37222222222222223],[0.3489583333333333,0.37222222222222223],[0.3489583333333333,0.37222222222222223],[0.3489583333333333,0.37222222222222223],[0.3489583333333333,0.37222222222222223],[0.3489583333333333,0.37222222222222223],[0.3489583333333333,0.37222222222222223],[0.3489583333333333,0.37222222222222223],[0.3489583333333333,0.37222222222222223],[0.3489583333333333,0.37222222222222223],[0.3489583333333333,0.37222222222222223],[0.3489583333333333,0.37222222222222223],[0.3489583333333333,0.37222222222222223],[0.3489583333333333,0.37222222222222223],[0.3489583333333333,0.37222222222222223],[0.3489583333333333,0.37222222222222223],[0.3489583333333333,0.37222222222222223],[0.3489583333333333,0.37222222222222223],[0.3489583333333333,0.37222222222222223],[0.3489583333333333,0.37222222222222223],[0.3489583333333333,0.37222222222222223],[0.3489583333333333,0.37222222222222223],[0.3489583333333333,0.37222222222222223],[0.3489583333333333,0.37222222222222223],[0.3489583333333333,0.37222222222222223],[0.3489583333333333,0.37222222222222223],[0.3489583333333333,0.37222222222222223],[0.3489583333333333,0.37222222222222223],[0.3489583333333333,0.37222222222222223],[0.3489583333333333,0.37222222222222223],[0.3489583333333333,0.37222222222222223],[0.3489583333333333,0.37222222222222223],[0.3489583333333333,0.37222222222222223],[0.3489583333333333,0.37222222222222223],[0.3489583333333333,0.37222222222222223],[0.3489583333333333,0.37222222222222223],[0.3489583333333333,0.37222222222222223],[0.3489583333333333,0.37222222222222223],[0.3489583333333333,0.37222222222222223],[0.35104166666666664,0.37407407407407406],[0.3572916666666667,0.387037037037037],[0.36041666666666666,0.39444444444444443],[0.3625,0.39814814814814814],[0.36354166666666665,0.40185185185185185],[0.36666666666666664,0.40555555555555556],[0.36770833333333336,0.4074074074074074],[0.36875,0.4074074074074074],[0.3697916666666667,0.40925925925925927],[0.371875,0.4111111111111111],[0.37395833333333334,0.412962962962963],[0.375,0.4148148148148148],[0.3770833333333333,0.4148148148148148],[0.378125,0.4148148148148148],[0.3802083333333333,0.4148148148148148],[0.3802083333333333,0.4166666666666667],[0.3802083333333333,0.4166666666666667],[0.3802083333333333,0.4166666666666667],[0.3802083333333333,0.4166666666666667],[0.3802083333333333,0.4166666666666667],[0.3802083333333333,0.4166666666666667],[0.3802083333333333,0.4166666666666667],[0.3802083333333333,0.4166666666666667],[0.3802083333333333,0.4166666666666667],[0.3802083333333333,0.4166666666666667],[0.3802083333333333,0.4166666666666667],[0.3802083333333333,0.4166666666666667],[0.3802083333333333,0.4166666666666667],[0.3802083333333333,0.4166666666666667],[0.3802083333333333,0.4166666666666667],[0.3802083333333333,0.4166666666666667],[0.3802083333333333,0.4166666666666667],[0.3802083333333333,0.4166666666666667],[0.3802083333333333,0.4166666666666667],[0.3802083333333333,0.4166666666666667],[0.3802083333333333,0.4166666666666667],[0.3802083333333333,0.4166666666666667],[0.3802083333333333,0.4166666666666667],[0.3802083333333333,0.4166666666666667],[0.3802083333333333,0.4166666666666667],[0.3802083333333333,0.4166666666666667],[0.3802083333333333,0.4166666666666667],[0.3802083333333333,0.4166666666666667],[0.3802083333333333,0.4166666666666667],[0.3802083333333333,0.4166666666666667],[0.3802083333333333,0.4166666666666667],[0.3802083333333333,0.4166666666666667],[0.3802083333333333,0.4166666666666667],[0.3802083333333333,0.4166666666666667],[0.3802083333333333,0.4166666666666667],[0.3802083333333333,0.4166666666666667],[0.3802083333333333,0.4166666666666667],[0.3802083333333333,0.4166666666666667],[0.3802083333333333,0.4166666666666667],[0.3802083333333333,0.4166666666666667],[0.3802083333333333,0.4166666666666667],[0.3802083333333333,0.4166666666666667],[0.3802083333333333,0.4166666666666667],[0.3802083333333333,0.4166666666666667],[0.3802083333333333,0.4166666666666667],[0.3802083333333333,0.4166666666666667],[0.3802083333333333,0.4166666666666667],[0.3802083333333333,0.4166666666666667],[0.3802083333333333,0.4166666666666667],[0.3802083333333333,0.4166666666666667],[0.3802083333333333,0.4166666666666667],[0.3802083333333333,0.4166666666666667],[0.3802083333333333,0.4166666666666667],[0.3802083333333333,0.4166666666666667],[0.3802083333333333,0.4166666666666667],[0.3802083333333333,0.4166666666666667],[0.3802083333333333,0.4166666666666667],[0.3802083333333333,0.4166666666666667],[0.3802083333333333,0.4166666666666667],[0.3802083333333333,0.4166666666666667],[0.3802083333333333,0.4166666666666667],[0.3802083333333333,0.4166666666666667],[0.3802083333333333,0.4166666666666667],[0.3802083333333333,0.4166666666666667],[0.3802083333333333,0.4166666666666667],[0.3802083333333333,0.4166666666666667],[0.3802083333333333,0.4166666666666667]]","[[0.03166666666666664,0.33425925925925926],[-0.0009374999999999763,0.3483333333333334],[-0.0009374999999999763,0.3483333333333334],[-0.027499999999999976,0.32333333333333336],[-0.057604166666666616,0.3455555555555556],[-0.06135416666666664,0.3398148148148148],[-0.07916666666666666,0.3533333333333332],[-0.09656250000000005,0.36648148148148146],[-0.09656250000000005,0.36648148148148146],[-0.12093750000000002,0.38499999999999995],[-0.09760416666666671,0.3394444444444444],[-0.014583333333333334,0.2485185185185186],[-0.0006250000000000236,0.23648148148148157],[-0.0006250000000000236,0.23648148148148157],[0.0010416666666666667,0.23759259259259252],[0.0010416666666666667,0.23759259259259252],[0.03447916666666669,0.247037037037037],[0.03447916666666669,0.247037037037037],[0.04645833333333336,0.23462962962962972],[0.04083333333333338,0.24055555555555552],[0.049479166666666664,0.23351851851851857],[0.06281249999999995,0.24537037037037038],[0.08083333333333324,0.2479629629629629],[0.0740624999999999,0.2601851851851852],[0.058333333333333334,0.2735185185185186],[0.06604166666666664,0.26851851851851855],[0.09156250000000009,0.25999999999999995],[0.09156250000000009,0.25999999999999995],[0.04666666666666662,0.27314814814814814],[0.04666666666666662,0.27314814814814814],[0.0328125,0.2579629629629629],[0.0203125,0.2338888888888888],[0.0203125,0.2338888888888888],[0.01114583333333338,0.18037037037037032],[-0.036458333333333336,0.14907407407407408],[-0.07104166666666671,0.08277777777777787],[-0.12541666666666665,0.0838888888888888],[-0.12541666666666665,0.0838888888888888],[-0.1622916666666666,0.07555555555555547],[-0.16010416666666671,0.03296296296296288],[-0.16291666666666665,-0.030000000000000086],[-0.16291666666666665,-0.030000000000000086],[-0.17177083333333332,-0.08111111111111113],[-0.1772916666666667,-0.12407407407407407],[-0.19156249999999997,-0.13944444444444445],[-0.18500000000000003,-0.13425925925925927],[-0.14510416666666662,-0.1698148148148148],[-0.14468749999999997,-0.17074074074074072],[-0.14468749999999997,-0.17074074074074072],[-0.12479166666666662,-0.21777777777777782],[-0.12541666666666665,-0.2207407407407407],[-0.13145833333333337,-0.1977777777777778],[-0.12281249999999998,-0.16222222222222227],[-0.12281249999999998,-0.16222222222222227],[-0.06343749999999998,-0.18055555555555555],[-0.013437499999999976,-0.19500000000000003],[0.015312500000000047,-0.19129629629629633],[0.03739583333333331,-0.19314814814814818],[0.06104166666666669,-0.17962962962962964],[0.11114583333333337,-0.16574074074074074],[0.17625000000000005,-0.14537037037037037],[0.17625000000000005,-0.14537037037037037],[0.19541666666666657,-0.1374074074074074],[0.215625,-0.12388888888888884],[0.26239583333333344,-0.13259259259259262],[0.2726041666666667,-0.11870370370370374],[0.2726041666666667,-0.11870370370370374],[0.28104166666666663,-0.07685185185185185],[0.30791666666666656,-0.075],[0.3396874999999999,-0.05703703703703706],[0.3420833333333334,-0.040370370370370286],[0.3420833333333334,-0.040370370370370286],[0.3820833333333333,-0.03092592592592601],[0.37395833333333334,-0.006851851851851936],[0.37395833333333334,-0.006851851851851936],[0.4296875,-0.012592592592592508],[0.42468750000000005,-0.0514814814814814],[0.41427083333333337,-0.0955555555555556],[0.44333333333333325,-0.14296296296296293],[0.44333333333333325,-0.14296296296296293],[0.4317708333333333,-0.17296296296296293],[0.4310416666666666,-0.20333333333333337],[0.4310416666666666,-0.20333333333333337],[0.46937499999999993,-0.24314814814814817],[0.5320833333333332,-0.30777777777777776],[0.5571875000000001,-0.36518518518518517],[0.5571875000000001,-0.36518518518518517],[0.5787499999999999,-0.4359259259259259],[0.5685416666666666,-0.4922222222222222],[0.5685416666666666,-0.4922222222222222],[0.5767708333333333,-0.4948148148148148],[0.5767708333333333,-0.4948148148148148],[0.5877083333333334,-0.4777777777777778],[0.5686458333333334,-0.44240740740740736],[0.5919791666666666,-0.46148148148148144],[0.6174999999999999,-0.4655555555555555],[0.5707291666666667,-0.45444444444444443],[0.5326041666666667,-0.4281481481481481],[0.5326041666666667,-0.4281481481481481],[0.4826041666666666,-0.4],[0.4722916666666668,-0.38074074074074077],[0.4505208333333333,-0.31740740740740736],[0.42177083333333343,-0.275],[0.3537499999999999,-0.20277777777777778],[0.3296875,-0.16666666666666666],[0.3030208333333334,-0.13537037037037042],[0.3030208333333334,-0.13537037037037042],[0.27854166666666674,-0.10555555555555556],[0.2509375000000001,-0.06870370370370374],[0.2283333333333334,-0.0485185185185186],[0.21989583333333323,-0.0338888888888888],[0.19083333333333338,-0.011296296296296339],[0.21802083333333327,-0.08574074074074076],[0.24520833333333342,-0.147037037037037],[0.2835416666666667,-0.19000000000000003],[0.2835416666666667,-0.19000000000000003],[0.30572916666666666,-0.21092592592592588],[0.2977083333333333,-0.1925925925925926],[0.2853125000000001,-0.1766666666666666],[0.2853125000000001,-0.1766666666666666],[0.2846874999999999,-0.16592592592592598],[0.2959374999999999,-0.18759259259259262],[0.30489583333333337,-0.20555555555555555],[0.32874999999999993,-0.21092592592592588],[0.3084374999999999,-0.172037037037037],[0.3084374999999999,-0.172037037037037],[0.30104166666666665,-0.14518518518518514],[0.3029166666666666,-0.1594444444444445],[0.3029166666666666,-0.1594444444444445],[0.2961458333333333,-0.15833333333333333],[0.31010416666666674,-0.21666666666666667],[0.3171875,-0.2548148148148149],[0.34041666666666665,-0.2683333333333333],[0.34249999999999997,-0.24296296296296294],[0.33010416666666675,-0.23499999999999996],[0.33010416666666675,-0.23499999999999996],[0.321875,-0.24611111111111106],[0.3359375,-0.25851851851851854],[0.32093749999999993,-0.24407407407407408],[0.3054166666666667,-0.2368518518518518],[0.3054166666666667,-0.2368518518518518],[0.31354166666666666,-0.2594444444444445],[0.3337500000000001,-0.25703703703703706],[0.3445833333333333,-0.25166666666666665],[0.3445833333333333,-0.25166666666666665],[0.3233333333333334,-0.28111111111111114],[0.2875,-0.29518518518518516],[0.2752083333333334,-0.27870370370370373],[0.2752083333333334,-0.27870370370370373],[0.2530208333333334,-0.28296296296296297],[0.22843749999999996,-0.28777777777777774],[0.23291666666666658,-0.2898148148148148],[0.23291666666666658,-0.2898148148148148],[0.22270833333333329,-0.2837037037037037],[0.22270833333333329,-0.2837037037037037],[0.1650000000000001,-0.2522222222222222],[0.1650000000000001,-0.2522222222222222]]","[[0.03166666666666664,0.33425925925925926,0.00010000002384202844],[-0.0009374999999999763,0.3483333333333334,0.019800000011919394],[-0.0009374999999999763,0.3483333333333334,0.03300000000000125],[-0.027499999999999976,0.32333333333333336,0.049600000023843904],[-0.057604166666666616,0.3455555555555556,0.06749999999999545],[-0.06135416666666664,0.3398148148148148,0.08299999999999841],[-0.07916666666666666,0.3533333333333332,0.09970000004768309],[-0.09656250000000005,0.36648148148148146,0.11640000003576034],[-0.09656250000000005,0.36648148148148146,0.1331000000238376],[-0.12093750000000002,0.38499999999999995,0.14970000004768025],[-0.09760416666666671,0.3394444444444444,0.1664000000357646],[-0.014583333333333334,0.2485185185185186,0.18649999999999523],[-0.0006250000000000236,0.23648148148148157,0.20250000000000057],[-0.0006250000000000236,0.23648148148148157,0.21630000001191974],[0.0010416666666666667,0.23759259259259252,0.232999999999997],[0.0010416666666666667,0.23759259259259252,0.24970000004768167],[0.03447916666666669,0.247037037037037,0.2665000000000006],[0.03447916666666669,0.247037037037037,0.2831000000238433],[0.04645833333333336,0.23462962962962972,0.29980000001192053],[0.04083333333333338,0.24055555555555552,0.3188000000119189],[0.049479166666666664,0.23351851851851857,0.33320000004768247],[0.06281249999999995,0.24537037037037038,0.3527000000476832],[0.08083333333333324,0.2479629629629629,0.36650000000000205],[0.0740624999999999,0.2601851851851852,0.3831000000238376],[0.058333333333333334,0.2735185185185186,0.39970000004768025],[0.06604166666666664,0.26851851851851855,0.41960000002384135],[0.09156250000000009,0.25999999999999995,0.4344999999999999],[0.09156250000000009,0.25999999999999995,0.4497000000476845],[0.04666666666666662,0.27314814814814814,0.46630000001191974],[0.04666666666666662,0.27314814814814814,0.482999999999997],[0.0328125,0.2579629629629629,0.49970000004768167],[0.0203125,0.2338888888888888,0.5197000000476848],[0.0203125,0.2338888888888888,0.5330000000000013],[0.01114583333333338,0.18037037037037032,0.5497000000476859],[-0.036458333333333336,0.14907407407407408,0.5664000000357632],[-0.07104166666666671,0.08277777777777787,0.5829999999999984],[-0.12541666666666665,0.0838888888888888,0.5999000000357597],[-0.12541666666666665,0.0838888888888888,0.6164000000357603],[-0.1622916666666666,0.07555555555555547,0.6329999999999956],[-0.16010416666666671,0.03296296296296288,0.649900000035764],[-0.16291666666666665,-0.030000000000000086,0.6694999999999993],[-0.16291666666666665,-0.030000000000000086,0.6829999999999998],[-0.17177083333333332,-0.08111111111111113,0.6997000000476845],[-0.1772916666666667,-0.12407407407407407,0.7190000000000012],[-0.19156249999999997,-0.13944444444444445,0.732999999999997],[-0.18500000000000003,-0.13425925925925927,0.7496000000238396],[-0.14510416666666662,-0.1698148148148148,0.7668000000119193],[-0.14468749999999997,-0.17074074074074072,0.7831000000238433],[-0.14468749999999997,-0.17074074074074072,0.7996000000238439],[-0.12479166666666662,-0.21777777777777782,0.8164000000357632],[-0.12541666666666665,-0.2207407407407407,0.8329999999999984],[-0.13145833333333337,-0.1977777777777778,0.8497000000476831],[-0.12281249999999998,-0.16222222222222227,0.8697000000476791],[-0.12281249999999998,-0.16222222222222227,0.8829999999999956],[-0.06343749999999998,-0.18055555555555555,0.8997000000476802],[-0.013437499999999976,-0.19500000000000003,0.9164000000357646],[0.015312500000000047,-0.19129629629629633,0.9329999999999998],[0.03739583333333331,-0.19314814814814818,0.9497000000476845],[0.06104166666666669,-0.17962962962962964,0.9664999999999964],[0.11114583333333337,-0.16574074074074074,0.982999999999997],[0.17625000000000005,-0.14537037037037037,1.0029000000357584],[0.17625000000000005,-0.14537037037037037,1.016400000035759],[0.19541666666666657,-0.1374074074074074,1.0330000000000013],[0.215625,-0.12388888888888884,1.050300000011923],[0.26239583333333344,-0.13259259259259262,1.0663000000119212],[0.2726041666666667,-0.11870370370370374,1.0831000000238404],[0.2726041666666667,-0.11870370370370374,1.099600000023841],[0.28104166666666663,-0.07685185185185185,1.1164000000357603],[0.30791666666666656,-0.075,1.1329999999999956],[0.3396874999999999,-0.05703703703703706,1.1496000000238382],[0.3420833333333334,-0.040370370370370286,1.169800000011918],[0.3420833333333334,-0.040370370370370286,1.1829999999999998],[0.3820833333333333,-0.03092592592592601,1.1996000000238425],[0.37395833333333334,-0.006851851851851936,1.2163000000119197],[0.37395833333333334,-0.006851851851851936,1.233100000023839],[0.4296875,-0.012592592592592508,1.2519999999999953],[0.42468750000000005,-0.0514814814814814,1.2665000000000006],[0.41427083333333337,-0.0955555555555556,1.2831000000238433],[0.44333333333333325,-0.14296296296296293,1.3056000000238441],[0.44333333333333325,-0.14296296296296293,1.3167000000476818],[0.4317708333333333,-0.17296296296296293,1.3332000000476825],[0.4310416666666666,-0.20333333333333337,1.3507000000476808],[0.4310416666666666,-0.20333333333333337,1.3698000000119208],[0.46937499999999993,-0.24314814814814817,1.3831000000238376],[0.5320833333333332,-0.30777777777777776,1.402200000047685],[0.5571875000000001,-0.36518518518518517,1.4215000000000018],[0.5571875000000001,-0.36518518518518517,1.4332000000476839],[0.5787499999999999,-0.4359259259259259,1.4501000000238378],[0.5685416666666666,-0.4922222222222222,1.4687000000476829],[0.5685416666666666,-0.4922222222222222,1.4866000000238415],[0.5767708333333333,-0.4948148148148148,1.5],[0.5767708333333333,-0.4948148148148148,1.516300000011917],[0.5877083333333334,-0.4777777777777778,1.5331000000238433],[0.5686458333333334,-0.44240740740740736,1.550300000011923],[0.5919791666666666,-0.46148148148148144,1.5677000000476795],[0.6174999999999999,-0.4655555555555555,1.5835000000000008],[0.5707291666666667,-0.45444444444444443,1.599600000023841],[0.5326041666666667,-0.4281481481481481,1.6206000000238419],[0.5326041666666667,-0.4281481481481481,1.6332000000476796],[0.4826041666666666,-0.4,1.6496000000238382],[0.4722916666666668,-0.38074074074074077,1.6671000000238436],[0.4505208333333333,-0.31740740740740736,1.6843000000119162],[0.42177083333333343,-0.275,1.704499999999996],[0.3537499999999999,-0.20277777777777778,1.7211000000238386],[0.3296875,-0.16666666666666666,1.7377000000476812],[0.3030208333333334,-0.13537037037037042,1.7596000000238377],[0.3030208333333334,-0.13537037037037042,1.7682000000476847],[0.27854166666666674,-0.10555555555555556,1.7829000000357595],[0.2509375000000001,-0.06870370370370374,1.7998000000119205],[0.2283333333333334,-0.0485185185185186,1.8163000000119212],[0.21989583333333323,-0.0338888888888888,1.8349000000357591],[0.19083333333333338,-0.011296296296296339,1.8539999999999992],[0.21802083333333327,-0.08574074074074076,1.8708000000119185],[0.24520833333333342,-0.147037037037037,1.8867000000476821],[0.2835416666666667,-0.19000000000000003,1.9032000000476827],[0.2835416666666667,-0.19000000000000003,1.9163000000119226],[0.30572916666666666,-0.21092592592592588,1.9331000000238419],[0.2977083333333333,-0.1925925925925926,1.9499999999999957],[0.2853125000000001,-0.1766666666666666,1.971499999999999],[0.2853125000000001,-0.1766666666666666,1.982999999999997],[0.2846874999999999,-0.16592592592592598,1.9998000000119163],[0.2959374999999999,-0.18759259259259262,2.0165000000000006],[0.30489583333333337,-0.20555555555555555,2.0331000000238433],[0.32874999999999993,-0.21092592592592588,2.0538000000119183],[0.3084374999999999,-0.172037037037037,2.0706000000238376],[0.3084374999999999,-0.172037037037037,2.082900000035764],[0.30104166666666665,-0.14518518518518514,2.099700000047683],[0.3029166666666666,-0.1594444444444445,2.1225000000000023],[0.3029166666666666,-0.1594444444444445,2.1329999999999956],[0.2961458333333333,-0.15833333333333333,2.1497000000476802],[0.31010416666666674,-0.21666666666666667,2.1681000000238413],[0.3171875,-0.2548148148148149,2.1874000000357583],[0.34041666666666665,-0.2683333333333333,2.2059000000357614],[0.34249999999999997,-0.24296296296296294,2.220900000035762],[0.33010416666666675,-0.23499999999999996,2.238600000023844],[0.33010416666666675,-0.23499999999999996,2.2496000000238396],[0.321875,-0.24611111111111106,2.266300000011917],[0.3359375,-0.25851851851851854,2.2829000000357595],[0.32093749999999993,-0.24407407407407408,2.299600000023844],[0.3054166666666667,-0.2368518518518518,2.3231000000238424],[0.3054166666666667,-0.2368518518518518,2.3329999999999984],[0.31354166666666666,-0.2594444444444445,2.3498000000119177],[0.3337500000000001,-0.25703703703703706,2.3664000000357603],[0.3445833333333333,-0.25166666666666665,2.3904000000357613],[0.3445833333333333,-0.25166666666666665,2.399600000023838],[0.3233333333333334,-0.28111111111111114,2.4164000000357646],[0.2875,-0.29518518518518516,2.434700000047684],[0.2752083333333334,-0.27870370370370373,2.4559000000357614],[0.2752083333333334,-0.27870370370370373,2.4682000000476805],[0.2530208333333334,-0.28296296296296297,2.482999999999997],[0.22843749999999996,-0.28777777777777774,2.5051000000238375],[0.23291666666666658,-0.2898148148148148,2.5229000000357615],[0.23291666666666658,-0.2898148148148148,2.5330000000000013],[0.22270833333333329,-0.2837037037037037,2.549700000047686],[0.22270833333333329,-0.2837037037037037,2.566400000035763],[0.1650000000000001,-0.2522222222222222,2.5829999999999984],[0.1650000000000001,-0.2522222222222222,2.599600000023841]]","[0.00010000002384202844,0.019800000011919394,0.03300000000000125,0.049600000023843904,0.06749999999999545,0.08299999999999841,0.09970000004768309,0.11640000003576034,0.1331000000238376,0.14970000004768025,0.1664000000357646,0.18649999999999523,0.20250000000000057,0.21630000001191974,0.232999999999997,0.24970000004768167,0.2665000000000006,0.2831000000238433,0.29980000001192053,0.3188000000119189,0.33320000004768247,0.3527000000476832,0.36650000000000205,0.3831000000238376,0.39970000004768025,0.41960000002384135,0.4344999999999999,0.4497000000476845,0.46630000001191974,0.482999999999997,0.49970000004768167,0.5197000000476848,0.5330000000000013,0.5497000000476859,0.5664000000357632,0.5829999999999984,0.5999000000357597,0.6164000000357603,0.6329999999999956,0.649900000035764,0.6694999999999993,0.6829999999999998,0.6997000000476845,0.7190000000000012,0.732999999999997,0.7496000000238396,0.7668000000119193,0.7831000000238433,0.7996000000238439,0.8164000000357632,0.8329999999999984,0.8497000000476831,0.8697000000476791,0.8829999999999956,0.8997000000476802,0.9164000000357646,0.9329999999999998,0.9497000000476845,0.9664999999999964,0.982999999999997,1.0029000000357584,1.016400000035759,1.0330000000000013,1.050300000011923,1.0663000000119212,1.0831000000238404,1.099600000023841,1.1164000000357603,1.1329999999999956,1.1496000000238382,1.169800000011918,1.1829999999999998,1.1996000000238425,1.2163000000119197,1.233100000023839,1.2519999999999953,1.2665000000000006,1.2831000000238433,1.3056000000238441,1.3167000000476818,1.3332000000476825,1.3507000000476808,1.3698000000119208,1.3831000000238376,1.402200000047685,1.4215000000000018,1.4332000000476839,1.4501000000238378,1.4687000000476829,1.4866000000238415,1.5,1.516300000011917,1.5331000000238433,1.550300000011923,1.5677000000476795,1.5835000000000008,1.599600000023841,1.6206000000238419,1.6332000000476796,1.6496000000238382,1.6671000000238436,1.6843000000119162,1.704499999999996,1.7211000000238386,1.7377000000476812,1.7596000000238377,1.7682000000476847,1.7829000000357595,1.7998000000119205,1.8163000000119212,1.8349000000357591,1.8539999999999992,1.8708000000119185,1.8867000000476821,1.9032000000476827,1.9163000000119226,1.9331000000238419,1.9499999999999957,1.971499999999999,1.982999999999997,1.9998000000119163,2.0165000000000006,2.0331000000238433,2.0538000000119183,2.0706000000238376,2.082900000035764,2.099700000047683,2.1225000000000023,2.1329999999999956,2.1497000000476802,2.1681000000238413,2.1874000000357583,2.2059000000357614,2.220900000035762,2.238600000023844,2.2496000000238396,2.266300000011917,2.2829000000357595,2.299600000023844,2.3231000000238424,2.3329999999999984,2.3498000000119177,2.3664000000357603,2.3904000000357613,2.399600000023838,2.4164000000357646,2.434700000047684,2.4559000000357614,2.4682000000476805,2.482999999999997,2.5051000000238375,2.5229000000357615,2.5330000000000013,2.549700000047686,2.566400000035763,2.5829999999999984,2.599600000023841]","[1732874239677,1732874239695,1732874239709,1732874239725,1732874239743,1732874239759,1732874239775,1732874239792,1732874239809,1732874239825,1732874239842,1732874239862,1732874239878,1732874239892,1732874239909,1732874239925,1732874239942,1732874239959,1732874239975,1732874239994,1732874240009,1732874240028,1732874240042,1732874240059,1732874240075,1732874240095,1732874240110,1732874240125,1732874240142,1732874240159,1732874240175,1732874240195,1732874240209,1732874240225,1732874240242,1732874240259,1732874240275,1732874240292,1732874240309,1732874240325,1732874240345,1732874240359,1732874240375,1732874240395,1732874240409,1732874240425,1732874240442,1732874240459,1732874240475,1732874240492,1732874240509,1732874240525,1732874240545,1732874240559,1732874240575,1732874240592,1732874240609,1732874240625,1732874240642,1732874240659,1732874240678,1732874240692,1732874240709,1732874240726,1732874240742,1732874240759,1732874240775,1732874240792,1732874240809,1732874240825,1732874240845,1732874240859,1732874240875,1732874240892,1732874240909,1732874240928,1732874240942,1732874240959,1732874240981,1732874240992,1732874241009,1732874241026,1732874241045,1732874241059,1732874241078,1732874241097,1732874241109,1732874241126,1732874241144,1732874241162,1732874241176,1732874241192,1732874241209,1732874241226,1732874241243,1732874241259,1732874241275,1732874241296,1732874241309,1732874241325,1732874241343,1732874241360,1732874241380,1732874241397,1732874241413,1732874241435,1732874241444,1732874241459,1732874241475,1732874241492,1732874241510,1732874241530,1732874241546,1732874241562,1732874241579,1732874241592,1732874241609,1732874241626,1732874241647,1732874241659,1732874241675,1732874241692,1732874241709,1732874241729,1732874241746,1732874241759,1732874241775,1732874241798,1732874241809,1732874241825,1732874241844,1732874241863,1732874241881,1732874241896,1732874241914,1732874241925,1732874241942,1732874241959,1732874241975,1732874241999,1732874242009,1732874242025,1732874242042,1732874242066,1732874242075,1732874242092,1732874242110,1732874242132,1732874242144,1732874242159,1732874242181,1732874242198,1732874242209,1732874242225,1732874242242,1732874242259,1732874242275]","[[990.4,720.5],[959.1,728.1],[959.1,728.1],[933.6,714.6],[904.7,726.6],[901.1,723.5],[884,730.8],[867.3,737.9],[867.3,737.9],[843.9,747.9],[866.3,723.3],[946,674.2],[959.4,667.7],[959.4,667.7],[961,668.3],[961,668.3],[993.1,673.4],[993.1,673.4],[1004.6,666.7],[999.2,669.9],[1007.5,666.1],[1020.3,672.5],[1037.6,673.9],[1031.1,680.5],[1016,687.7],[1023.4,685],[1047.9,680.4],[1047.9,680.4],[1004.8,687.5],[1004.8,687.5],[991.5,679.3],[979.5,666.3],[979.5,666.3],[970.7,637.4],[925,620.5],[891.8,584.7],[839.6,585.3],[839.6,585.3],[804.2,580.8],[806.3,557.8],[803.6,523.8],[803.6,523.8],[795.1,496.2],[789.8,473],[776.1,464.7],[782.4,467.5],[820.7,448.3],[821.1,447.8],[821.1,447.8],[840.2,422.4],[839.6,420.8],[833.8,433.2],[842.1,452.4],[842.1,452.4],[899.1,442.5],[947.1,434.7],[974.7,436.7],[995.9,435.7],[1018.6,443],[1066.7,450.5],[1129.2,461.5],[1129.2,461.5],[1147.6,465.8],[1167,473.1],[1211.9,468.4],[1221.7,475.9],[1221.7,475.9],[1229.8,498.5],[1255.6,499.5],[1286.1,509.2],[1288.4,518.2],[1288.4,518.2],[1326.8,523.3],[1319,536.3],[1319,536.3],[1372.5,533.2],[1367.7,512.2],[1357.7,488.4],[1385.6,462.8],[1385.6,462.8],[1374.5,446.6],[1373.8,430.2],[1373.8,430.2],[1410.6,408.7],[1470.8,373.8],[1494.9,342.8],[1494.9,342.8],[1515.6,304.6],[1505.8,274.2],[1505.8,274.2],[1513.7,272.8],[1513.7,272.8],[1524.2,282],[1505.9,301.1],[1528.3,290.8],[1552.8,288.6],[1507.9,294.6],[1471.3,308.8],[1471.3,308.8],[1423.3,324],[1413.4,334.4],[1392.5,368.6],[1364.9,391.5],[1299.6,430.5],[1276.5,450],[1250.9,466.9],[1250.9,466.9],[1227.4,483],[1200.9,502.9],[1179.2,513.8],[1171.1,521.7],[1143.2,533.9],[1169.3,493.7],[1195.4,460.6],[1232.2,437.4],[1232.2,437.4],[1253.5,426.1],[1245.8,436],[1233.9,444.6],[1233.9,444.6],[1233.3,450.4],[1244.1,438.7],[1252.7,429],[1275.6,426.1],[1256.1,447.1],[1256.1,447.1],[1249,461.6],[1250.8,453.9],[1250.8,453.9],[1244.3,454.5],[1257.7,423],[1264.5,402.4],[1286.8,395.1],[1288.8,408.8],[1276.9,413.1],[1276.9,413.1],[1269,407.1],[1282.5,400.4],[1268.1,408.2],[1253.2,412.1],[1253.2,412.1],[1261,399.9],[1280.4,401.2],[1290.8,404.1],[1290.8,404.1],[1270.4,388.2],[1236,380.6],[1224.2,389.5],[1224.2,389.5],[1202.9,387.2],[1179.3,384.6],[1183.6,383.5],[1183.6,383.5],[1173.8,386.8],[1173.8,386.8],[1118.4,403.8],[1118.4,403.8]]","[0,0.37864299999999995]","[0.37864299999999995,0.37864299999999995]","[-0.37864299999999995,-0.37864299999999995]","[-0.37864299999999995,0]","[0,-0.37864299999999995]","[0.37864299999999995,-0.37864299999999995]","[0,0]","[0.37864299999999995,0]",0,1,1,1,1,4,Laptop,5,1,13,7
,,,,,,,,,,,,,,,,,,,38,001,2024-11-29_17h56.32.941,Attention_exp_legacy,2023.1.0,Win32,59.88023952,,,,,,,,,,,[0.37916666666666665],[0.4166666666666667],[1],[0],[0],[0.7473000000119185],"[""Option2_label""]",Option2_label,3,1.7485,"[[0.37916666666666665,0.4166666666666667],[0.37916666666666665,0.4166666666666667],[0.37916666666666665,0.4166666666666667],[0.37916666666666665,0.4166666666666667],[0.37916666666666665,0.4166666666666667],[0.37916666666666665,0.4166666666666667],[0.37916666666666665,0.4166666666666667],[0.37916666666666665,0.4166666666666667],[0.37916666666666665,0.4166666666666667],[0.37916666666666665,0.4166666666666667],[0.37916666666666665,0.4166666666666667],[0.37916666666666665,0.4166666666666667],[0.37916666666666665,0.4166666666666667],[0.37916666666666665,0.4166666666666667],[0.37916666666666665,0.4166666666666667],[0.37916666666666665,0.4166666666666667],[0.37916666666666665,0.4166666666666667],[0.37916666666666665,0.4166666666666667],[0.37916666666666665,0.4166666666666667],[0.37916666666666665,0.4166666666666667],[0.37916666666666665,0.4166666666666667],[0.37916666666666665,0.4166666666666667],[0.37916666666666665,0.4166666666666667],[0.37916666666666665,0.4166666666666667],[0.37916666666666665,0.4166666666666667],[0.37916666666666665,0.4166666666666667],[0.37916666666666665,0.4166666666666667],[0.37916666666666665,0.4166666666666667],[0.37916666666666665,0.4166666666666667],[0.37916666666666665,0.4166666666666667],[0.37916666666666665,0.4166666666666667],[0.37916666666666665,0.4166666666666667],[0.37916666666666665,0.4166666666666667],[0.37916666666666665,0.4166666666666667],[0.37916666666666665,0.4166666666666667],[0.37916666666666665,0.4166666666666667],[0.37916666666666665,0.4166666666666667],[0.37916666666666665,0.4166666666666667],[0.37916666666666665,0.4166666666666667],[0.37916666666666665,0.4166666666666667],[0.37916666666666665,0.4166666666666667],[0.37916666666666665,0.4166666666666667],[0.37916666666666665,0.4166666666666667],[0.37916666666666665,0.4166666666666667],[0.37916666666666665,0.4166666666666667],[0.37916666666666665,0.4166666666666667],[0.37916666666666665,0.4166666666666667],[0.37916666666666665,0.4166666666666667],[0.37916666666666665,0.4166666666666667],[0.37916666666666665,0.4166666666666667],[0.37916666666666665,0.4166666666666667],[0.37916666666666665,0.4166666666666667],[0.37916666666666665,0.4166666666666667],[0.37916666666666665,0.4166666666666667],[0.37916666666666665,0.4166666666666667],[0.37916666666666665,0.4166666666666667],[0.37916666666666665,0.4166666666666667],[0.37916666666666665,0.4166666666666667],[0.37916666666666665,0.4166666666666667],[0.37916666666666665,0.4166666666666667],[0.37916666666666665,0.4166666666666667],[0.37916666666666665,0.4166666666666667],[0.37916666666666665,0.4166666666666667],[0.37916666666666665,0.4166666666666667],[0.37916666666666665,0.4166666666666667],[0.37916666666666665,0.4166666666666667],[0.37916666666666665,0.4166666666666667],[0.37916666666666665,0.4166666666666667],[0.37916666666666665,0.4166666666666667],[0.37916666666666665,0.4166666666666667],[0.37916666666666665,0.4166666666666667],[0.37916666666666665,0.4166666666666667],[0.37916666666666665,0.4166666666666667],[0.37916666666666665,0.4166666666666667],[0.37916666666666665,0.4166666666666667],[0.37916666666666665,0.4166666666666667],[0.37916666666666665,0.4166666666666667],[0.37916666666666665,0.4166666666666667],[0.37916666666666665,0.4166666666666667],[0.37916666666666665,0.4166666666666667],[0.37916666666666665,0.4166666666666667],[0.37916666666666665,0.4166666666666667],[0.37916666666666665,0.4166666666666667],[0.37916666666666665,0.4166666666666667],[0.37916666666666665,0.4166666666666667],[0.37916666666666665,0.4166666666666667],[0.37916666666666665,0.4166666666666667],[0.37916666666666665,0.4166666666666667],[0.37916666666666665,0.4166666666666667],[0.37916666666666665,0.4166666666666667],[0.37916666666666665,0.4166666666666667],[0.37916666666666665,0.4166666666666667],[0.37916666666666665,0.4166666666666667],[0.37916666666666665,0.4166666666666667],[0.37916666666666665,0.4166666666666667],[0.37916666666666665,0.4166666666666667],[0.37916666666666665,0.4166666666666667],[0.37916666666666665,0.4166666666666667],[0.37916666666666665,0.4166666666666667],[0.37916666666666665,0.4166666666666667],[0.37916666666666665,0.4166666666666667],[0.37916666666666665,0.4166666666666667],[0.37916666666666665,0.4166666666666667],[0.37916666666666665,0.4166666666666667],[0.37916666666666665,0.4166666666666667],[0.37916666666666665,0.4166666666666667]]","[[-0.27937500000000004,0.7088888888888888],[-0.27937500000000004,0.7088888888888888],[-0.2894791666666666,0.6925925925925925],[-0.3021875,0.6520370370370371],[-0.32125,0.6412962962962963],[-0.3216666666666666,0.6014814814814814],[-0.3216666666666666,0.6014814814814814],[-0.33322916666666663,0.590925925925926],[-0.37166666666666665,0.6092592592592593],[-0.37166666666666665,0.6092592592592593],[-0.35614583333333333,0.5879629629629629],[-0.3415625,0.5501851851851852],[-0.3142708333333334,0.4883333333333334],[-0.2869791666666667,0.4264814814814814],[-0.24604166666666671,0.37240740740740746],[-0.21156250000000001,0.3485185185185186],[-0.21937500000000001,0.33907407407407414],[-0.21937500000000001,0.33907407407407414],[-0.24552083333333338,0.3757407407407407],[-0.24552083333333338,0.3757407407407407],[-0.22427083333333328,0.33537037037037043],[-0.22427083333333328,0.33537037037037043],[-0.22854166666666664,0.3229629629629629],[-0.24093749999999994,0.28111111111111103],[-0.22458333333333336,0.22777777777777777],[-0.22458333333333336,0.22777777777777777],[-0.23250000000000004,0.1962962962962963],[-0.23250000000000004,0.1962962962962963],[-0.24427083333333333,0.1411111111111112],[-0.22291666666666668,0.1270370370370371],[-0.22291666666666668,0.1270370370370371],[-0.2484375,0.12759259259259256],[-0.2296875,0.0668518518518519],[-0.20020833333333338,-0.00722222222222218],[-0.20020833333333338,-0.00722222222222218],[-0.203125,-0.002962962962963005],[-0.15958333333333338,-0.0514814814814814],[-0.15958333333333338,-0.0514814814814814],[-0.11364583333333336,-0.09000000000000004],[-0.07166666666666661,-0.09796296296296292],[-0.029375000000000047,-0.11592592592592597],[0.016770833333333356,-0.11018518518518519],[0.04364583333333331,-0.1111111111111111],[0.11739583333333338,-0.12666666666666662],[0.15499999999999994,-0.14148148148148143],[0.15499999999999994,-0.14148148148148143],[0.1818749999999999,-0.14296296296296293],[0.2209374999999999,-0.19018518518518515],[0.22468750000000004,-0.22333333333333338],[0.23916666666666658,-0.2492592592592593],[0.22979166666666656,-0.2777777777777778],[0.22979166666666656,-0.2777777777777778],[0.2504166666666668,-0.30166666666666664],[0.28458333333333335,-0.3338888888888889],[0.28458333333333335,-0.3338888888888889],[0.2804166666666667,-0.3592592592592593],[0.2846874999999999,-0.39240740740740737],[0.2846874999999999,-0.39240740740740737],[0.31447916666666675,-0.39351851851851855],[0.31447916666666675,-0.39351851851851855],[0.3451041666666666,-0.41648148148148145],[0.3723958333333333,-0.41092592592592586],[0.39854166666666657,-0.4209259259259259],[0.39854166666666657,-0.4209259259259259],[0.4196875000000001,-0.41870370370370374],[0.4515625,-0.4353703703703704],[0.43739583333333343,-0.44296296296296295],[0.4096874999999999,-0.44222222222222224],[0.4232291666666666,-0.4542592592592593],[0.4283333333333334,-0.45851851851851855],[0.4247916666666666,-0.4742592592592593],[0.43125,-0.45740740740740743],[0.4397916666666667,-0.46037037037037043],[0.43468749999999995,-0.45018518518518524],[0.41645833333333326,-0.4398148148148148],[0.41645833333333326,-0.4398148148148148],[0.37958333333333344,-0.4064814814814815],[0.39718749999999997,-0.42185185185185187],[0.42177083333333343,-0.4498148148148148],[0.4314583333333334,-0.43074074074074076],[0.42906250000000007,-0.43],[0.4266666666666666,-0.4292592592592593],[0.4279166666666666,-0.4468518518518519],[0.37437500000000007,-0.44111111111111106],[0.36697916666666663,-0.42537037037037034],[0.3727083333333333,-0.40981481481481485],[0.4258333333333333,-0.41444444444444445],[0.4258333333333333,-0.41444444444444445],[0.4027083333333332,-0.3648148148148148],[0.4058333333333332,-0.3483333333333334],[0.3580208333333334,-0.30944444444444447],[0.32229166666666675,-0.2522222222222222],[0.26843750000000005,-0.17444444444444443],[0.26843750000000005,-0.17444444444444443],[0.2263541666666666,-0.08574074074074076],[0.2303124999999999,-0.029814814814814856],[0.2303124999999999,-0.029814814814814856],[0.2029166666666666,0.018518518518518517],[0.1632291666666667,0.06444444444444436],[0.1632291666666667,0.06444444444444436],[0.0655208333333333,0.16925925925925922],[0.003541666666666643,0.20092592592592592],[-0.07718750000000002,0.28166666666666673],[-0.1123958333333333,0.29981481481481476],[-0.1123958333333333,0.29981481481481476],[-0.15208333333333332,0.3362962962962963]]","[[-0.27937500000000004,0.7088888888888888,0.00019999998807662678],[-0.27937500000000004,0.7088888888888888,0.015199999988077195],[-0.2894791666666666,0.6925925925925925,0.03179999995231242],[-0.3021875,0.6520370370370371,0.052699999988078616],[-0.32125,0.6412962962962963,0.07000000000000028],[-0.3216666666666666,0.6014814814814814,0.08800000000000097],[-0.3216666666666666,0.6014814814814814,0.09850000000000136],[-0.33322916666666663,0.590925925925926,0.11519999998807862],[-0.37166666666666665,0.6092592592592593,0.1361999999880794],[-0.37166666666666665,0.6092592592592593,0.1483999999761565],[-0.35614583333333333,0.5879629629629629,0.16519999998807577],[-0.3415625,0.5501851851851852,0.18379999995231344],[-0.3142708333333334,0.4883333333333334,0.20059999996423983],[-0.2869791666666667,0.4264814814814814,0.2190000000000012],[-0.24604166666666671,0.37240740740740746,0.23679999995231782],[-0.21156250000000001,0.3485185185185186,0.25279999995231606],[-0.21937500000000001,0.33907407407407414,0.27199999999999847],[-0.21937500000000001,0.33907407407407414,0.2817999999523124],[-0.24552083333333338,0.3757407407407407,0.2983999999761551],[-0.24552083333333338,0.3757407407407407,0.31519999998808146],[-0.22427083333333328,0.33537037037037043,0.3317999999523167],[-0.22427083333333328,0.33537037037037043,0.34850000000000136],[-0.22854166666666664,0.3229629629629629,0.3650999999642366],[-0.24093749999999994,0.28111111111111103,0.38400000000000034],[-0.22458333333333336,0.22777777777777777,0.40039999997615894],[-0.22458333333333336,0.22777777777777777,0.4151999999880758],[-0.23250000000000004,0.1962962962962963,0.4316999999880764],[-0.23250000000000004,0.1962962962962963,0.4485000000000028],[-0.24427083333333333,0.1411111111111112,0.46519999998808004],[-0.22291666666666668,0.1270370370370371,0.48919999998808095],[-0.22291666666666668,0.1270370370370371,0.4983999999761579],[-0.2484375,0.12759259259259256,0.5150999999642352],[-0.2296875,0.0668518518518519,0.5358999999761593],[-0.20020833333333338,-0.00722222222222218,0.5550999999642343],[-0.20020833333333338,-0.00722222222222218,0.5650999999642394],[-0.203125,-0.002962962962963005,0.5817999999523167],[-0.15958333333333338,-0.0514814814814814,0.6032999999523128],[-0.15958333333333338,-0.0514814814814814,0.6150999999642366],[-0.11364583333333336,-0.09000000000000004,0.6318999999761559],[-0.07166666666666661,-0.09796296296296292,0.6501999999880752],[-0.029375000000000047,-0.11592592592592597,0.6664999999999992],[0.016770833333333356,-0.11018518518518519,0.6829999999999998],[0.04364583333333331,-0.1111111111111111,0.7032999999523142],[0.11739583333333338,-0.12666666666666662,0.7190999999642358],[0.15499999999999994,-0.14148148148148143,0.7370999999642365],[0.15499999999999994,-0.14148148148148143,0.7483999999761579],[0.1818749999999999,-0.14296296296296293,0.7650999999642352],[0.2209374999999999,-0.19018518518518515,0.7822999999523148],[0.22468750000000004,-0.22333333333333338,0.798299999952313],[0.23916666666666658,-0.2492592592592593,0.8152999999523161],[0.22979166666666656,-0.2777777777777778,0.8397999999523122],[0.22979166666666656,-0.2777777777777778,0.848599999964236],[0.2504166666666668,-0.30166666666666664,0.8650999999642366],[0.28458333333333335,-0.3338888888888889,0.8879999999999981],[0.28458333333333335,-0.3338888888888889,0.8985999999642331],[0.2804166666666667,-0.3592592592592593,0.9150999999642337],[0.2846874999999999,-0.39240740740740737,0.9397999999523137],[0.2846874999999999,-0.39240740740740737,0.9598999999761588],[0.31447916666666675,-0.39351851851851855,0.9769999999999968],[0.31447916666666675,-0.39351851851851855,0.9840000000000018],[0.3451041666666666,-0.41648148148148145,0.9983999999761579],[0.3723958333333333,-0.41092592592592586,1.0150999999642352],[0.39854166666666657,-0.4209259259259259,1.0317999999523124],[0.39854166666666657,-0.4209259259259259,1.048399999976155],[0.4196875000000001,-0.41870370370370374,1.0651999999880815],[0.4515625,-0.4353703703703704,1.081699999988075],[0.43739583333333343,-0.44296296296296295,1.1024999999999991],[0.4096874999999999,-0.44222222222222224,1.117099999964239],[0.4232291666666666,-0.4542592592592593,1.1316999999880792],[0.4283333333333334,-0.45851851851851855,1.1483999999761565],[0.4247916666666666,-0.4742592592592593,1.1650999999642337],[0.43125,-0.45740740740740743,1.1846999999880765],[0.4397916666666667,-0.46037037037037043,1.1985000000000028],[0.43468749999999995,-0.45018518518518524,1.2149999999999963],[0.41645833333333326,-0.4398148148148148,1.2317999999523153],[0.41645833333333326,-0.4398148148148148,1.248399999976158],[0.37958333333333344,-0.4064814814814815,1.2650999999642352],[0.39718749999999997,-0.42185185185185187,1.2816999999880778],[0.42177083333333343,-0.4498148148148148,1.302299999952318],[0.4314583333333334,-0.43074074074074076,1.3172999999523185],[0.42906250000000007,-0.43,1.3318999999761587],[0.4266666666666666,-0.4292592592592593,1.3496999999880757],[0.4279166666666666,-0.4468518518518519,1.3650999999642366],[0.37437500000000007,-0.44111111111111106,1.384799999952314],[0.36697916666666663,-0.42537037037037034,1.39969999998808],[0.3727083333333333,-0.40981481481481485,1.4150999999642337],[0.4258333333333333,-0.41444444444444445,1.431799999952318],[0.4258333333333333,-0.41444444444444445,1.4483999999761608],[0.4027083333333332,-0.3648148148148148,1.465099999964238],[0.4058333333333332,-0.3483333333333334,1.4817999999523153],[0.3580208333333334,-0.30944444444444447,1.4982999999523159],[0.32229166666666675,-0.2522222222222222,1.519199999988075],[0.26843750000000005,-0.17444444444444443,1.5348999999761546],[0.26843750000000005,-0.17444444444444443,1.548499999999997],[0.2263541666666666,-0.08574074074074076,1.5650999999642394],[0.2303124999999999,-0.029814814814814856,1.5856999999880799],[0.2303124999999999,-0.029814814814814856,1.5983999999761593],[0.2029166666666666,0.018518518518518517,1.615000000000002],[0.1632291666666667,0.06444444444444436,1.6317999999523138],[0.1632291666666667,0.06444444444444436,1.6483999999761565],[0.0655208333333333,0.16925925925925922,1.6651999999880758],[0.003541666666666643,0.20092592592592592,1.6848999999761602],[-0.07718750000000002,0.28166666666666673,1.7005999999642398],[-0.1123958333333333,0.29981481481481476,1.7198999999761568],[-0.1123958333333333,0.29981481481481476,1.7316999999880807],[-0.15208333333333332,0.3362962962962963,1.7485]]","[0.00019999998807662678,0.015199999988077195,0.03179999995231242,0.052699999988078616,0.07000000000000028,0.08800000000000097,0.09850000000000136,0.11519999998807862,0.1361999999880794,0.1483999999761565,0.16519999998807577,0.18379999995231344,0.20059999996423983,0.2190000000000012,0.23679999995231782,0.25279999995231606,0.27199999999999847,0.2817999999523124,0.2983999999761551,0.31519999998808146,0.3317999999523167,0.34850000000000136,0.3650999999642366,0.38400000000000034,0.40039999997615894,0.4151999999880758,0.4316999999880764,0.4485000000000028,0.46519999998808004,0.48919999998808095,0.4983999999761579,0.5150999999642352,0.5358999999761593,0.5550999999642343,0.5650999999642394,0.5817999999523167,0.6032999999523128,0.6150999999642366,0.6318999999761559,0.6501999999880752,0.6664999999999992,0.6829999999999998,0.7032999999523142,0.7190999999642358,0.7370999999642365,0.7483999999761579,0.7650999999642352,0.7822999999523148,0.798299999952313,0.8152999999523161,0.8397999999523122,0.848599999964236,0.8650999999642366,0.8879999999999981,0.8985999999642331,0.9150999999642337,0.9397999999523137,0.9598999999761588,0.9769999999999968,0.9840000000000018,0.9983999999761579,1.0150999999642352,1.0317999999523124,1.048399999976155,1.0651999999880815,1.081699999988075,1.1024999999999991,1.117099999964239,1.1316999999880792,1.1483999999761565,1.1650999999642337,1.1846999999880765,1.1985000000000028,1.2149999999999963,1.2317999999523153,1.248399999976158,1.2650999999642352,1.2816999999880778,1.302299999952318,1.3172999999523185,1.3318999999761587,1.3496999999880757,1.3650999999642366,1.384799999952314,1.39969999998808,1.4150999999642337,1.431799999952318,1.4483999999761608,1.465099999964238,1.4817999999523153,1.4982999999523159,1.519199999988075,1.5348999999761546,1.548499999999997,1.5650999999642394,1.5856999999880799,1.5983999999761593,1.615000000000002,1.6317999999523138,1.6483999999761565,1.6651999999880758,1.6848999999761602,1.7005999999642398,1.7198999999761568,1.7316999999880807,1.7485]","[1732874243278,1732874243292,1732874243309,1732874243329,1732874243347,1732874243365,1732874243375,1732874243392,1732874243413,1732874243425,1732874243442,1732874243461,1732874243477,1732874243496,1732874243514,1732874243530,1732874243549,1732874243559,1732874243575,1732874243592,1732874243609,1732874243625,1732874243642,1732874243661,1732874243677,1732874243692,1732874243709,1732874243725,1732874243742,1732874243766,1732874243775,1732874243792,1732874243813,1732874243832,1732874243842,1732874243859,1732874243880,1732874243892,1732874243909,1732874243927,1732874243943,1732874243960,1732874243980,1732874243996,1732874244014,1732874244025,1732874244042,1732874244059,1732874244075,1732874244092,1732874244117,1732874244125,1732874244142,1732874244165,1732874244175,1732874244192,1732874244217,1732874244237,1732874244254,1732874244261,1732874244275,1732874244292,1732874244309,1732874244325,1732874244342,1732874244359,1732874244379,1732874244394,1732874244409,1732874244425,1732874244442,1732874244461,1732874244475,1732874244492,1732874244509,1732874244525,1732874244542,1732874244558,1732874244579,1732874244594,1732874244609,1732874244626,1732874244642,1732874244662,1732874244677,1732874244692,1732874244708,1732874244725,1732874244742,1732874244758,1732874244775,1732874244796,1732874244812,1732874244825,1732874244842,1732874244863,1732874244875,1732874244892,1732874244909,1732874244925,1732874244942,1732874244962,1732874244977,1732874244997,1732874245008,1732874245025]","[[691.8,922.8],[691.8,922.8],[682.1,914],[669.9,892.1],[651.6,886.3],[651.2,864.8],[651.2,864.8],[640.1,859.1],[603.2,869],[603.2,869],[618.1,857.5],[632.1,837.1],[658.3,803.7],[684.5,770.3],[723.8,741.1],[756.9,728.2],[749.4,723.1],[749.4,723.1],[724.3,742.9],[724.3,742.9],[744.7,721.1],[744.7,721.1],[740.6,714.4],[728.7,691.8],[744.4,663],[744.4,663],[736.8,646],[736.8,646],[725.5,616.2],[746,608.6],[746,608.6],[721.5,608.9],[739.5,576.1],[767.8,536.1],[767.8,536.1],[765,538.4],[806.8,512.2],[806.8,512.2],[850.9,491.4],[891.2,487.1],[931.8,477.4],[976.1,480.5],[1001.9,480],[1072.7,471.6],[1108.8,463.6],[1108.8,463.6],[1134.6,462.8],[1172.1,437.3],[1175.7,419.4],[1189.6,405.4],[1180.6,390],[1180.6,390],[1200.4,377.1],[1233.2,359.7],[1233.2,359.7],[1229.2,346],[1233.3,328.1],[1233.3,328.1],[1261.9,327.5],[1261.9,327.5],[1291.3,315.1],[1317.5,318.1],[1342.6,312.7],[1342.6,312.7],[1362.9,313.9],[1393.5,304.9],[1379.9,300.8],[1353.3,301.2],[1366.3,294.7],[1371.2,292.4],[1367.8,283.9],[1374,293],[1382.2,291.4],[1377.3,296.9],[1359.8,302.5],[1359.8,302.5],[1324.4,320.5],[1341.3,312.2],[1364.9,297.1],[1374.2,307.4],[1371.9,307.8],[1369.6,308.2],[1370.8,298.7],[1319.4,301.8],[1312.3,310.3],[1317.8,318.7],[1368.8,316.2],[1368.8,316.2],[1346.6,343],[1349.6,351.9],[1303.7,372.9],[1269.4,403.8],[1217.7,445.8],[1217.7,445.8],[1177.3,493.7],[1181.1,523.9],[1181.1,523.9],[1154.8,550],[1116.7,574.8],[1116.7,574.8],[1022.9,631.4],[963.4,648.5],[885.9,692.1],[852.1,701.9],[852.1,701.9],[814,721.6]]","[0,0.37864299999999995]","[0.37864299999999995,0.37864299999999995]","[-0.37864299999999995,0]","[-0.37864299999999995,-0.37864299999999995]","[0,0]","[0.37864299999999995,0]","[0,-0.37864299999999995]","[0.37864299999999995,-0.37864299999999995]",0,2,2,2,1,4,Laptop,13,1,15,3
