inst1_resp.keys,inst1_resp.rt,calibrationMouse.x,calibrationMouse.y,calibrationMouse.leftButton,calibrationMouse.midButton,calibrationMouse.rightButton,calibrationClick.x,calibrationClick.y,calibrationClick.leftButton,calibrationClick.midButton,calibrationClick.rightButton,calibrationClick.clicked_name,trialsc.thisRepN,trialsc.thisTrialN,trialsc.thisN,trialsc.thisIndex,trialsc.ran,calibration_x,calibration_y,participant,session,date,expName,psychopyVersion,OS,frameRate,ScreenRes_pixels,Camera_pixels,mouse_2.x,mouse_2.y,mouse_2.leftButton,mouse_2.midButton,mouse_2.rightButton,mouse_2.time,mouse_2.clicked_name,mouse.x,mouse.y,mouse.leftButton,mouse.midButton,mouse.rightButton,mouse.time,mouse.clicked_name,Choice,Trial,TrialDuration,MOUSE_GAZE,ET_GAZE,ET_GAZE_x_T,time,unixTime,ET_GAZE_NF,Loc_Option1_label,Loc_Option2_label,Loc_Cost_label,Loc_Qual_label,Loc_Option1_cost,Loc_Option2_cost,Loc_Option1_quality,Loc_Option2_quality,trials.thisRepN,trials.thisTrialN,trials.thisN,trials.thisIndex,trials.ran,Block,Device,cost1,qual1,cost2,qual2
space,2.4675,-0.096875,0.037037037,1,0,0,-0.320833333,0.325925926,1,0,0,calibration_square,0,0,0,7,1,-0.33,0.33,04,001,2024-11-29_18h58.54.300,Attention_exp_legacy,2023.1.0,Win32,59.88023952,,,,,,,,,,,,,,,,,,,,,,,,,,,,,,,,,,,,,,,,,,,,
,,,,,,,0.002083333,-0.327777778,1,0,0,calibration_square,0,1,1,10,1,0,-0.33,04,001,2024-11-29_18h58.54.300,Attention_exp_legacy,2023.1.0,Win32,59.88023952,,,,,,,,,,,,,,,,,,,,,,,,,,,,,,,,,,,,,,,,,,,,
,,,,,,,0.003125,0.327777778,1,0,0,calibration_square,0,2,2,12,1,0,0.33,04,001,2024-11-29_18h58.54.300,Attention_exp_legacy,2023.1.0,Win32,59.88023952,,,,,,,,,,,,,,,,,,,,,,,,,,,,,,,,,,,,,,,,,,,,
,,,,,,,-0.003125,0.009259259,1,0,0,calibration_square,0,3,3,11,1,0,0,04,001,2024-11-29_18h58.54.300,Attention_exp_legacy,2023.1.0,Win32,59.88023952,,,,,,,,,,,,,,,,,,,,,,,,,,,,,,,,,,,,,,,,,,,,
,,,,,,,0.342708333,-0.318518519,1,0,0,,0,4,4,15,1,0.33,-0.33,04,001,2024-11-29_18h58.54.300,Attention_exp_legacy,2023.1.0,Win32,59.88023952,,,,,,,,,,,,,,,,,,,,,,,,,,,,,,,,,,,,,,,,,,,,
,,,,,,,-0.336458333,0.005555556,1,0,0,calibration_square,0,5,5,6,1,-0.33,0,04,001,2024-11-29_18h58.54.300,Attention_exp_legacy,2023.1.0,Win32,59.88023952,,,,,,,,,,,,,,,,,,,,,,,,,,,,,,,,,,,,,,,,,,,,
,,,,,,,0.334375,-0.675925926,1,0,0,calibration_square,0,6,6,14,1,0.33,-0.67,04,001,2024-11-29_18h58.54.300,Attention_exp_legacy,2023.1.0,Win32,59.88023952,,,,,,,,,,,,,,,,,,,,,,,,,,,,,,,,,,,,,,,,,,,,
,,,,,,,0.320833333,0.696296296,1,0,0,,0,7,7,18,1,0.33,0.67,04,001,2024-11-29_18h58.54.300,Attention_exp_legacy,2023.1.0,Win32,59.88023952,,,,,,,,,,,,,,,,,,,,,,,,,,,,,,,,,,,,,,,,,,,,
,,,,,,,0.676041667,-0.672222222,1,0,0,calibration_square,0,8,8,20,1,0.67,-0.67,04,001,2024-11-29_18h58.54.300,Attention_exp_legacy,2023.1.0,Win32,59.88023952,,,,,,,,,,,,,,,,,,,,,,,,,,,,,,,,,,,,,,,,,,,,
,,,,,,,-0.338541667,0.67037037,1,0,0,calibration_square,0,9,9,8,1,-0.33,0.67,04,001,2024-11-29_18h58.54.300,Attention_exp_legacy,2023.1.0,Win32,59.88023952,,,,,,,,,,,,,,,,,,,,,,,,,,,,,,,,,,,,,,,,,,,,
,,,,,,,0.003125,-0.672222222,1,0,0,calibration_square,0,10,10,9,1,0,-0.67,04,001,2024-11-29_18h58.54.300,Attention_exp_legacy,2023.1.0,Win32,59.88023952,,,,,,,,,,,,,,,,,,,,,,,,,,,,,,,,,,,,,,,,,,,,
,,,,,,,-0.336458333,-0.325925926,1,0,0,calibration_square,0,11,11,5,1,-0.33,-0.33,04,001,2024-11-29_18h58.54.300,Attention_exp_legacy,2023.1.0,Win32,59.88023952,,,,,,,,,,,,,,,,,,,,,,,,,,,,,,,,,,,,,,,,,,,,
,,,,,,,-0.665625,-0.325925926,1,0,0,calibration_square,0,12,12,1,1,-0.67,-0.33,04,001,2024-11-29_18h58.54.300,Attention_exp_legacy,2023.1.0,Win32,59.88023952,,,,,,,,,,,,,,,,,,,,,,,,,,,,,,,,,,,,,,,,,,,,
,,,,,,,0.676041667,0.674074074,1,0,0,calibration_square,0,13,13,19,1,0.67,0.67,04,001,2024-11-29_18h58.54.300,Attention_exp_legacy,2023.1.0,Win32,59.88023952,,,,,,,,,,,,,,,,,,,,,,,,,,,,,,,,,,,,,,,,,,,,
,,,,,,,-0.682291667,0.335185185,1,0,0,,0,14,14,3,1,-0.67,0.33,04,001,2024-11-29_18h58.54.300,Attention_exp_legacy,2023.1.0,Win32,59.88023952,,,,,,,,,,,,,,,,,,,,,,,,,,,,,,,,,,,,,,,,,,,,
,,,,,,,0.335416667,0.324074074,1,0,0,calibration_square,0,15,15,17,1,0.33,0.33,04,001,2024-11-29_18h58.54.300,Attention_exp_legacy,2023.1.0,Win32,59.88023952,,,,,,,,,,,,,,,,,,,,,,,,,,,,,,,,,,,,,,,,,,,,
,,,,,,,-0.684375,-0.653703704,1,0,0,,0,16,16,0,1,-0.67,-0.67,04,001,2024-11-29_18h58.54.300,Attention_exp_legacy,2023.1.0,Win32,59.88023952,,,,,,,,,,,,,,,,,,,,,,,,,,,,,,,,,,,,,,,,,,,,
,,,,,,,-0.00625,0.666666667,1,0,0,calibration_square,0,17,17,13,1,0,0.67,04,001,2024-11-29_18h58.54.300,Attention_exp_legacy,2023.1.0,Win32,59.88023952,,,,,,,,,,,,,,,,,,,,,,,,,,,,,,,,,,,,,,,,,,,,
,,,,,,,0.321875,0,1,0,0,calibration_square,0,18,18,16,1,0.33,0,04,001,2024-11-29_18h58.54.300,Attention_exp_legacy,2023.1.0,Win32,59.88023952,,,,,,,,,,,,,,,,,,,,,,,,,,,,,,,,,,,,,,,,,,,,
,,,,,,,-0.670833333,0.001851852,1,0,0,calibration_square,0,19,19,2,1,-0.67,0,04,001,2024-11-29_18h58.54.300,Attention_exp_legacy,2023.1.0,Win32,59.88023952,,,,,,,,,,,,,,,,,,,,,,,,,,,,,,,,,,,,,,,,,,,,
,,,,,,,-0.321875,-0.662962963,1,0,0,calibration_square,0,20,20,4,1,-0.33,-0.67,04,001,2024-11-29_18h58.54.300,Attention_exp_legacy,2023.1.0,Win32,59.88023952,,,,,,,,,,,,,,,,,,,,,,,,,,,,,,,,,,,,,,,,,,,,
,,,,,,,,,,,,,,,,,,,,04,001,2024-11-29_18h58.54.300,Attention_exp_legacy,2023.1.0,Win32,59.88023952,"[1920,1080]","[640,480]",[0.03333333333333333],[-0.48333333333333334],[1],[0],[0],[1.8396999999880776],"[""StartButton""]",[0.3885416666666667],[0.34074074074074073],[1],[0],[0],[3.9551000000238403],"[""Option2_label""]",Option2_label,1,4.9787,"[[0.0125,-0.4962962962962963],[0.0125,-0.4962962962962963],[0.0125,-0.4962962962962963],[0.0125,-0.4962962962962963],[0.0125,-0.4962962962962963],[0.0125,-0.4962962962962963],[0.0125,-0.4962962962962963],[0.0125,-0.4962962962962963],[0.0125,-0.4962962962962963],[0.0125,-0.4962962962962963],[0.0125,-0.4962962962962963],[0.0125,-0.4962962962962963],[0.0125,-0.4962962962962963],[0.0125,-0.4962962962962963],[0.0125,-0.4962962962962963],[0.0125,-0.4962962962962963],[0.0125,-0.4962962962962963],[0.0125,-0.4962962962962963],[0.0125,-0.4962962962962963],[0.0125,-0.4962962962962963],[0.0125,-0.4962962962962963],[0.0125,-0.4962962962962963],[0.0125,-0.4962962962962963],[0.0125,-0.4962962962962963],[0.0125,-0.4962962962962963],[0.0125,-0.4962962962962963],[0.0125,-0.4962962962962963],[0.0125,-0.4962962962962963],[0.0125,-0.4962962962962963],[0.0125,-0.4962962962962963],[0.0125,-0.4962962962962963],[0.0125,-0.4962962962962963],[0.0125,-0.4962962962962963],[0.0125,-0.4962962962962963],[0.0125,-0.4962962962962963],[0.0125,-0.4962962962962963],[0.0125,-0.4962962962962963],[0.0125,-0.4962962962962963],[0.0125,-0.4962962962962963],[0.0125,-0.4962962962962963],[0.0125,-0.4962962962962963],[0.0125,-0.4962962962962963],[0.0125,-0.4962962962962963],[0.0125,-0.4962962962962963],[0.0125,-0.4962962962962963],[0.0125,-0.4962962962962963],[0.0125,-0.4962962962962963],[0.0125,-0.4962962962962963],[0.0125,-0.4962962962962963],[0.0125,-0.4962962962962963],[0.0125,-0.4962962962962963],[0.0125,-0.4962962962962963],[0.0125,-0.4962962962962963],[0.0125,-0.4962962962962963],[0.0125,-0.4962962962962963],[0.0125,-0.4962962962962963],[0.0125,-0.4962962962962963],[0.0125,-0.4962962962962963],[0.0125,-0.4962962962962963],[0.0125,-0.4962962962962963],[0.0125,-0.4962962962962963],[0.0125,-0.4962962962962963],[0.0125,-0.4962962962962963],[0.0125,-0.4962962962962963],[0.0125,-0.4962962962962963],[0.0125,-0.4962962962962963],[0.0125,-0.4962962962962963],[0.0125,-0.4962962962962963],[0.0125,-0.4962962962962963],[0.0125,-0.4962962962962963],[0.0125,-0.4962962962962963],[0.0125,-0.4962962962962963],[0.0125,-0.4962962962962963],[0.0125,-0.4962962962962963],[0.0125,-0.4962962962962963],[0.0125,-0.4962962962962963],[0.0125,-0.4962962962962963],[0.0125,-0.4962962962962963],[0.0125,-0.4962962962962963],[0.0125,-0.4962962962962963],[0.0125,-0.4962962962962963],[0.0125,-0.4962962962962963],[0.0125,-0.4962962962962963],[0.0125,-0.4962962962962963],[0.0125,-0.4962962962962963],[0.0125,-0.4962962962962963],[0.0125,-0.4962962962962963],[0.0125,-0.4962962962962963],[0.0125,-0.4962962962962963],[0.0125,-0.4962962962962963],[0.0125,-0.4962962962962963],[0.0125,-0.4962962962962963],[0.0125,-0.4962962962962963],[0.0125,-0.4962962962962963],[0.0125,-0.4962962962962963],[0.0125,-0.4962962962962963],[0.0125,-0.4962962962962963],[0.0125,-0.4962962962962963],[0.0125,-0.4962962962962963],[0.0125,-0.4962962962962963],[0.0125,-0.4962962962962963],[0.0125,-0.4962962962962963],[0.0125,-0.4962962962962963],[0.0125,-0.4962962962962963],[0.0125,-0.4962962962962963],[0.0125,-0.4962962962962963],[0.0125,-0.4962962962962963],[0.0125,-0.4962962962962963],[0.0125,-0.4962962962962963],[0.0125,-0.4962962962962963],[0.0125,-0.4962962962962963],[0.0125,-0.4962962962962963],[0.0125,-0.4962962962962963],[0.0125,-0.4962962962962963],[0.0125,-0.4962962962962963],[0.0125,-0.4962962962962963],[0.0125,-0.4962962962962963],[0.0125,-0.4962962962962963],[0.0125,-0.4962962962962963],[0.0125,-0.4962962962962963],[0.0125,-0.4962962962962963],[0.0125,-0.4962962962962963],[0.0125,-0.4962962962962963],[0.0125,-0.4962962962962963],[0.0125,-0.4962962962962963],[0.0125,-0.4962962962962963],[0.0125,-0.4962962962962963],[0.0125,-0.4962962962962963],[0.0125,-0.4962962962962963],[0.0125,-0.4962962962962963],[0.0125,-0.4962962962962963],[0.0125,-0.4962962962962963],[0.0125,-0.4962962962962963],[0.0125,-0.4962962962962963],[0.0125,-0.4962962962962963],[0.0125,-0.4962962962962963],[0.0125,-0.4962962962962963],[0.0125,-0.4962962962962963],[0.0125,-0.4962962962962963],[0.0125,-0.4962962962962963],[0.0125,-0.4962962962962963],[0.0125,-0.4962962962962963],[0.0125,-0.4962962962962963],[0.0125,-0.4962962962962963],[0.0125,-0.4962962962962963],[0.0125,-0.4962962962962963],[0.0125,-0.4962962962962963],[0.0125,-0.4962962962962963],[0.0125,-0.4962962962962963],[0.0125,-0.4962962962962963],[0.0125,-0.4962962962962963],[0.0125,-0.4962962962962963],[0.0125,-0.4962962962962963],[0.0125,-0.4962962962962963],[0.0125,-0.4962962962962963],[0.0125,-0.4962962962962963],[0.0125,-0.4962962962962963],[0.0125,-0.4962962962962963],[0.0125,-0.4962962962962963],[0.0125,-0.4962962962962963],[0.0125,-0.4962962962962963],[0.0125,-0.4962962962962963],[0.0125,-0.4962962962962963],[0.0125,-0.4962962962962963],[0.0125,-0.4962962962962963],[0.0125,-0.4962962962962963],[0.0125,-0.4962962962962963],[0.0125,-0.4962962962962963],[0.0125,-0.4962962962962963],[0.0125,-0.4962962962962963],[0.0125,-0.4962962962962963],[0.0125,-0.4962962962962963],[0.0125,-0.4962962962962963],[0.0125,-0.4962962962962963],[0.0125,-0.4962962962962963],[0.0125,-0.4962962962962963],[0.0125,-0.4962962962962963],[0.0125,-0.4962962962962963],[0.0125,-0.4962962962962963],[0.0125,-0.4962962962962963],[0.0125,-0.4962962962962963],[0.0125,-0.4962962962962963],[0.0125,-0.4962962962962963],[0.0125,-0.4962962962962963],[0.0125,-0.4962962962962963],[0.0125,-0.4962962962962963],[0.0125,-0.4962962962962963],[0.0125,-0.4962962962962963],[0.0125,-0.4962962962962963],[0.0125,-0.4962962962962963],[0.0125,-0.4962962962962963],[0.0125,-0.4962962962962963],[0.0125,-0.4962962962962963],[0.0125,-0.4962962962962963],[0.0125,-0.4962962962962963],[0.0125,-0.4962962962962963],[0.0125,-0.4962962962962963],[0.0125,-0.4962962962962963],[0.0125,-0.4962962962962963],[0.0125,-0.4962962962962963],[0.0125,-0.4962962962962963],[0.00625,-0.4962962962962963],[0.004166666666666667,-0.4981481481481482],[-0.0010416666666666667,-0.5],[-0.0020833333333333333,-0.5],[-0.005208333333333333,-0.5018518518518519],[-0.005208333333333333,-0.5018518518518519],[-0.005208333333333333,-0.5018518518518519],[-0.005208333333333333,-0.5018518518518519],[0.04791666666666667,-0.48703703703703705],[0.08541666666666667,-0.48148148148148145],[0.14166666666666666,-0.45740740740740743],[0.19791666666666666,-0.42777777777777776],[0.27291666666666664,-0.37037037037037035],[0.328125,-0.3111111111111111],[0.3885416666666667,-0.2537037037037037],[0.4479166666666667,-0.1574074074074074],[0.49166666666666664,-0.037037037037037035],[0.50625,0.012962962962962963],[0.5145833333333333,0.053703703703703705],[0.5145833333333333,0.08518518518518518],[0.509375,0.12037037037037036],[0.490625,0.17407407407407408],[0.4791666666666667,0.20555555555555555],[0.46875,0.23148148148148148],[0.45729166666666665,0.25555555555555554],[0.44166666666666665,0.2814814814814815],[0.425,0.30185185185185187],[0.4083333333333333,0.32037037037037036],[0.3927083333333333,0.3351851851851852],[0.38958333333333334,0.34074074074074073],[0.3885416666666667,0.34074074074074073],[0.3885416666666667,0.34074074074074073],[0.3885416666666667,0.34074074074074073],[0.3885416666666667,0.34074074074074073],[0.3885416666666667,0.34074074074074073],[0.3885416666666667,0.34074074074074073],[0.3885416666666667,0.34074074074074073],[0.3885416666666667,0.34074074074074073],[0.3885416666666667,0.34074074074074073],[0.3885416666666667,0.34074074074074073],[0.3885416666666667,0.34074074074074073],[0.3885416666666667,0.34074074074074073],[0.3885416666666667,0.34074074074074073],[0.3885416666666667,0.34074074074074073],[0.3885416666666667,0.34074074074074073],[0.3885416666666667,0.34074074074074073],[0.3885416666666667,0.34074074074074073],[0.3885416666666667,0.34074074074074073],[0.3885416666666667,0.34074074074074073],[0.3885416666666667,0.34074074074074073],[0.3885416666666667,0.34074074074074073],[0.3885416666666667,0.34074074074074073],[0.3885416666666667,0.34074074074074073],[0.3885416666666667,0.34074074074074073],[0.3885416666666667,0.34074074074074073],[0.3885416666666667,0.34074074074074073],[0.3885416666666667,0.34074074074074073],[0.3885416666666667,0.34074074074074073],[0.3885416666666667,0.34074074074074073],[0.3885416666666667,0.34074074074074073],[0.3885416666666667,0.34074074074074073],[0.3885416666666667,0.34074074074074073],[0.3885416666666667,0.34074074074074073],[0.3885416666666667,0.3388888888888889],[0.3885416666666667,0.3388888888888889],[0.3885416666666667,0.3351851851851852],[0.3875,0.3333333333333333],[0.3875,0.3333333333333333],[0.38645833333333335,0.3314814814814815],[0.38645833333333335,0.3314814814814815],[0.38645833333333335,0.3296296296296296],[0.38645833333333335,0.3296296296296296],[0.38645833333333335,0.3277777777777778],[0.38645833333333335,0.32592592592592595],[0.3854166666666667,0.32407407407407407],[0.3854166666666667,0.32407407407407407],[0.384375,0.32222222222222224],[0.384375,0.32222222222222224],[0.384375,0.32037037037037036],[0.384375,0.32037037037037036],[0.38333333333333336,0.31851851851851853],[0.38333333333333336,0.31666666666666665],[0.38333333333333336,0.31666666666666665],[0.38333333333333336,0.31666666666666665],[0.38333333333333336,0.31666666666666665],[0.38333333333333336,0.31666666666666665],[0.38333333333333336,0.31666666666666665],[0.38333333333333336,0.31666666666666665],[0.38333333333333336,0.31666666666666665],[0.38333333333333336,0.31666666666666665],[0.38333333333333336,0.31666666666666665],[0.38333333333333336,0.31666666666666665],[0.38333333333333336,0.31666666666666665],[0.38333333333333336,0.31666666666666665],[0.38333333333333336,0.31666666666666665],[0.38333333333333336,0.31666666666666665],[0.38333333333333336,0.31666666666666665]]","[[-0.2061458333333333,0.017407407407407365],[-0.2061458333333333,0.017407407407407365],[-0.17999999999999997,0.03166666666666671],[-0.17999999999999997,0.03166666666666671],[-0.17093750000000002,-0.001851851851851852],[-0.17093750000000002,-0.001851851851851852],[-0.17229166666666665,-0.031111111111111027],[-0.17229166666666665,-0.031111111111111027],[-0.1420833333333333,-0.07592592592592592],[-0.1420833333333333,-0.07592592592592592],[-0.12281249999999998,-0.08574074074074076],[-0.12281249999999998,-0.08574074074074076],[-0.11395833333333331,-0.08851851851851854],[-0.11395833333333331,-0.08851851851851854],[-0.11395833333333331,-0.08851851851851854],[-0.10729166666666666,-0.08462962962962961],[-0.10729166666666666,-0.08462962962962961],[-0.10729166666666666,-0.08462962962962961],[-0.10729166666666666,-0.08462962962962961],[-0.09593750000000002,-0.11314814814814819],[-0.09593750000000002,-0.11314814814814819],[-0.08854166666666667,-0.1316666666666667],[-0.08854166666666667,-0.1316666666666667],[-0.08854166666666667,-0.1316666666666667],[-0.08854166666666667,-0.1316666666666667],[-0.0703125,-0.13870370370370366],[-0.0703125,-0.13870370370370366],[-0.05635416666666669,-0.16666666666666666],[-0.05635416666666669,-0.16666666666666666],[-0.03968750000000002,-0.147037037037037],[-0.03968750000000002,-0.147037037037037],[-0.024895833333333308,-0.12888888888888894],[-0.024895833333333308,-0.12888888888888894],[-0.03229166666666667,-0.07370370370370373],[-0.03229166666666667,-0.07370370370370373],[-0.052083333333333336,-0.0883333333333333],[-0.052083333333333336,-0.0883333333333333],[-0.052083333333333336,-0.0883333333333333],[-0.052083333333333336,-0.0883333333333333],[-0.0780208333333333,-0.07000000000000002],[-0.0780208333333333,-0.07000000000000002],[-0.09500000000000004,-0.07611111111111116],[-0.09500000000000004,-0.07611111111111116],[-0.12479166666666662,-0.036666666666666584],[-0.12479166666666662,-0.036666666666666584],[-0.1454166666666667,-0.0025925925925925505],[-0.1454166666666667,-0.0025925925925925505],[-0.1515625,-0.005555555555555556],[-0.1515625,-0.005555555555555556],[-0.13968750000000002,0.022222222222222223],[-0.13968750000000002,0.022222222222222223],[-0.1352083333333333,0.0035185185185184764],[-0.1352083333333333,0.0035185185185184764],[-0.11625000000000002,0.014814814814814815],[-0.11625000000000002,0.014814814814814815],[-0.11218750000000005,-0.018703703703703747],[-0.11218750000000005,-0.018703703703703747],[-0.0734375,-0.02962962962962963],[-0.0734375,-0.02962962962962963],[-0.03875000000000005,-0.023148148148148147],[-0.03875000000000005,-0.023148148148148147],[-0.03875000000000005,-0.023148148148148147],[-0.03875000000000005,-0.023148148148148147],[0.009062500000000048,0.011111111111111112],[0.009062500000000048,0.011111111111111112],[0.07791666666666662,0.008888888888888804],[0.07791666666666662,0.008888888888888804],[0.07791666666666662,0.008888888888888804],[0.07791666666666662,0.008888888888888804],[0.1258333333333333,-0.0007407407407406986],[0.1258333333333333,-0.0007407407407406986],[0.1258333333333333,-0.0007407407407406986],[0.16906249999999995,-0.007037037037036953],[0.16906249999999995,-0.007037037037036953],[0.1834374999999999,-0.01777777777777782],[0.1834374999999999,-0.01777777777777782],[0.20541666666666672,0.0022222222222223064],[0.20541666666666672,0.0022222222222223064],[0.22239583333333332,-0.003888888888888931],[0.22239583333333332,-0.003888888888888931],[0.22239583333333332,-0.003888888888888931],[0.2542708333333332,-0.007962962962962878],[0.2542708333333332,-0.007962962962962878],[0.27458333333333323,0.016851851851851896],[0.27458333333333323,0.016851851851851896],[0.31302083333333336,0.021481481481481525],[0.31302083333333336,0.021481481481481525],[0.31302083333333336,0.021481481481481525],[0.31302083333333336,0.021481481481481525],[0.31916666666666677,0.016851851851851896],[0.31916666666666677,0.016851851851851896],[0.3226041666666667,-0.006111111111111027],[0.3226041666666667,-0.006111111111111027],[0.3319791666666667,-0.03462962962962971],[0.3319791666666667,-0.03462962962962971],[0.3228125000000001,-0.034074074074074034],[0.3228125000000001,-0.034074074074074034],[0.32531249999999995,-0.04740740740740745],[0.32531249999999995,-0.04740740740740745],[0.32531249999999995,-0.04740740740740745],[0.32531249999999995,-0.04740740740740745],[0.3288541666666667,-0.049074074074074076],[0.3288541666666667,-0.049074074074074076],[0.3311458333333334,-0.04537037037037037],[0.3311458333333334,-0.04537037037037037],[0.3311458333333334,-0.04537037037037037],[0.3304166666666667,-0.025],[0.3304166666666667,-0.025],[0.32093749999999993,-0.021481481481481525],[0.32093749999999993,-0.021481481481481525],[0.30520833333333336,-0.014629629629629588],[0.30520833333333336,-0.014629629629629588],[0.2828125,-0.025185185185185227],[0.2828125,-0.025185185185185227],[0.2540625000000001,-0.009629629629629714],[0.2540625000000001,-0.009629629629629714],[0.2195833333333333,0.024074074074074074],[0.2195833333333333,0.024074074074074074],[0.2009375000000001,0.029259259259259176],[0.2009375000000001,0.029259259259259176],[0.16843750000000005,0.047037037037036995],[0.16843750000000005,0.047037037037036995],[0.1474999999999999,0.06703703703703712],[0.1474999999999999,0.06703703703703712],[0.1178124999999999,0.05481481481481486],[0.1178124999999999,0.05481481481481486],[0.084375,0.018703703703703747],[0.084375,0.018703703703703747],[0.084375,0.018703703703703747],[0.084375,0.018703703703703747],[0.07270833333333329,0.017592592592592594],[0.07270833333333329,0.017592592592592594],[0.006666666666666643,0.004629629629629629],[0.006666666666666643,0.004629629629629629],[0.006666666666666643,0.004629629629629629],[-0.02687499999999995,0.007962962962962878],[-0.02687499999999995,0.007962962962962878],[-0.06364583333333336,0.010185185185185186],[-0.06364583333333336,0.010185185185185186],[-0.11156250000000002,-0.027222222222222307],[-0.11156250000000002,-0.027222222222222307],[-0.15072916666666672,-0.04518518518518514],[-0.15072916666666672,-0.04518518518518514],[-0.17458333333333337,-0.06518518518518517],[-0.17458333333333337,-0.06518518518518517],[-0.2352083333333333,-0.11314814814814819],[-0.2352083333333333,-0.11314814814814819],[-0.2586458333333333,-0.10722222222222218],[-0.2586458333333333,-0.10722222222222218],[-0.268125,-0.09055555555555551],[-0.268125,-0.09055555555555551],[-0.268125,-0.09055555555555551],[-0.268125,-0.09055555555555551],[-0.2856250000000001,-0.11259259259259262],[-0.2856250000000001,-0.11259259259259262],[-0.25718749999999996,-0.12907407407407406],[-0.25718749999999996,-0.12907407407407406],[-0.25718749999999996,-0.12907407407407406],[-0.25427083333333333,-0.12481481481481477],[-0.25427083333333333,-0.12481481481481477],[-0.24864583333333337,-0.0735185185185185],[-0.24864583333333337,-0.0735185185185185],[-0.20718749999999997,-0.0011111111111111532],[-0.20718749999999997,-0.0011111111111111532],[-0.1265625,0.18000000000000008],[-0.1265625,0.18000000000000008],[-0.07010416666666662,0.3677777777777778],[-0.07010416666666662,0.3677777777777778],[0.021979166666666692,0.5698148148148149],[0.021979166666666692,0.5698148148148149],[0.09385416666666657,0.7605555555555557],[0.09385416666666657,0.7605555555555557],[0.13333333333333333,0.9375925925925925],[0.13333333333333333,0.9375925925925925],[0.16708333333333342,1.0425925925925925],[0.16708333333333342,1.0425925925925925],[0.1814583333333334,1.137962962962963],[0.1814583333333334,1.137962962962963],[0.20145833333333343,1.1951851851851854],[0.20145833333333343,1.1951851851851854],[0.22406249999999991,1.1792592592592592],[0.22406249999999991,1.1792592592592592],[0.24927083333333327,1.1633333333333333],[0.24927083333333327,1.1633333333333333],[0.20458333333333342,1.0105555555555557],[0.20458333333333342,1.0105555555555557],[0.1790625000000001,0.8444444444444444],[0.1790625000000001,0.8444444444444444],[0.14552083333333338,0.6907407407407408],[0.14552083333333338,0.6907407407407408],[0.10718750000000009,0.534074074074074],[0.10718750000000009,0.534074074074074],[0.07854166666666676,0.40259259259259256],[0.07854166666666676,0.40259259259259256],[0.07854166666666676,0.40259259259259256],[0.051770833333333384,0.33851851851851844],[0.051770833333333384,0.33851851851851844],[0.04479166666666667,0.2833333333333333],[0.04479166666666667,0.2833333333333333],[0.04479166666666667,0.2833333333333333],[0.04479166666666667,0.2833333333333333],[0.041562499999999974,0.24722222222222223],[0.041562499999999974,0.24722222222222223],[0.03229166666666667,0.2544444444444444],[0.03229166666666667,0.2544444444444444],[0.009062500000000048,0.26796296296296307],[0.009062500000000048,0.26796296296296307],[0.011874999999999976,0.30481481481481487],[0.011874999999999976,0.30481481481481487],[0.00791666666666669,0.34629629629629627],[0.00791666666666669,0.34629629629629627],[0.016562499999999977,0.3755555555555555],[0.013437499999999976,0.3762962962962964],[0.022812499999999975,0.3761111111111112],[0.042916666666666714,0.3881481481481482],[0.059687499999999956,0.4072222222222222],[0.0875,0.4046296296296296],[0.0875,0.4046296296296296],[0.13666666666666671,0.37759259259259254],[0.18822916666666673,0.3712962962962963],[0.2211458333333333,0.3338888888888888],[0.26281249999999995,0.28666666666666657],[0.2765625,0.2564814814814815],[0.29927083333333326,0.2412962962962962],[0.31843750000000004,0.2007407407407407],[0.33125,0.18777777777777774],[0.34354166666666663,0.1675925925925926],[0.34354166666666663,0.1675925925925926],[0.35947916666666657,0.13351851851851856],[0.3580208333333334,0.10777777777777786],[0.3580208333333334,0.07740740740740733],[0.3580208333333334,0.07740740740740733],[0.36260416666666656,0.032037037037036954],[0.3637500000000001,-0.005000000000000084],[0.3637500000000001,-0.005000000000000084],[0.3728125000000001,-0.07518518518518523],[0.36708333333333343,-0.11537037037037039],[0.3648958333333333,-0.1301851851851852],[0.36208333333333326,-0.2088888888888889],[0.35927083333333343,-0.2875925925925926],[0.3571875000000001,-0.3020370370370371],[0.35208333333333336,-0.3022222222222222],[0.33739583333333345,-0.3296296296296296],[0.33145833333333335,-0.30648148148148147],[0.321875,-0.2972222222222222],[0.3330208333333334,-0.26351851851851854],[0.3679166666666667,-0.2577777777777778],[0.4028125000000001,-0.25203703703703706],[0.4179166666666667,-0.18981481481481483],[0.43302083333333335,-0.12759259259259256],[0.45302083333333343,-0.13759259259259263],[0.4517708333333334,-0.11407407407407412],[0.4657291666666666,-0.08796296296296297],[0.43718750000000006,-0.07962962962962963],[0.43718750000000006,-0.07962962962962963],[0.41375000000000006,-0.060555555555555536],[0.38166666666666677,-0.04944444444444453],[0.340625,-0.040370370370370286],[0.340625,-0.040370370370370286],[0.32000000000000006,-0.02907407407407416],[0.32270833333333326,-0.03092592592592601],[0.32541666666666674,-0.032777777777777864],[0.2977083333333333,-0.024074074074074074],[0.2977083333333333,-0.024074074074074074],[0.28781249999999997,-0.04666666666666675],[0.2841666666666666,-0.058333333333333334],[0.3471874999999999,0.10018518518518522],[0.43156249999999996,0.2564814814814815],[0.4586458333333333,0.2572222222222222],[0.4857291666666666,0.2579629629629629],[0.4804166666666667,0.21425925925925934],[0.46687500000000004,0.15981481481481474],[0.4435416666666666,0.13851851851851843],[0.43302083333333335,0.14888888888888885],[0.421875,0.1638888888888889],[0.39718749999999997,0.17888888888888893],[0.35208333333333336,-0.0020370370370370794],[0.3007291666666667,-0.192037037037037],[0.2881249999999999,-0.2161111111111111],[0.27843749999999995,-0.2337037037037037],[0.28406250000000005,-0.21722222222222223],[0.28968749999999993,-0.2007407407407407],[0.3051041666666668,-0.1977777777777778],[0.32052083333333337,-0.1948148148148148],[0.33312499999999995,-0.23944444444444446],[0.34572916666666675,-0.28407407407407403],[0.3398958333333333,-0.29870370370370375],[0.33260416666666665,-0.2922222222222222],[0.3263541666666666,-0.2942592592592592],[0.31010416666666674,-0.26777777777777784],[0.30802083333333335,-0.277962962962963],[0.30614583333333345,-0.28648148148148145],[0.28250000000000003,-0.3133333333333333],[0.25885416666666666,-0.34018518518518515],[0.2709374999999999,-0.33907407407407414],[0.29500000000000004,-0.33555555555555555],[0.31791666666666674,-0.35537037037037034],[0.30416666666666664,-0.3381481481481482]]","[[-0.2061458333333333,0.017407407407407365,0.00030000001192576065],[-0.2061458333333333,0.017407407407407365,0.04100000000000392],[-0.17999999999999997,0.03166666666666671,0.06409999996424176],[-0.17999999999999997,0.03166666666666671,0.07050000000000267],[-0.17093750000000002,-0.001851851851851852,0.09619999998808026],[-0.17093750000000002,-0.001851851851851852,0.10549999999999926],[-0.17229166666666665,-0.031111111111111027,0.13069999998808157],[-0.17229166666666665,-0.031111111111111027,0.1378999999761632],[-0.1420833333333333,-0.07592592592592592,0.16389999997615945],[-0.1420833333333333,-0.07592592592592592,0.17030000001192036],[-0.12281249999999998,-0.08574074074074076,0.19609999996423966],[-0.12281249999999998,-0.08574074074074076,0.20369999998808197],[-0.11395833333333331,-0.08851851851851854,0.2313000000119203],[-0.11395833333333331,-0.08851851851851854,0.24150000000000205],[-0.11395833333333331,-0.08851851851851854,0.24859999996424165],[-0.10729166666666666,-0.08462962962962961,0.28189999997616155],[-0.10729166666666666,-0.08462962962962961,0.28959999996423846],[-0.10729166666666666,-0.08462962962962961,0.29539999997616206],[-0.10729166666666666,-0.08462962962962961,0.3136999999880814],[-0.09593750000000002,-0.11314814814814819,0.3470999999642359],[-0.09593750000000002,-0.11314814814814819,0.3545000000000016],[-0.08854166666666667,-0.1316666666666667,0.3813999999761606],[-0.08854166666666667,-0.1316666666666667,0.3903999999761609],[-0.08854166666666667,-0.1316666666666667,0.3953999999761635],[-0.08854166666666667,-0.1316666666666667,0.4130000000000038],[-0.0703125,-0.13870370370370366,0.44909999996423977],[-0.0703125,-0.13870370370370366,0.4573999999761611],[-0.05635416666666669,-0.16666666666666666,0.48049999999999926],[-0.05635416666666669,-0.16666666666666666,0.4876999999880809],[-0.03968750000000002,-0.147037037037037,0.5153999999761609],[-0.03968750000000002,-0.147037037037037,0.5251999999880823],[-0.024895833333333308,-0.12888888888888894,0.5470999999642387],[-0.024895833333333308,-0.12888888888888894,0.5545000000000044],[-0.03229166666666667,-0.07370370370370373,0.5813999999761634],[-0.03229166666666667,-0.07370370370370373,0.5903999999761638],[-0.052083333333333336,-0.0883333333333333,0.6140000000000043],[-0.052083333333333336,-0.0883333333333333,0.6221999999880836],[-0.052083333333333336,-0.0883333333333333,0.6286999999880791],[-0.052083333333333336,-0.0883333333333333,0.6463000000119266],[-0.0780208333333333,-0.07000000000000002,0.6806999999880787],[-0.0780208333333333,-0.07000000000000002,0.6905999999642418],[-0.09500000000000004,-0.07611111111111116,0.7143000000119244],[-0.09500000000000004,-0.07611111111111116,0.7245999999642407],[-0.12479166666666662,-0.036666666666666584,0.7475000000000023],[-0.12479166666666662,-0.036666666666666584,0.7551999999880792],[-0.1454166666666667,-0.0025925925925925505,0.7805999999642381],[-0.1454166666666667,-0.0025925925925925505,0.7885999999642408],[-0.1515625,-0.005555555555555556,0.8126999999880837],[-0.1515625,-0.005555555555555556,0.8210999999642397],[-0.13968750000000002,0.022222222222222223,0.8471999999880779],[-0.13968750000000002,0.022222222222222223,0.855800000011925],[-0.1352083333333333,0.0035185185185184764,0.8793999999761581],[-0.1352083333333333,0.0035185185185184764,0.8873999999761608],[-0.11625000000000002,0.014814814814814815,0.9140000000000015],[-0.11625000000000002,0.014814814814814815,0.9276999999880786],[-0.11218750000000005,-0.018703703703703747,0.9470999999642373],[-0.11218750000000005,-0.018703703703703747,0.9548999999761634],[-0.0734375,-0.02962962962962963,0.9803999999761572],[-0.0734375,-0.02962962962962963,0.9873999999761622],[-0.03875000000000005,-0.023148148148148147,1.014000000000003],[-0.03875000000000005,-0.023148148148148147,1.0216999999880798],[-0.03875000000000005,-0.023148148148148147,1.0288000000119197],[-0.03875000000000005,-0.023148148148148147,1.0463999999761597],[0.009062500000000048,0.011111111111111112,1.0805000000000007],[0.009062500000000048,0.011111111111111112,1.088000000000001],[0.07791666666666662,0.008888888888888804,1.1140000000000043],[0.07791666666666662,0.008888888888888804,1.1225000000000023],[0.07791666666666662,0.008888888888888804,1.1288000000119212],[0.07791666666666662,0.008888888888888804,1.1463999999761612],[0.1258333333333333,-0.0007407407407406986,1.180500000000002],[0.1258333333333333,-0.0007407407407406986,1.1871999999880813],[0.1258333333333333,-0.0007407407407406986,1.1963999999761583],[0.16906249999999995,-0.007037037037036953,1.2310000000000016],[0.16906249999999995,-0.007037037037036953,1.2385999999642365],[0.1834374999999999,-0.01777777777777782,1.2665000000000006],[0.1834374999999999,-0.01777777777777782,1.2740999999642426],[0.20541666666666672,0.0022222222222223064,1.2973000000119228],[0.20541666666666672,0.0022222222222223064,1.3049999999999997],[0.22239583333333332,-0.003888888888888931,1.33159999996424],[0.22239583333333332,-0.003888888888888931,1.3406999999880824],[0.22239583333333332,-0.003888888888888931,1.3455000000000013],[0.2542708333333332,-0.007962962962962878,1.3793999999761581],[0.2542708333333332,-0.007962962962962878,1.3866999999880818],[0.27458333333333323,0.016851851851851896,1.412699999988078],[0.27458333333333323,0.016851851851851896,1.420500000000004],[0.31302083333333336,0.021481481481481525,1.4483000000119262],[0.31302083333333336,0.021481481481481525,1.455899999976161],[0.31302083333333336,0.021481481481481525,1.462099999964238],[0.31302083333333336,0.021481481481481525,1.4795999999642362],[0.31916666666666677,0.016851851851851896,1.5145000000000053],[0.31916666666666677,0.016851851851851896,1.5233999999761636],[0.3226041666666667,-0.006111111111111027,1.5480999999642364],[0.3226041666666667,-0.006111111111111027,1.5551999999880834],[0.3319791666666667,-0.03462962962962971,1.580899999976161],[0.3319791666666667,-0.03462962962962971,1.588000000000001],[0.3228125000000001,-0.034074074074074034,1.6146999999880833],[0.3228125000000001,-0.034074074074074034,1.6228999999761626],[0.32531249999999995,-0.04740740740740745,1.6480999999642378],[0.32531249999999995,-0.04740740740740745,1.6559999999999988],[0.32531249999999995,-0.04740740740740745,1.6620999999642407],[0.32531249999999995,-0.04740740740740745,1.6818000000119255],[0.3288541666666667,-0.049074074074074076,1.712899999976159],[0.3288541666666667,-0.049074074074074076,1.7220000000000013],[0.3311458333333334,-0.04537037037037037,1.7480000000000047],[0.3311458333333334,-0.04537037037037037,1.7568000000119213],[0.3311458333333334,-0.04537037037037037,1.7620999999642422],[0.3304166666666667,-0.025,1.796199999988083],[0.3304166666666667,-0.025,1.8033999999761576],[0.32093749999999993,-0.021481481481481525,1.829500000000003],[0.32093749999999993,-0.021481481481481525,1.8378000000119243],[0.30520833333333336,-0.014629629629629588,1.8653000000119206],[0.30520833333333336,-0.014629629629629588,1.8723000000119256],[0.2828125,-0.025185185185185227,1.8960999999642425],[0.2828125,-0.025185185185185227,1.9031999999880824],[0.2540625000000001,-0.009629629629629714,1.9295000000000044],[0.2540625000000001,-0.009629629629629714,1.9370999999642393],[0.2195833333333333,0.024074074074074074,1.9646999999880776],[0.2195833333333333,0.024074074074074074,1.9715999999642406],[0.2009375000000001,0.029259259259259176,1.9960999999642368],[0.2009375000000001,0.029259259259259176,2.004000000000005],[0.16843750000000005,0.047037037037036995,2.031500000000001],[0.16843750000000005,0.047037037037036995,2.038499999999999],[0.1474999999999999,0.06703703703703712,2.064699999988079],[0.1474999999999999,0.06703703703703712,2.0711999999880817],[0.1178124999999999,0.05481481481481486,2.0978000000119224],[0.1178124999999999,0.05481481481481486,2.104699999988078],[0.084375,0.018703703703703747,2.131599999964237],[0.084375,0.018703703703703747,2.1390999999642375],[0.084375,0.018703703703703747,2.1455000000000055],[0.084375,0.018703703703703747,2.163000000000004],[0.07270833333333329,0.017592592592592594,2.198500000000003],[0.07270833333333329,0.017592592592592594,2.2055000000000007],[0.006666666666666643,0.004629629629629629,2.2325999999642363],[0.006666666666666643,0.004629629629629629,2.2430999999642367],[0.006666666666666643,0.004629629629629629,2.246199999988079],[-0.02687499999999995,0.007962962962962878,2.2813000000119246],[-0.02687499999999995,0.007962962962962878,2.2883000000119225],[-0.06364583333333336,0.010185185185185186,2.3126999999880837],[-0.06364583333333336,0.010185185185185186,2.320899999976163],[-0.11156250000000002,-0.027222222222222307,2.3481999999880827],[-0.11156250000000002,-0.027222222222222307,2.355800000011925],[-0.15072916666666672,-0.04518518518518514,2.380899999976158],[-0.15072916666666672,-0.04518518518518514,2.388599999964242],[-0.17458333333333337,-0.06518518518518517,2.414500000000004],[-0.17458333333333337,-0.06518518518518517,2.4263000000119206],[-0.2352083333333333,-0.11314814814814819,2.448199999988084],[-0.2352083333333333,-0.11314814814814819,2.455899999976161],[-0.2586458333333333,-0.10722222222222218,2.479300000011925],[-0.2586458333333333,-0.10722222222222218,2.486699999988083],[-0.268125,-0.09055555555555551,2.5145000000000053],[-0.268125,-0.09055555555555551,2.523899999976159],[-0.268125,-0.09055555555555551,2.5286999999880777],[-0.268125,-0.09055555555555551,2.546199999988083],[-0.2856250000000001,-0.11259259259259262,2.5810999999642377],[-0.2856250000000001,-0.11259259259259262,2.5883000000119196],[-0.25718749999999996,-0.12907407407407406,2.6165999999642366],[-0.25718749999999996,-0.12907407407407406,2.6260999999642394],[-0.25718749999999996,-0.12907407407407406,2.632599999964242],[-0.25427083333333333,-0.12481481481481477,2.6661999999880805],[-0.25427083333333333,-0.12481481481481477,2.67289999997616],[-0.24864583333333337,-0.0735185185185185,2.6961999999880817],[-0.24864583333333337,-0.0735185185185185,2.705300000011924],[-0.20718749999999997,-0.0011111111111111532,2.7295000000000016],[-0.20718749999999997,-0.0011111111111111532,2.736599999964241],[-0.1265625,0.18000000000000008,2.7628000000119215],[-0.1265625,0.18000000000000008,2.772199999988082],[-0.07010416666666662,0.3677777777777778,2.7983000000119205],[-0.07010416666666662,0.3677777777777778,2.8050999999642414],[0.021979166666666692,0.5698148148148149,2.8325999999642377],[0.021979166666666692,0.5698148148148149,2.8403999999761638],[0.09385416666666657,0.7605555555555557,2.8645999999642413],[0.09385416666666657,0.7605555555555557,2.8721999999880836],[0.13333333333333333,0.9375925925925925,2.8993999999761613],[0.13333333333333333,0.9375925925925925,2.9085999999642382],[0.16708333333333342,1.0425925925925925,2.9316999999880835],[0.16708333333333342,1.0425925925925925,2.9390999999642418],[0.1814583333333334,1.137962962962963,2.963000000000001],[0.1814583333333334,1.137962962962963,2.970699999988078],[0.20145833333333343,1.1951851851851854,2.996099999964237],[0.20145833333333343,1.1951851851851854,3.0033999999761605],[0.22406249999999991,1.1792592592592592,3.030999999999999],[0.22406249999999991,1.1792592592592592,3.038399999976157],[0.24927083333333327,1.1633333333333333,3.0626999999880837],[0.24927083333333327,1.1633333333333333,3.0705000000000027],[0.20458333333333342,1.0105555555555557,3.0960999999642382],[0.20458333333333342,1.0105555555555557,3.104899999976162],[0.1790625000000001,0.8444444444444444,3.130899999976158],[0.1790625000000001,0.8444444444444444,3.1380000000000052],[0.14552083333333338,0.6907407407407408,3.165199999988083],[0.14552083333333338,0.6907407407407408,3.1718000000119204],[0.10718750000000009,0.534074074074074,3.1961999999880817],[0.10718750000000009,0.534074074074074,3.2033999999761633],[0.07854166666666676,0.40259259259259256,3.2295000000000016],[0.07854166666666676,0.40259259259259256,3.240699999988081],[0.07854166666666676,0.40259259259259256,3.2471999999880836],[0.051770833333333384,0.33851851851851844,3.280999999999999],[0.051770833333333384,0.33851851851851844,3.287899999976162],[0.04479166666666667,0.2833333333333333,3.3135000000000048],[0.04479166666666667,0.2833333333333333,3.3238000000119214],[0.04479166666666667,0.2833333333333333,3.328699999988082],[0.04479166666666667,0.2833333333333333,3.346399999976157],[0.041562499999999974,0.24722222222222223,3.3845000000000027],[0.041562499999999974,0.24722222222222223,3.391899999976161],[0.03229166666666667,0.2544444444444444,3.4146999999880805],[0.03229166666666667,0.2544444444444444,3.4231999999880784],[0.009062500000000048,0.26796296296296307,3.45359999996424],[0.009062500000000048,0.26796296296296307,3.4611999999880823],[0.011874999999999976,0.30481481481481487,3.4810999999642362],[0.011874999999999976,0.30481481481481487,3.4886999999880786],[0.00791666666666669,0.34629629629629627,3.521599999964238],[0.00791666666666669,0.34629629629629627,3.5296999999880825],[0.016562499999999977,0.3755555555555555,3.545500000000004],[0.013437499999999976,0.3762962962962964,3.562399999976158],[0.022812499999999975,0.3761111111111112,3.58419999998808],[0.042916666666666714,0.3881481481481482,3.599399999976157],[0.059687499999999956,0.4072222222222222,3.6151999999880786],[0.0875,0.4046296296296296,3.635000000000005],[0.0875,0.4046296296296296,3.645699999988082],[0.13666666666666671,0.37759259259259254,3.6621999999880828],[0.18822916666666673,0.3712962962962963,3.67889999997616],[0.2211458333333333,0.3338888888888888,3.6983999999761608],[0.26281249999999995,0.28666666666666657,3.7148000000119197],[0.2765625,0.2564814814814815,3.7325999999642363],[0.29927083333333326,0.2412962962962962,3.75],[0.31843750000000004,0.2007407407407407,3.7660000000000053],[0.33125,0.18777777777777774,3.78180000001192],[0.34354166666666663,0.1675925925925926,3.8018999999761576],[0.34354166666666663,0.1675925925925926,3.8121999999880813],[0.35947916666666657,0.13351851851851856,3.8290000000000006],[0.3580208333333334,0.10777777777777786,3.8455000000000013],[0.3580208333333334,0.07740740740740733,3.8689999999999998],[0.3580208333333334,0.07740740740740733,3.878899999976163],[0.36260416666666656,0.032037037037036954,3.8953999999761635],[0.3637500000000001,-0.005000000000000084,3.9120999999642407],[0.3637500000000001,-0.005000000000000084,3.9288000000119254],[0.3728125000000001,-0.07518518518518523,3.9453999999761606],[0.36708333333333343,-0.11537037037037039,3.962099999964238],[0.3648958333333333,-0.1301851851851852,3.9786999999880805],[0.36208333333333326,-0.2088888888888889,3.999099999964237],[0.35927083333333343,-0.2875925925925926,4.0148999999761585],[0.3571875000000001,-0.3020370370370371,4.031599999964236],[0.35208333333333336,-0.3022222222222222,4.045599999964239],[0.33739583333333345,-0.3296296296296296,4.062000000000005],[0.33145833333333335,-0.30648148148148147,4.078699999988082],[0.321875,-0.2972222222222222,4.095300000011925],[0.3330208333333334,-0.26351851851851854,4.1120999999642365],[0.3679166666666667,-0.2577777777777778,4.133000000000003],[0.4028125000000001,-0.25203703703703706,4.147899999976161],[0.4179166666666667,-0.18981481481481483,4.163399999976157],[0.43302083333333335,-0.12759259259259256,4.178699999988083],[0.45302083333333343,-0.13759259259259263,4.195599999964237],[0.4517708333333334,-0.11407407407407412,4.214500000000001],[0.4657291666666666,-0.08796296296296297,4.23280000001192],[0.43718750000000006,-0.07962962962962963,4.25],[0.43718750000000006,-0.07962962962962963,4.262199999988084],[0.41375000000000006,-0.060555555555555536,4.278699999988078],[0.38166666666666677,-0.04944444444444453,4.295399999976162],[0.340625,-0.040370370370370286,4.313500000000005],[0.340625,-0.040370370370370286,4.33309999996424],[0.32000000000000006,-0.02907407407407416,4.347999999999999],[0.32270833333333326,-0.03092592592592601,4.3620999999642365],[0.32541666666666674,-0.032777777777777864,4.378800000011921],[0.2977083333333333,-0.024074074074074074,4.3953999999761635],[0.2977083333333333,-0.024074074074074074,4.411999999999999],[0.28781249999999997,-0.04666666666666675,4.4308999999761625],[0.2841666666666666,-0.058333333333333334,4.445399999976161],[0.3471874999999999,0.10018518518518522,4.462300000011922],[0.43156249999999996,0.2564814814814815,4.482599999964236],[0.4586458333333333,0.2572222222222222,4.496800000011923],[0.4857291666666666,0.2579629629629629,4.512300000011926],[0.4804166666666667,0.21425925925925934,4.528699999988078],[0.46687500000000004,0.15981481481481474,4.54939999997616],[0.4435416666666666,0.13851851851851843,4.562699999988084],[0.43302083333333335,0.14888888888888885,4.578899999976159],[0.421875,0.1638888888888889,4.595500000000001],[0.39718749999999997,0.17888888888888893,4.615599999964239],[0.35208333333333336,-0.0020370370370370794,4.631699999988079],[0.3007291666666667,-0.192037037037037,4.6455000000000055],[0.2881249999999999,-0.2161111111111111,4.661999999999999],[0.27843749999999995,-0.2337037037037037,4.682599999964239],[0.28406250000000005,-0.21722222222222223,4.697099999964237],[0.28968749999999993,-0.2007407407407407,4.712399999976164],[0.3051041666666668,-0.1977777777777778,4.728899999976157],[0.32052083333333337,-0.1948148148148148,4.749199999988079],[0.33312499999999995,-0.23944444444444446,4.764699999988082],[0.34572916666666675,-0.28407407407407403,4.778699999988078],[0.3398958333333333,-0.29870370370370375,4.795399999976162],[0.33260416666666665,-0.2922222222222222,4.812300000011923],[0.3263541666666666,-0.2942592592592592,4.831899999976159],[0.31010416666666674,-0.26777777777777784,4.845500000000001],[0.30802083333333335,-0.277962962962963,4.863500000000002],[0.30614583333333345,-0.28648148148148145,4.881800000011921],[0.28250000000000003,-0.3133333333333333,4.897699999988085],[0.25885416666666666,-0.34018518518518515,4.911999999999999],[0.2709374999999999,-0.33907407407407414,4.92889999997616],[0.29500000000000004,-0.33555555555555555,4.945300000011926],[0.31791666666666674,-0.35537037037037034,4.962000000000003],[0.30416666666666664,-0.3381481481481482,4.9786999999880805]]","[0.00030000001192576065,0.04100000000000392,0.06409999996424176,0.07050000000000267,0.09619999998808026,0.10549999999999926,0.13069999998808157,0.1378999999761632,0.16389999997615945,0.17030000001192036,0.19609999996423966,0.20369999998808197,0.2313000000119203,0.24150000000000205,0.24859999996424165,0.28189999997616155,0.28959999996423846,0.29539999997616206,0.3136999999880814,0.3470999999642359,0.3545000000000016,0.3813999999761606,0.3903999999761609,0.3953999999761635,0.4130000000000038,0.44909999996423977,0.4573999999761611,0.48049999999999926,0.4876999999880809,0.5153999999761609,0.5251999999880823,0.5470999999642387,0.5545000000000044,0.5813999999761634,0.5903999999761638,0.6140000000000043,0.6221999999880836,0.6286999999880791,0.6463000000119266,0.6806999999880787,0.6905999999642418,0.7143000000119244,0.7245999999642407,0.7475000000000023,0.7551999999880792,0.7805999999642381,0.7885999999642408,0.8126999999880837,0.8210999999642397,0.8471999999880779,0.855800000011925,0.8793999999761581,0.8873999999761608,0.9140000000000015,0.9276999999880786,0.9470999999642373,0.9548999999761634,0.9803999999761572,0.9873999999761622,1.014000000000003,1.0216999999880798,1.0288000000119197,1.0463999999761597,1.0805000000000007,1.088000000000001,1.1140000000000043,1.1225000000000023,1.1288000000119212,1.1463999999761612,1.180500000000002,1.1871999999880813,1.1963999999761583,1.2310000000000016,1.2385999999642365,1.2665000000000006,1.2740999999642426,1.2973000000119228,1.3049999999999997,1.33159999996424,1.3406999999880824,1.3455000000000013,1.3793999999761581,1.3866999999880818,1.412699999988078,1.420500000000004,1.4483000000119262,1.455899999976161,1.462099999964238,1.4795999999642362,1.5145000000000053,1.5233999999761636,1.5480999999642364,1.5551999999880834,1.580899999976161,1.588000000000001,1.6146999999880833,1.6228999999761626,1.6480999999642378,1.6559999999999988,1.6620999999642407,1.6818000000119255,1.712899999976159,1.7220000000000013,1.7480000000000047,1.7568000000119213,1.7620999999642422,1.796199999988083,1.8033999999761576,1.829500000000003,1.8378000000119243,1.8653000000119206,1.8723000000119256,1.8960999999642425,1.9031999999880824,1.9295000000000044,1.9370999999642393,1.9646999999880776,1.9715999999642406,1.9960999999642368,2.004000000000005,2.031500000000001,2.038499999999999,2.064699999988079,2.0711999999880817,2.0978000000119224,2.104699999988078,2.131599999964237,2.1390999999642375,2.1455000000000055,2.163000000000004,2.198500000000003,2.2055000000000007,2.2325999999642363,2.2430999999642367,2.246199999988079,2.2813000000119246,2.2883000000119225,2.3126999999880837,2.320899999976163,2.3481999999880827,2.355800000011925,2.380899999976158,2.388599999964242,2.414500000000004,2.4263000000119206,2.448199999988084,2.455899999976161,2.479300000011925,2.486699999988083,2.5145000000000053,2.523899999976159,2.5286999999880777,2.546199999988083,2.5810999999642377,2.5883000000119196,2.6165999999642366,2.6260999999642394,2.632599999964242,2.6661999999880805,2.67289999997616,2.6961999999880817,2.705300000011924,2.7295000000000016,2.736599999964241,2.7628000000119215,2.772199999988082,2.7983000000119205,2.8050999999642414,2.8325999999642377,2.8403999999761638,2.8645999999642413,2.8721999999880836,2.8993999999761613,2.9085999999642382,2.9316999999880835,2.9390999999642418,2.963000000000001,2.970699999988078,2.996099999964237,3.0033999999761605,3.030999999999999,3.038399999976157,3.0626999999880837,3.0705000000000027,3.0960999999642382,3.104899999976162,3.130899999976158,3.1380000000000052,3.165199999988083,3.1718000000119204,3.1961999999880817,3.2033999999761633,3.2295000000000016,3.240699999988081,3.2471999999880836,3.280999999999999,3.287899999976162,3.3135000000000048,3.3238000000119214,3.328699999988082,3.346399999976157,3.3845000000000027,3.391899999976161,3.4146999999880805,3.4231999999880784,3.45359999996424,3.4611999999880823,3.4810999999642362,3.4886999999880786,3.521599999964238,3.5296999999880825,3.545500000000004,3.562399999976158,3.58419999998808,3.599399999976157,3.6151999999880786,3.635000000000005,3.645699999988082,3.6621999999880828,3.67889999997616,3.6983999999761608,3.7148000000119197,3.7325999999642363,3.75,3.7660000000000053,3.78180000001192,3.8018999999761576,3.8121999999880813,3.8290000000000006,3.8455000000000013,3.8689999999999998,3.878899999976163,3.8953999999761635,3.9120999999642407,3.9288000000119254,3.9453999999761606,3.962099999964238,3.9786999999880805,3.999099999964237,4.0148999999761585,4.031599999964236,4.045599999964239,4.062000000000005,4.078699999988082,4.095300000011925,4.1120999999642365,4.133000000000003,4.147899999976161,4.163399999976157,4.178699999988083,4.195599999964237,4.214500000000001,4.23280000001192,4.25,4.262199999988084,4.278699999988078,4.295399999976162,4.313500000000005,4.33309999996424,4.347999999999999,4.3620999999642365,4.378800000011921,4.3953999999761635,4.411999999999999,4.4308999999761625,4.445399999976161,4.462300000011922,4.482599999964236,4.496800000011923,4.512300000011926,4.528699999988078,4.54939999997616,4.562699999988084,4.578899999976159,4.595500000000001,4.615599999964239,4.631699999988079,4.6455000000000055,4.661999999999999,4.682599999964239,4.697099999964237,4.712399999976164,4.728899999976157,4.749199999988079,4.764699999988082,4.778699999988078,4.795399999976162,4.812300000011923,4.831899999976159,4.845500000000001,4.863500000000002,4.881800000011921,4.897699999988085,4.911999999999999,4.92889999997616,4.945300000011926,4.962000000000003,4.9786999999880805]","[1732877978330,1732877978364,1732877978387,1732877978393,1732877978419,1732877978428,1732877978453,1732877978460,1732877978487,1732877978493,1732877978519,1732877978526,1732877978554,1732877978564,1732877978571,1732877978604,1732877978612,1732877978618,1732877978636,1732877978670,1732877978677,1732877978704,1732877978713,1732877978718,1732877978736,1732877978772,1732877978780,1732877978803,1732877978810,1732877978838,1732877978848,1732877978870,1732877978877,1732877978904,1732877978913,1732877978937,1732877978945,1732877978951,1732877978969,1732877979003,1732877979013,1732877979037,1732877979047,1732877979070,1732877979078,1732877979103,1732877979111,1732877979135,1732877979144,1732877979170,1732877979178,1732877979202,1732877979210,1732877979237,1732877979250,1732877979270,1732877979277,1732877979303,1732877979310,1732877979337,1732877979344,1732877979351,1732877979369,1732877979403,1732877979411,1732877979436,1732877979445,1732877979451,1732877979469,1732877979503,1732877979510,1732877979519,1732877979554,1732877979561,1732877979589,1732877979597,1732877979620,1732877979628,1732877979654,1732877979663,1732877979668,1732877979702,1732877979709,1732877979735,1732877979743,1732877979771,1732877979779,1732877979785,1732877979802,1732877979837,1732877979846,1732877979871,1732877979878,1732877979904,1732877979911,1732877979937,1732877979945,1732877979971,1732877979979,1732877979985,1732877980004,1732877980035,1732877980045,1732877980071,1732877980079,1732877980085,1732877980119,1732877980126,1732877980152,1732877980160,1732877980188,1732877980195,1732877980219,1732877980226,1732877980252,1732877980260,1732877980287,1732877980294,1732877980319,1732877980327,1732877980354,1732877980361,1732877980387,1732877980394,1732877980420,1732877980427,1732877980454,1732877980462,1732877980468,1732877980486,1732877980521,1732877980528,1732877980555,1732877980566,1732877980569,1732877980604,1732877980611,1732877980635,1732877980644,1732877980671,1732877980678,1732877980703,1732877980711,1732877980737,1732877980749,1732877980771,1732877980778,1732877980802,1732877980809,1732877980837,1732877980846,1732877980851,1732877980869,1732877980904,1732877980911,1732877980939,1732877980949,1732877980955,1732877980989,1732877980996,1732877981019,1732877981028,1732877981052,1732877981059,1732877981085,1732877981095,1732877981121,1732877981128,1732877981155,1732877981163,1732877981187,1732877981195,1732877981222,1732877981231,1732877981254,1732877981262,1732877981286,1732877981293,1732877981319,1732877981326,1732877981354,1732877981361,1732877981385,1732877981393,1732877981419,1732877981427,1732877981454,1732877981461,1732877981488,1732877981494,1732877981519,1732877981526,1732877981552,1732877981563,1732877981570,1732877981604,1732877981610,1732877981636,1732877981646,1732877981651,1732877981669,1732877981707,1732877981714,1732877981737,1732877981746,1732877981776,1732877981784,1732877981804,1732877981811,1732877981844,1732877981852,1732877981868,1732877981885,1732877981907,1732877981922,1732877981938,1732877981958,1732877981968,1732877981985,1732877982001,1732877982021,1732877982037,1732877982055,1732877982073,1732877982089,1732877982104,1732877982124,1732877982135,1732877982151,1732877982168,1732877982192,1732877982201,1732877982218,1732877982235,1732877982251,1732877982268,1732877982285,1732877982301,1732877982322,1732877982337,1732877982354,1732877982368,1732877982385,1732877982401,1732877982418,1732877982435,1732877982456,1732877982470,1732877982486,1732877982501,1732877982518,1732877982537,1732877982555,1732877982573,1732877982585,1732877982601,1732877982618,1732877982636,1732877982656,1732877982671,1732877982685,1732877982701,1732877982718,1732877982735,1732877982753,1732877982768,1732877982785,1732877982805,1732877982819,1732877982835,1732877982851,1732877982872,1732877982885,1732877982901,1732877982918,1732877982938,1732877982954,1732877982968,1732877982985,1732877983005,1732877983020,1732877983035,1732877983051,1732877983072,1732877983087,1732877983101,1732877983118,1732877983135,1732877983154,1732877983168,1732877983186,1732877983204,1732877983220,1732877983235,1732877983251,1732877983268,1732877983285,1732877983301]","[[762.1,549.4],[762.1,549.4],[787.2,557.1],[787.2,557.1],[795.9,539],[795.9,539],[794.6,523.2],[794.6,523.2],[823.6,499],[823.6,499],[842.1,493.7],[842.1,493.7],[850.6,492.2],[850.6,492.2],[850.6,492.2],[857,494.3],[857,494.3],[857,494.3],[857,494.3],[867.9,478.9],[867.9,478.9],[875,468.9],[875,468.9],[875,468.9],[875,468.9],[892.5,465.1],[892.5,465.1],[905.9,450],[905.9,450],[921.9,460.6],[921.9,460.6],[936.1,470.4],[936.1,470.4],[929,500.2],[929,500.2],[910,492.3],[910,492.3],[910,492.3],[910,492.3],[885.1,502.2],[885.1,502.2],[868.8,498.9],[868.8,498.9],[840.2,520.2],[840.2,520.2],[820.4,538.6],[820.4,538.6],[814.5,537],[814.5,537],[825.9,552],[825.9,552],[830.2,541.9],[830.2,541.9],[848.4,548],[848.4,548],[852.3,529.9],[852.3,529.9],[889.5,524],[889.5,524],[922.8,527.5],[922.8,527.5],[922.8,527.5],[922.8,527.5],[968.7,546],[968.7,546],[1034.8,544.8],[1034.8,544.8],[1034.8,544.8],[1034.8,544.8],[1080.8,539.6],[1080.8,539.6],[1080.8,539.6],[1122.3,536.2],[1122.3,536.2],[1136.1,530.4],[1136.1,530.4],[1157.2,541.2],[1157.2,541.2],[1173.5,537.9],[1173.5,537.9],[1173.5,537.9],[1204.1,535.7],[1204.1,535.7],[1223.6,549.1],[1223.6,549.1],[1260.5,551.6],[1260.5,551.6],[1260.5,551.6],[1260.5,551.6],[1266.4,549.1],[1266.4,549.1],[1269.7,536.7],[1269.7,536.7],[1278.7,521.3],[1278.7,521.3],[1269.9,521.6],[1269.9,521.6],[1272.3,514.4],[1272.3,514.4],[1272.3,514.4],[1272.3,514.4],[1275.7,513.5],[1275.7,513.5],[1277.9,515.5],[1277.9,515.5],[1277.9,515.5],[1277.2,526.5],[1277.2,526.5],[1268.1,528.4],[1268.1,528.4],[1253,532.1],[1253,532.1],[1231.5,526.4],[1231.5,526.4],[1203.9,534.8],[1203.9,534.8],[1170.8,553],[1170.8,553],[1152.9,555.8],[1152.9,555.8],[1121.7,565.4],[1121.7,565.4],[1101.6,576.2],[1101.6,576.2],[1073.1,569.6],[1073.1,569.6],[1041,550.1],[1041,550.1],[1041,550.1],[1041,550.1],[1029.8,549.5],[1029.8,549.5],[966.4,542.5],[966.4,542.5],[966.4,542.5],[934.2,544.3],[934.2,544.3],[898.9,545.5],[898.9,545.5],[852.9,525.3],[852.9,525.3],[815.3,515.6],[815.3,515.6],[792.4,504.8],[792.4,504.8],[734.2,478.9],[734.2,478.9],[711.7,482.1],[711.7,482.1],[702.6,491.1],[702.6,491.1],[702.6,491.1],[702.6,491.1],[685.8,479.2],[685.8,479.2],[713.1,470.3],[713.1,470.3],[713.1,470.3],[715.9,472.6],[715.9,472.6],[721.3,500.3],[721.3,500.3],[761.1,539.4],[761.1,539.4],[838.5,637.2],[838.5,637.2],[892.7,738.6],[892.7,738.6],[981.1,847.7],[981.1,847.7],[1050.1,950.7],[1050.1,950.7],[1088,1046.3],[1088,1046.3],[1120.4,1103],[1120.4,1103],[1134.2,1154.5],[1134.2,1154.5],[1153.4,1185.4],[1153.4,1185.4],[1175.1,1176.8],[1175.1,1176.8],[1199.3,1168.2],[1199.3,1168.2],[1156.4,1085.7],[1156.4,1085.7],[1131.9,996],[1131.9,996],[1099.7,913],[1099.7,913],[1062.9,828.4],[1062.9,828.4],[1035.4,757.4],[1035.4,757.4],[1035.4,757.4],[1009.7,722.8],[1009.7,722.8],[1003,693],[1003,693],[1003,693],[1003,693],[999.9,673.5],[999.9,673.5],[991,677.4],[991,677.4],[968.7,684.7],[968.7,684.7],[971.4,704.6],[971.4,704.6],[967.6,727],[967.6,727],[975.9,742.8],[972.9,743.2],[981.9,743.1],[1001.2,749.6],[1017.3,759.9],[1044,758.5],[1044,758.5],[1091.2,743.9],[1140.7,740.5],[1172.3,720.3],[1212.3,694.8],[1225.5,678.5],[1247.3,670.3],[1265.7,648.4],[1278,641.4],[1289.8,630.5],[1289.8,630.5],[1305.1,612.1],[1303.7,598.2],[1303.7,581.8],[1303.7,581.8],[1308.1,557.3],[1309.2,537.3],[1309.2,537.3],[1317.9,499.4],[1312.4,477.7],[1310.3,469.7],[1307.6,427.2],[1304.9,384.7],[1302.9,376.9],[1298,376.8],[1283.9,362],[1278.2,374.5],[1269,379.5],[1279.7,397.7],[1313.2,400.8],[1346.7,403.9],[1361.2,437.5],[1375.7,471.1],[1394.9,465.7],[1393.7,478.4],[1407.1,492.5],[1379.7,497],[1379.7,497],[1357.2,507.3],[1326.4,513.3],[1287,518.2],[1287,518.2],[1267.2,524.3],[1269.8,523.3],[1272.4,522.3],[1245.8,527],[1245.8,527],[1236.3,514.8],[1232.8,508.5],[1293.3,594.1],[1374.3,678.5],[1400.3,678.9],[1426.3,679.3],[1421.2,655.7],[1408.2,626.3],[1385.8,614.8],[1375.7,620.4],[1365,628.5],[1341.3,636.6],[1298,538.9],[1248.7,436.3],[1236.6,423.3],[1227.3,413.8],[1232.7,422.7],[1238.1,431.6],[1252.9,433.2],[1267.7,434.8],[1279.8,410.7],[1291.9,386.6],[1286.3,378.7],[1279.3,382.2],[1273.3,381.1],[1257.7,395.4],[1255.7,389.9],[1253.9,385.3],[1231.2,370.8],[1208.5,356.3],[1220.1,356.9],[1243.2,358.8],[1265.2,348.1],[1252,357.4]]","[0,0.3527331528]","[0.3527331528,0.3527331528]","[-0.3527331528,0]","[-0.3527331528,-0.3527331528]","[0,0]","[0.3527331528,0]","[0,-0.3527331528]","[0.3527331528,-0.3527331528]",0,0,0,0,1,2,Tablet,7,1,11,9
