inst1_resp.keys,inst1_resp.rt,calibrationMouse.x,calibrationMouse.y,calibrationMouse.leftButton,calibrationMouse.midButton,calibrationMouse.rightButton,calibrationClick.x,calibrationClick.y,calibrationClick.leftButton,calibrationClick.midButton,calibrationClick.rightButton,calibrationClick.clicked_name,trialsc.thisRepN,trialsc.thisTrialN,trialsc.thisN,trialsc.thisIndex,trialsc.ran,calibration_x,calibration_y,participant,session,date,expName,psychopyVersion,OS,frameRate,ScreenRes_pixels,Camera_pixels,mouse_2.x,mouse_2.y,mouse_2.leftButton,mouse_2.midButton,mouse_2.rightButton,mouse_2.time,mouse_2.clicked_name,mouse.x,mouse.y,mouse.leftButton,mouse.midButton,mouse.rightButton,mouse.time,mouse.clicked_name,Choice,Trial,TrialDuration,MOUSE_GAZE,ET_GAZE,ET_GAZE_x_T,time,unixTime,ET_GAZE_NF,Loc_Option1_label,Loc_Option2_label,Loc_Cost_label,Loc_Qual_label,Loc_Option1_cost,Loc_Option2_cost,Loc_Option1_quality,Loc_Option2_quality,trials.thisRepN,trials.thisTrialN,trials.thisN,trials.thisIndex,trials.ran,Block,Device,cost1,qual1,cost2,qual2
space,3.1385,-0.01875,0.051851852,1,0,0,-0.671875,-0.325925926,1,0,0,calibration_square,0,0,0,1,1,-0.67,-0.33,47,001,2024-11-29_18h49.22.678,Attention_exp_legacy,2023.1.0,Win32,59.88023952,,,,,,,,,,,,,,,,,,,,,,,,,,,,,,,,,,,,,,,,,,,,
,,,,,,,-0.345833333,-0.661111111,1,0,0,,0,1,1,4,1,-0.33,-0.67,47,001,2024-11-29_18h49.22.678,Attention_exp_legacy,2023.1.0,Win32,59.88023952,,,,,,,,,,,,,,,,,,,,,,,,,,,,,,,,,,,,,,,,,,,,
,,,,,,,-0.671875,0.346296296,1,0,0,,0,2,2,3,1,-0.67,0.33,47,001,2024-11-29_18h49.22.678,Attention_exp_legacy,2023.1.0,Win32,59.88023952,,,,,,,,,,,,,,,,,,,,,,,,,,,,,,,,,,,,,,,,,,,,
,,,,,,,-0.019791667,0.698148148,1,0,0,,0,3,3,13,1,0,0.67,47,001,2024-11-29_18h49.22.678,Attention_exp_legacy,2023.1.0,Win32,59.88023952,,,,,,,,,,,,,,,,,,,,,,,,,,,,,,,,,,,,,,,,,,,,
,,,,,,,-0.666666667,-0.662962963,1,0,0,calibration_square,0,4,4,0,1,-0.67,-0.67,47,001,2024-11-29_18h49.22.678,Attention_exp_legacy,2023.1.0,Win32,59.88023952,,,,,,,,,,,,,,,,,,,,,,,,,,,,,,,,,,,,,,,,,,,,
,,,,,,,-0.33125,0.333333333,1,0,0,calibration_square,0,5,5,7,1,-0.33,0.33,47,001,2024-11-29_18h49.22.678,Attention_exp_legacy,2023.1.0,Win32,59.88023952,,,,,,,,,,,,,,,,,,,,,,,,,,,,,,,,,,,,,,,,,,,,
,,,,,,,-0.001041667,0.331481481,1,0,0,calibration_square,0,6,6,12,1,0,0.33,47,001,2024-11-29_18h49.22.678,Attention_exp_legacy,2023.1.0,Win32,59.88023952,,,,,,,,,,,,,,,,,,,,,,,,,,,,,,,,,,,,,,,,,,,,
,,,,,,,-0.004166667,0.001851852,1,0,0,calibration_square,0,7,7,11,1,0,0,47,001,2024-11-29_18h49.22.678,Attention_exp_legacy,2023.1.0,Win32,59.88023952,,,,,,,,,,,,,,,,,,,,,,,,,,,,,,,,,,,,,,,,,,,,
,,,,,,,0.004166667,-0.324074074,1,0,0,calibration_square,0,8,8,10,1,0,-0.33,47,001,2024-11-29_18h49.22.678,Attention_exp_legacy,2023.1.0,Win32,59.88023952,,,,,,,,,,,,,,,,,,,,,,,,,,,,,,,,,,,,,,,,,,,,
,,,,,,,0.330208333,-0.337037037,1,0,0,calibration_square,0,9,9,15,1,0.33,-0.33,47,001,2024-11-29_18h49.22.678,Attention_exp_legacy,2023.1.0,Win32,59.88023952,,,,,,,,,,,,,,,,,,,,,,,,,,,,,,,,,,,,,,,,,,,,
,,,,,,,0.325,0.012962963,1,0,0,,0,10,10,16,1,0.33,0,47,001,2024-11-29_18h49.22.678,Attention_exp_legacy,2023.1.0,Win32,59.88023952,,,,,,,,,,,,,,,,,,,,,,,,,,,,,,,,,,,,,,,,,,,,
,,,,,,,-0.319791667,-0.318518519,1,0,0,,0,11,11,5,1,-0.33,-0.33,47,001,2024-11-29_18h49.22.678,Attention_exp_legacy,2023.1.0,Win32,59.88023952,,,,,,,,,,,,,,,,,,,,,,,,,,,,,,,,,,,,,,,,,,,,
,,,,,,,0.325,0.327777778,1,0,0,calibration_square,0,12,12,17,1,0.33,0.33,47,001,2024-11-29_18h49.22.678,Attention_exp_legacy,2023.1.0,Win32,59.88023952,,,,,,,,,,,,,,,,,,,,,,,,,,,,,,,,,,,,,,,,,,,,
,,,,,,,-0.332291667,0.677777778,1,0,0,calibration_square,0,13,13,8,1,-0.33,0.67,47,001,2024-11-29_18h49.22.678,Attention_exp_legacy,2023.1.0,Win32,59.88023952,,,,,,,,,,,,,,,,,,,,,,,,,,,,,,,,,,,,,,,,,,,,
,,,,,,,-0.661458333,-0.001851852,1,0,0,calibration_square,0,14,14,2,1,-0.67,0,47,001,2024-11-29_18h49.22.678,Attention_exp_legacy,2023.1.0,Win32,59.88023952,,,,,,,,,,,,,,,,,,,,,,,,,,,,,,,,,,,,,,,,,,,,
,,,,,,,0.005208333,-0.674074074,1,0,0,calibration_square,0,15,15,9,1,0,-0.67,47,001,2024-11-29_18h49.22.678,Attention_exp_legacy,2023.1.0,Win32,59.88023952,,,,,,,,,,,,,,,,,,,,,,,,,,,,,,,,,,,,,,,,,,,,
,,,,,,,-0.333333333,0.003703704,1,0,0,calibration_square,0,16,16,6,1,-0.33,0,47,001,2024-11-29_18h49.22.678,Attention_exp_legacy,2023.1.0,Win32,59.88023952,,,,,,,,,,,,,,,,,,,,,,,,,,,,,,,,,,,,,,,,,,,,
,,,,,,,0.33125,0.674074074,1,0,0,calibration_square,0,17,17,18,1,0.33,0.67,47,001,2024-11-29_18h49.22.678,Attention_exp_legacy,2023.1.0,Win32,59.88023952,,,,,,,,,,,,,,,,,,,,,,,,,,,,,,,,,,,,,,,,,,,,
,,,,,,,0.66875,0.672222222,1,0,0,calibration_square,0,18,18,19,1,0.67,0.67,47,001,2024-11-29_18h49.22.678,Attention_exp_legacy,2023.1.0,Win32,59.88023952,,,,,,,,,,,,,,,,,,,,,,,,,,,,,,,,,,,,,,,,,,,,
,,,,,,,0.325,-0.67037037,1,0,0,calibration_square,0,19,19,14,1,0.33,-0.67,47,001,2024-11-29_18h49.22.678,Attention_exp_legacy,2023.1.0,Win32,59.88023952,,,,,,,,,,,,,,,,,,,,,,,,,,,,,,,,,,,,,,,,,,,,
,,,,,,,0.664583333,-0.672222222,1,0,0,calibration_square,0,20,20,20,1,0.67,-0.67,47,001,2024-11-29_18h49.22.678,Attention_exp_legacy,2023.1.0,Win32,59.88023952,,,,,,,,,,,,,,,,,,,,,,,,,,,,,,,,,,,,,,,,,,,,
,,,,,,,,,,,,,,,,,,,,47,001,2024-11-29_18h49.22.678,Attention_exp_legacy,2023.1.0,Win32,59.88023952,"[1920,1080]","[640,480]",[0.00625],[-0.512962962962963],[1],[0],[0],[4.465600000023841],"[""StartButton""]",[-0.011458333333333333],[0.12777777777777777],[1],[0],[0],[4.91319999998808],"[""Option1_label""]",Option1_label,1,5.9349,"[[0.003125,-0.5055555555555555],[0.003125,-0.5055555555555555],[0.003125,-0.5055555555555555],[0.003125,-0.5055555555555555],[0.003125,-0.5055555555555555],[0.003125,-0.5055555555555555],[0.003125,-0.5055555555555555],[0.003125,-0.5055555555555555],[0.003125,-0.5055555555555555],[0.003125,-0.5055555555555555],[0.003125,-0.5055555555555555],[0.003125,-0.5055555555555555],[0.003125,-0.5055555555555555],[0.003125,-0.5055555555555555],[0.003125,-0.5055555555555555],[0.003125,-0.5055555555555555],[0.003125,-0.5055555555555555],[0.003125,-0.5055555555555555],[0.003125,-0.5055555555555555],[0.003125,-0.5055555555555555],[0.003125,-0.5055555555555555],[0.003125,-0.5055555555555555],[0.003125,-0.5055555555555555],[0.003125,-0.5055555555555555],[0.003125,-0.5055555555555555],[0.003125,-0.5055555555555555],[0.003125,-0.5055555555555555],[0.003125,-0.5055555555555555],[0.003125,-0.5055555555555555],[0.003125,-0.5055555555555555],[0.003125,-0.5055555555555555],[0.003125,-0.5055555555555555],[0.003125,-0.5055555555555555],[0.003125,-0.5055555555555555],[0.003125,-0.5055555555555555],[0.003125,-0.5055555555555555],[0.003125,-0.5055555555555555],[0.003125,-0.5055555555555555],[0.003125,-0.5055555555555555],[0.003125,-0.5055555555555555],[0.003125,-0.5055555555555555],[0.003125,-0.5055555555555555],[0.003125,-0.5055555555555555],[0.003125,-0.5055555555555555],[0.003125,-0.5055555555555555],[0.003125,-0.5055555555555555],[0.003125,-0.5055555555555555],[0.003125,-0.5055555555555555],[0.003125,-0.5055555555555555],[0.003125,-0.5055555555555555],[0.003125,-0.5055555555555555],[0.003125,-0.5055555555555555],[0.003125,-0.5055555555555555],[0.003125,-0.5055555555555555],[0.003125,-0.5055555555555555],[0.003125,-0.5055555555555555],[0.003125,-0.5055555555555555],[0.003125,-0.5055555555555555],[0.003125,-0.5055555555555555],[0.003125,-0.5055555555555555],[0.003125,-0.5055555555555555],[0.003125,-0.5055555555555555],[0.003125,-0.5055555555555555],[0.003125,-0.5055555555555555],[0.003125,-0.5055555555555555],[0.003125,-0.5055555555555555],[0.003125,-0.5055555555555555],[0.003125,-0.5055555555555555],[0.003125,-0.5055555555555555],[0.003125,-0.5055555555555555],[0.003125,-0.5055555555555555],[0.003125,-0.5055555555555555],[0.003125,-0.5055555555555555],[0.003125,-0.5055555555555555],[0.003125,-0.5055555555555555],[0.003125,-0.5055555555555555],[0.003125,-0.5055555555555555],[0.003125,-0.5055555555555555],[0.003125,-0.5055555555555555],[0.003125,-0.5055555555555555],[0.003125,-0.5055555555555555],[0.003125,-0.5055555555555555],[0.003125,-0.5055555555555555],[0.003125,-0.5055555555555555],[0.003125,-0.5055555555555555],[0.003125,-0.5055555555555555],[0.003125,-0.5055555555555555],[0.003125,-0.5055555555555555],[0.003125,-0.5055555555555555],[0.003125,-0.5055555555555555],[0.003125,-0.5055555555555555],[0.003125,-0.5055555555555555],[0.003125,-0.5055555555555555],[0.003125,-0.5055555555555555],[0.003125,-0.5055555555555555],[0.003125,-0.5055555555555555],[0.003125,-0.5055555555555555],[0.003125,-0.5055555555555555],[0.003125,-0.5055555555555555],[0.003125,-0.5055555555555555],[0.003125,-0.5055555555555555],[0.003125,-0.5055555555555555],[0.003125,-0.5055555555555555],[0.003125,-0.5055555555555555],[0.003125,-0.5055555555555555],[0.003125,-0.5055555555555555],[0.003125,-0.5055555555555555],[0.003125,-0.5055555555555555],[0.003125,-0.5055555555555555],[0.003125,-0.5055555555555555],[0.003125,-0.5055555555555555],[0.003125,-0.5055555555555555],[0.003125,-0.5055555555555555],[0.003125,-0.5055555555555555],[0.003125,-0.5055555555555555],[0.003125,-0.5055555555555555],[0.003125,-0.5055555555555555],[0.003125,-0.5055555555555555],[0.003125,-0.5055555555555555],[0.003125,-0.5055555555555555],[0.003125,-0.5055555555555555],[0.003125,-0.5055555555555555],[0.003125,-0.5055555555555555],[0.003125,-0.5055555555555555],[0.003125,-0.5055555555555555],[0.003125,-0.5055555555555555],[0.003125,-0.5055555555555555],[0.003125,-0.5055555555555555],[0.003125,-0.5055555555555555],[0.003125,-0.5055555555555555],[0.003125,-0.5055555555555555],[0.003125,-0.5055555555555555],[0.003125,-0.5055555555555555],[0.003125,-0.5055555555555555],[0.003125,-0.5055555555555555],[0.003125,-0.5055555555555555],[0.003125,-0.5055555555555555],[0.003125,-0.5055555555555555],[0.003125,-0.5055555555555555],[0.003125,-0.5055555555555555],[0.003125,-0.5055555555555555],[0.003125,-0.5055555555555555],[0.003125,-0.5055555555555555],[0.003125,-0.5055555555555555],[0.003125,-0.5055555555555555],[0.003125,-0.5055555555555555],[0.003125,-0.5055555555555555],[0.003125,-0.5055555555555555],[0.003125,-0.5055555555555555],[0.003125,-0.5055555555555555],[0.003125,-0.5055555555555555],[0.003125,-0.5055555555555555],[0.003125,-0.5055555555555555],[0.003125,-0.5055555555555555],[0.003125,-0.5055555555555555],[0.003125,-0.5055555555555555],[0.003125,-0.5055555555555555],[0.003125,-0.5055555555555555],[0.003125,-0.5055555555555555],[0.003125,-0.5055555555555555],[0.003125,-0.5055555555555555],[0.003125,-0.5055555555555555],[0.003125,-0.5055555555555555],[0.003125,-0.5055555555555555],[0.003125,-0.5055555555555555],[0.003125,-0.5055555555555555],[0.003125,-0.5055555555555555],[0.003125,-0.5055555555555555],[0.003125,-0.5055555555555555],[0.003125,-0.5055555555555555],[0.003125,-0.5055555555555555],[0.003125,-0.5055555555555555],[0.003125,-0.5055555555555555],[0.003125,-0.5055555555555555],[0.003125,-0.5055555555555555],[0.003125,-0.5055555555555555],[0.003125,-0.5055555555555555],[0.003125,-0.5055555555555555],[0.003125,-0.5055555555555555],[0.003125,-0.5055555555555555],[0.003125,-0.5055555555555555],[0.003125,-0.5055555555555555],[0.003125,-0.5055555555555555],[0.003125,-0.5055555555555555],[0.003125,-0.5055555555555555],[0.003125,-0.5055555555555555],[0.003125,-0.5055555555555555],[0.003125,-0.5055555555555555],[0.003125,-0.5055555555555555],[0.003125,-0.5055555555555555],[0.003125,-0.5055555555555555],[0.003125,-0.5055555555555555],[0.003125,-0.5055555555555555],[0.003125,-0.5055555555555555],[0.003125,-0.5055555555555555],[0.003125,-0.5055555555555555],[0.003125,-0.5055555555555555],[0.003125,-0.5055555555555555],[0.003125,-0.5055555555555555],[0.003125,-0.5055555555555555],[0.003125,-0.5055555555555555],[0.003125,-0.5055555555555555],[0.003125,-0.5055555555555555],[0.003125,-0.5055555555555555],[0.003125,-0.5055555555555555],[0.003125,-0.5055555555555555],[0.003125,-0.5055555555555555],[0.003125,-0.5055555555555555],[0.003125,-0.5055555555555555],[0.003125,-0.5055555555555555],[0.003125,-0.5055555555555555],[0.003125,-0.5055555555555555],[0.003125,-0.5055555555555555],[0.003125,-0.5055555555555555],[0.003125,-0.5055555555555555],[0.003125,-0.5055555555555555],[0.003125,-0.5055555555555555],[0.003125,-0.5055555555555555],[0.003125,-0.5055555555555555],[0.003125,-0.5055555555555555],[0.003125,-0.5055555555555555],[0.003125,-0.5055555555555555],[0.003125,-0.5055555555555555],[0.003125,-0.5055555555555555],[0.003125,-0.5055555555555555],[0.003125,-0.5055555555555555],[0.003125,-0.5055555555555555],[0.0020833333333333333,-0.5055555555555555],[0.0020833333333333333,-0.5055555555555555],[0.0020833333333333333,-0.5055555555555555],[0.0020833333333333333,-0.5055555555555555],[0.0020833333333333333,-0.5055555555555555],[0.0020833333333333333,-0.5055555555555555],[0.0020833333333333333,-0.5055555555555555],[0.0020833333333333333,-0.5055555555555555],[0.0020833333333333333,-0.5055555555555555],[0.0020833333333333333,-0.5055555555555555],[0.0020833333333333333,-0.5055555555555555],[0.0020833333333333333,-0.5055555555555555],[0.0020833333333333333,-0.5055555555555555],[0.0020833333333333333,-0.5055555555555555],[0.0020833333333333333,-0.5055555555555555],[0.0020833333333333333,-0.5055555555555555],[0.0020833333333333333,-0.5055555555555555],[-0.0020833333333333333,-0.5055555555555555],[-0.0020833333333333333,-0.5055555555555555],[-0.0020833333333333333,-0.5055555555555555],[-0.0020833333333333333,-0.5055555555555555],[-0.003125,-0.5055555555555555],[-0.003125,-0.5037037037037037],[0,-0.4925925925925926],[0.008333333333333333,-0.4722222222222222],[0.028125,-0.42962962962962964],[0.046875,-0.39814814814814814],[0.07395833333333333,-0.3574074074074074],[0.09895833333333333,-0.31666666666666665],[0.12083333333333333,-0.2777777777777778],[0.134375,-0.2222222222222222],[0.140625,-0.17962962962962964],[0.140625,-0.15],[0.13854166666666667,-0.12407407407407407],[0.13229166666666667,-0.10185185185185185],[0.12395833333333334,-0.08333333333333333],[0.10833333333333334,-0.06666666666666667],[0.09270833333333334,-0.05740740740740741],[0.08125,-0.05],[0.06145833333333333,-0.040740740740740744],[0.036458333333333336,-0.027777777777777776],[0.022916666666666665,-0.018518518518518517],[0.015625,-0.011111111111111112],[0.011458333333333333,-0.005555555555555556],[0.010416666666666666,-0.005555555555555556],[0.009375,-0.005555555555555556],[0.007291666666666667,-0.003703703703703704],[0.005208333333333333,0],[0.003125,0.007407407407407408],[-0.0010416666666666667,0.024074074074074074],[-0.005208333333333333,0.044444444444444446],[-0.007291666666666667,0.06481481481481481],[-0.008333333333333333,0.09444444444444444],[-0.009375,0.10740740740740741],[-0.009375,0.11851851851851852],[-0.010416666666666666,0.1259259259259259],[-0.010416666666666666,0.1259259259259259],[-0.010416666666666666,0.1259259259259259],[-0.011458333333333333,0.12777777777777777],[-0.011458333333333333,0.12777777777777777],[-0.011458333333333333,0.12777777777777777],[-0.011458333333333333,0.12777777777777777],[-0.011458333333333333,0.12777777777777777],[-0.011458333333333333,0.12777777777777777],[-0.011458333333333333,0.12777777777777777],[-0.011458333333333333,0.12777777777777777],[-0.011458333333333333,0.12777777777777777],[-0.011458333333333333,0.12777777777777777],[-0.011458333333333333,0.12777777777777777],[-0.011458333333333333,0.12777777777777777],[-0.011458333333333333,0.12777777777777777],[-0.011458333333333333,0.12777777777777777],[-0.011458333333333333,0.12777777777777777],[-0.011458333333333333,0.12777777777777777],[-0.011458333333333333,0.12777777777777777],[-0.011458333333333333,0.12777777777777777],[-0.011458333333333333,0.12777777777777777],[-0.011458333333333333,0.12777777777777777],[-0.011458333333333333,0.12777777777777777],[-0.011458333333333333,0.12777777777777777],[-0.011458333333333333,0.12777777777777777],[-0.011458333333333333,0.12777777777777777],[-0.011458333333333333,0.12777777777777777],[-0.011458333333333333,0.12777777777777777],[-0.011458333333333333,0.12777777777777777],[-0.011458333333333333,0.12777777777777777],[-0.011458333333333333,0.12777777777777777],[-0.011458333333333333,0.12777777777777777],[-0.011458333333333333,0.12777777777777777],[-0.011458333333333333,0.12777777777777777],[-0.011458333333333333,0.12777777777777777],[-0.011458333333333333,0.12777777777777777],[-0.011458333333333333,0.12777777777777777],[-0.011458333333333333,0.12777777777777777],[-0.011458333333333333,0.12777777777777777],[-0.011458333333333333,0.12777777777777777],[-0.011458333333333333,0.12777777777777777],[-0.011458333333333333,0.12777777777777777],[-0.011458333333333333,0.12777777777777777],[-0.011458333333333333,0.12777777777777777],[-0.011458333333333333,0.12777777777777777],[-0.011458333333333333,0.12777777777777777],[-0.011458333333333333,0.12777777777777777],[-0.011458333333333333,0.12777777777777777],[-0.011458333333333333,0.12777777777777777],[-0.011458333333333333,0.12777777777777777],[-0.011458333333333333,0.12777777777777777],[-0.011458333333333333,0.12777777777777777],[-0.011458333333333333,0.12777777777777777],[-0.011458333333333333,0.12777777777777777],[-0.011458333333333333,0.12777777777777777],[-0.011458333333333333,0.12777777777777777],[-0.011458333333333333,0.12777777777777777],[-0.011458333333333333,0.12777777777777777],[-0.011458333333333333,0.12777777777777777],[-0.011458333333333333,0.12777777777777777],[-0.011458333333333333,0.12777777777777777],[-0.011458333333333333,0.12777777777777777],[-0.011458333333333333,0.12777777777777777],[-0.011458333333333333,0.12777777777777777],[-0.011458333333333333,0.12777777777777777],[-0.011458333333333333,0.12777777777777777],[-0.011458333333333333,0.12777777777777777],[-0.011458333333333333,0.12777777777777777],[-0.011458333333333333,0.12777777777777777],[-0.011458333333333333,0.12777777777777777],[-0.011458333333333333,0.12777777777777777],[-0.011458333333333333,0.12777777777777777],[-0.011458333333333333,0.12777777777777777]]","[[-0.2015625,0.024814814814814772],[-0.2015625,0.024814814814814772],[-0.20239583333333327,-0.006851851851851936],[-0.20270833333333335,-0.020185185185185143],[-0.21833333333333335,-0.020185185185185143],[-0.20979166666666665,-0.057777777777777754],[-0.20437500000000006,-0.09888888888888885],[-0.2015625,-0.1287037037037037],[-0.18406250000000005,-0.13925925925925925],[-0.15885416666666666,-0.152962962962963],[-0.1336458333333333,-0.16666666666666666],[-0.1336458333333333,-0.16666666666666666],[-0.11802083333333328,-0.202962962962963],[-0.0938541666666667,-0.18888888888888888],[-0.06968749999999997,-0.17481481481481478],[-0.06968749999999997,-0.17481481481481478],[-0.05281250000000005,-0.1603703703703704],[-0.0296875,-0.14074074074074075],[-0.000416666666666643,-0.11537037037037039],[0.019479166666666714,-0.10481481481481486],[0.014687500000000023,-0.13277777777777774],[-0.002291666666666714,-0.1346296296296296],[-0.0036458333333333334,-0.1618518518518518],[-0.0140625,-0.16166666666666668],[-0.041458333333333285,-0.1764814814814815],[-0.06885416666666669,-0.19129629629629633],[-0.06031249999999998,-0.21296296296296297],[-0.06031249999999998,-0.21296296296296297],[-0.05802083333333338,-0.23981481481481481],[-0.06187499999999998,-0.2631481481481482],[-0.04989583333333331,-0.2668518518518519],[-0.04989583333333331,-0.2668518518518519],[-0.02791666666666662,-0.27240740740740743],[-0.010000000000000024,-0.29203703703703704],[0.01083333333333331,-0.2687037037037037],[0.02520833333333338,-0.272037037037037],[0.02520833333333338,-0.272037037037037],[0.025312499999999953,-0.255],[0.02666666666666669,-0.2638888888888889],[0.02666666666666669,-0.2638888888888889],[0.002916666666666619,-0.22962962962962963],[0.002916666666666619,-0.22962962962962963],[-0.03187500000000002,-0.20092592592592592],[-0.0421875,-0.19018518518518515],[-0.0421875,-0.19018518518518515],[-0.042708333333333334,-0.18851851851851853],[-0.058229166666666644,-0.1690740740740741],[-0.06572916666666669,-0.1492592592592593],[-0.06572916666666669,-0.1492592592592593],[-0.07895833333333328,-0.14888888888888885],[-0.07937500000000004,-0.11796296296296294],[-0.06937500000000002,-0.11518518518518517],[-0.06937500000000002,-0.11518518518518517],[-0.04562499999999995,-0.10018518518518522],[-0.024687500000000046,-0.09722222222222222],[-0.0021875000000000236,-0.08888888888888889],[-0.0021875000000000236,-0.08888888888888889],[-0.0026041666666666665,-0.06740740740740736],[-0.019270833333333334,-0.041666666666666664],[-0.03822916666666672,-0.04462962962962967],[-0.03822916666666672,-0.04462962962962967],[-0.04895833333333333,-0.059999999999999956],[-0.04885416666666664,-0.05055555555555547],[-0.07395833333333333,-0.05703703703703706],[-0.08656250000000003,-0.08425925925925926],[-0.10739583333333336,-0.04888888888888885],[-0.14249999999999996,-0.04592592592592584],[-0.16812499999999997,-0.04277777777777782],[-0.16812499999999997,-0.04277777777777782],[-0.18020833333333333,-0.03722222222222227],[-0.16239583333333332,-0.06611111111111109],[-0.13791666666666663,-0.06407407407407412],[-0.134375,-0.0690740740740741],[-0.1701041666666666,-0.05759259259259263],[-0.13656250000000003,-0.09074074074074075],[-0.10760416666666663,-0.08888888888888889],[-0.09479166666666666,-0.1479629629629629],[-0.06447916666666664,-0.19166666666666668],[-0.051145833333333356,-0.22018518518518515],[-0.04677083333333331,-0.24981481481481477],[-0.058958333333333356,-0.19592592592592595],[-0.06687500000000005,-0.17166666666666663],[-0.05802083333333338,-0.13499999999999995],[-0.016145833333333335,-0.12925925925925927],[-0.01260416666666669,-0.06759259259259259],[-0.01854166666666662,-0.041666666666666664],[-0.015104166666666667,-0.003703703703703704],[-0.026041666666666668,0.06185185185185181],[-0.014999999999999977,0.08888888888888889],[-0.014999999999999977,0.08888888888888889],[-0.03447916666666669,0.14629629629629629],[-0.01427083333333338,0.0985185185185186],[-0.00927083333333331,0.09814814814814815],[-0.00927083333333331,0.09814814814814815],[-0.00010416666666669035,0.09240740740740737],[0.016562499999999977,0.0801851851851851],[0.05322916666666669,0.016851851851851896],[0.0896874999999999,-0.01592592592592597],[0.12020833333333343,-0.06518518518518517],[0.15197916666666675,-0.1161111111111111],[0.17760416666666667,-0.11055555555555553],[0.17760416666666667,-0.11055555555555553],[0.2337500000000001,-0.13537037037037042],[0.2193749999999999,-0.09462962962962967],[0.2430208333333333,-0.10685185185185184],[0.26666666666666666,-0.1190740740740741],[0.27447916666666666,-0.182962962962963],[0.2646874999999999,-0.14759259259259258],[0.2548958333333334,-0.11222222222222226],[0.1931250000000001,-0.04592592592592584],[0.14447916666666671,-0.005555555555555556],[0.11427083333333338,-0.032407407407407406],[0.0703125,-0.026851851851851852],[0.035312499999999976,-0.022222222222222223],[-0.016145833333333335,-0.002407407407407323],[-0.051979166666666646,-0.007037037037036953],[-0.09604166666666672,-0.002962962962963005],[-0.1436458333333333,-0.041111111111111195],[-0.1765625,-0.06333333333333331],[-0.1515625,-0.1],[-0.13562500000000005,-0.1007407407407407],[-0.13697916666666668,-0.06740740740740736],[-0.11833333333333336,-0.07222222222222222],[-0.07364583333333338,-0.11462962962962958],[-0.07052083333333338,-0.11055555555555553],[-0.07156250000000004,-0.1190740740740741],[-0.06385416666666661,-0.09981481481481477],[-0.05499999999999995,-0.08648148148148146],[-0.06270833333333338,-0.04814814814814815],[-0.0704166666666667,-0.009814814814814731],[-0.06906249999999996,-0.007407407407407408],[-0.06864583333333331,-0.06759259259259259],[-0.07885416666666671,-0.10537037037037032],[-0.09281250000000002,-0.11500000000000005],[-0.08427083333333331,-0.13388888888888892],[-0.07687499999999996,-0.14907407407407408],[-0.07875000000000003,-0.15870370370370368],[-0.08447916666666669,-0.13703703703703704],[-0.08833333333333329,-0.15629629629629627],[-0.08031250000000002,-0.1588888888888889],[-0.09031250000000005,-0.17018518518518513],[-0.09937499999999998,-0.11888888888888886],[-0.09937499999999998,-0.11888888888888886],[-0.09083333333333338,-0.13111111111111112],[-0.11052083333333336,-0.1227777777777778],[-0.11114583333333337,-0.15166666666666662],[-0.09791666666666667,-0.17259259259259258],[-0.08635416666666665,-0.1527777777777778],[-0.08697916666666666,-0.1766666666666666],[-0.09760416666666671,-0.19370370370370374],[-0.07864583333333333,-0.1772222222222222],[-0.041666666666666664,-0.15203703703703708],[-0.016145833333333335,-0.12092592592592595],[-0.00010416666666669035,-0.06888888888888887],[0.027708333333333356,-0.04407407407407399],[0.05802083333333338,-0.009444444444444486],[0.06416666666666669,0.05055555555555547],[0.024791666666666618,0.07962962962962963],[0.0014583333333333095,0.12111111111111107],[0.030208333333333334,0.14907407407407408],[0.017499999999999953,0.12685185185185185],[0.017499999999999953,0.12685185185185185],[-0.000416666666666643,0.13037037037037033],[-0.000416666666666643,0.13037037037037033],[-0.014999999999999977,0.12018518518518514],[-0.017708333333333333,0.15703703703703695],[-0.0014583333333333095,0.19037037037037027],[0.0021875000000000236,0.22666666666666663],[0.029375000000000047,0.24777777777777768],[0.12041666666666657,0.24833333333333338],[0.18864583333333323,0.29259259259259257],[0.21687500000000004,0.3199999999999999],[0.24104166666666677,0.31574074074074077],[0.2704166666666666,0.2857407407407407],[0.2853125000000001,0.32111111111111107],[0.28458333333333335,0.33537037037037043],[0.25281250000000005,0.33666666666666656],[0.23114583333333344,0.32518518518518524],[0.1859375,0.32888888888888895],[0.15291666666666662,0.33425925925925926],[0.1490624999999999,0.31203703703703706],[0.11739583333333338,0.3140740740740741],[0.10395833333333329,0.3392592592592593],[0.11531250000000005,0.3483333333333334],[0.1492708333333333,0.29981481481481476],[0.17927083333333324,0.23944444444444435],[0.20125000000000004,0.20907407407407402],[0.2263541666666666,0.17833333333333326],[0.27395833333333336,0.15166666666666662],[0.29239583333333335,0.14166666666666666],[0.2835416666666667,0.0962962962962963],[0.3004166666666668,0.05018518518518523],[0.29697916666666657,0.034444444444444486],[0.25583333333333325,0.03296296296296288],[0.21739583333333337,0.03685185185185181],[0.18291666666666656,0.05259259259259255],[0.17395833333333333,0.0507407407407407],[0.14729166666666677,0.07703703703703708],[0.1256249999999999,0.041666666666666664],[0.08781249999999995,0.022777777777777692],[0.05593750000000005,0.03537037037037041],[0.04812500000000005,0.014814814814814815],[0.04645833333333336,-0.02759259259259255],[0.05625,-0.06814814814814817],[0.06333333333333328,-0.11407407407407412],[0.07854166666666676,-0.1403703703703704],[0.09104166666666676,-0.15499999999999997],[0.0821875000000001,-0.16648148148148145],[0.06177083333333329,-0.14722222222222223],[0.057500000000000044,-0.14444444444444443],[0.07333333333333343,-0.14833333333333337],[0.07333333333333343,-0.14833333333333337],[0.06510416666666667,-0.1190740740740741],[0.0515625,-0.09055555555555551],[0.03572916666666662,-0.06574074074074074],[0.019895833333333356,-0.04092592592592597],[0.025729166666666713,-0.055740740740740785],[0.03156249999999995,-0.0705555555555556],[0.06843750000000005,-0.11592592592592597],[0.06843750000000005,-0.11592592592592597],[0.08937499999999995,-0.13444444444444448],[0.09729166666666676,-0.11814814814814817],[0.09833333333333343,-0.12074074074074072],[0.09833333333333343,-0.12074074074074072],[0.09937500000000009,-0.12333333333333338],[0.12833333333333338,-0.1455555555555556],[0.16104166666666658,-0.16407407407407412],[0.1912499999999999,-0.19222222222222224],[0.1912499999999999,-0.19222222222222224],[0.1788541666666667,-0.11870370370370374],[0.1664583333333333,-0.04518518518518514],[0.17843749999999994,-0.013703703703703662],[0.17156250000000003,0.03555555555555564],[0.1734375,0.07092592592592584],[0.16958333333333328,0.12314814814814815],[0.16572916666666657,0.17537037037037045],[0.13583333333333342,0.24296296296296305],[0.10593750000000005,0.31055555555555564],[0.0900000000000001,0.37537037037037047],[0.08687500000000009,0.35851851851851857],[0.10270833333333323,0.32944444444444443],[0.08864583333333324,0.36796296296296305],[0.11270833333333338,0.35425925925925916],[0.10666666666666676,0.35185185185185186],[0.10666666666666676,0.35185185185185186],[0.09427083333333333,0.37666666666666665],[0.0896874999999999,0.38944444444444437],[0.08854166666666667,0.4072222222222222],[0.08854166666666667,0.4072222222222222],[0.07947916666666661,0.4335185185185186],[0.058958333333333356,0.4722222222222222],[0.0626041666666667,0.4696296296296297],[0.034791666666666644,0.4988888888888888],[0.022395833333333334,0.493888888888889],[-0.001145833333333357,0.5003703703703705],[-0.002395833333333286,0.4992592592592593],[-0.013229166666666714,0.5135185185185185],[-0.03187500000000002,0.5398148148148149],[-0.03187500000000002,0.5398148148148149],[-0.016250000000000025,0.5116666666666666],[-0.002916666666666619,0.4733333333333334],[0.010416666666666666,0.43499999999999994],[0.00614583333333331,0.44166666666666665],[0.014374999999999952,0.4287037037037037],[0.0078125,0.3890740740740741],[0.0078125,0.3890740740740741],[0.00302083333333331,0.37888888888888894],[0.012083333333333357,0.34888888888888886],[0.03354166666666671,0.31074074074074065],[0.057291666666666664,0.22611111111111115],[0.051979166666666646,0.20703703703703696],[0.05687500000000002,0.1896296296296296],[0.057395833333333354,0.17907407407407416],[0.057395833333333354,0.17907407407407416],[0.05135416666666662,0.1648148148148148],[0.03343750000000002,0.15722222222222218],[0.03343750000000002,0.15722222222222218],[0.034375,0.1574074074074074],[0.022187499999999954,0.17962962962962964],[0.003541666666666643,0.17759259259259255],[0.003541666666666643,0.17759259259259255],[0.007708333333333309,0.1300000000000001],[0.007708333333333309,0.1300000000000001],[0.004479166666666619,0.11555555555555551],[0.008437500000000023,0.07462962962962955],[0.0109375,0.03685185185185181],[0.0109375,0.03685185185185181],[-0.002708333333333357,0.020555555555555598],[-0.007708333333333309,-0.00592592592592601],[0.008645833333333287,-0.05129629629629638],[0.011041666666666691,-0.07148148148148152],[0.016666666666666666,-0.12018518518518514],[0.033645833333333285,-0.15833333333333333],[0.01604166666666664,-0.17],[0.01583333333333338,-0.14462962962962966],[0.0032291666666666905,-0.10388888888888893],[-0.002499999999999976,-0.07296296296296292],[0.02041666666666669,-0.07000000000000002],[0.021249999999999977,-0.07611111111111116],[0.021249999999999977,-0.07611111111111116],[0.016562499999999977,-0.05870370370370368],[0.016562499999999977,-0.05870370370370368],[0.021458333333333357,-0.05407407407407405],[0.02374999999999995,-0.03777777777777774],[0.019375000000000024,-0.012592592592592508],[0.024270833333333287,0.009629629629629714],[0.016875000000000046,0.008148148148148106],[0.027291666666666714,-0.009629629629629714],[0.036249999999999956,-0.008333333333333333],[0.052187500000000026,-0.0031481481481482323],[0.05562499999999997,0.009074074074074031],[0.05510416666666664,0.009999999999999959],[0.0484375,0.025370370370370456],[0.044375000000000026,0.02907407407407416],[0.03302083333333338,0.06018518518518518],[0.03322916666666664,0.07962962962962963],[0.030520833333333285,0.08722222222222227],[0.0037500000000000237,0.07981481481481485],[0.00302083333333331,0.0544444444444444],[-0.01875,0.016666666666666666],[-0.00791666666666669,0.018518518518518517],[0.002916666666666619,0.020370370370370372],[0.002916666666666619,0.020370370370370372],[0.014791666666666713,0.013888888888888888],[0.03239583333333336,-0.009074074074074031],[0.028541666666666642,-0.02092592592592584],[0.028541666666666642,-0.02092592592592584],[0.02666666666666669,-0.037037037037037035],[0.03322916666666664,-0.024629629629629547],[0.04989583333333331,-0.01962962962962967],[0.036562500000000026,-0.009074074074074031],[0.04718749999999995,-0.011666666666666582],[0.05552083333333328,-0.04222222222222214],[0.058333333333333334,-0.06481481481481481],[0.02687499999999995,-0.04796296296296292],[-0.010312499999999976,-0.014629629629629588],[0.01895833333333338,-0.04018518518518527],[0.04822916666666662,-0.06574074074074074],[0.0578125,-0.10444444444444441],[0.060104166666666715,-0.11944444444444445],[0.06302083333333333,-0.12333333333333338],[0.04791666666666667,-0.10592592592592591],[0.04791666666666667,-0.10592592592592591],[0.043020833333333286,-0.11129629629629634],[0.013125000000000024,-0.10444444444444441],[0.017916666666666713,-0.12833333333333335],[0.022916666666666665,-0.15685185185185183],[-0.025729166666666713,-0.14944444444444444],[-0.07437499999999998,-0.14203703703703702],[-0.09333333333333335,-0.14648148148148152],[-0.10885416666666667,-0.1359259259259259],[-0.14249999999999996,-0.12259259259259257],[-0.17614583333333336,-0.10925925925925926],[-0.21166666666666673,-0.06796296296296295],[-0.21166666666666673,-0.06796296296296295],[-0.225,-0.04870370370370362]]","[[-0.2015625,0.024814814814814772,0.0003000000119186552],[-0.2015625,0.024814814814814772,0.039200000047685535],[-0.20239583333333327,-0.006851851851851936,0.051499999999997215],[-0.20270833333333335,-0.020185185185185143,0.06840000003576563],[-0.21833333333333335,-0.020185185185185143,0.08480000001192423],[-0.20979166666666665,-0.057777777777777754,0.10230000001192252],[-0.20437500000000006,-0.09888888888888885,0.11970000004768622],[-0.2015625,-0.1287037037037037,0.1349000000357634],[-0.18406250000000005,-0.13925925925925925,0.15160000002384066],[-0.15885416666666666,-0.152962962962963,0.16820000004768332],[-0.1336458333333333,-0.16666666666666666,0.18650000000000233],[-0.1336458333333333,-0.16666666666666666,0.20199999999999818],[-0.11802083333333328,-0.202962962962963,0.21830000001192218],[-0.0938541666666667,-0.18888888888888888,0.23490000003576483],[-0.06968749999999997,-0.17481481481481478,0.25150000000000006],[-0.06968749999999997,-0.17481481481481478,0.26820000004768474],[-0.05281250000000005,-0.1603703703703704,0.284900000035762],[-0.0296875,-0.14074074074074075,0.30160000002383924],[-0.000416666666666643,-0.11537037037037039,0.3182000000476819],[0.019479166666666714,-0.10481481481481486,0.3393000000119244],[0.014687500000000023,-0.13277777777777774,0.35420000004768326],[-0.002291666666666714,-0.1346296296296296,0.3684999999999974],[-0.0036458333333333334,-0.1618518518518518,0.38510000002384004],[-0.0140625,-0.16166666666666668,0.40610000002384083],[-0.041458333333333285,-0.1764814814814815,0.42080000001192275],[-0.06885416666666669,-0.19129629629629633,0.436900000035763],[-0.06031249999999998,-0.21296296296296297,0.4515000000000029],[-0.06031249999999998,-0.21296296296296297,0.4683000000119222],[-0.05802083333333338,-0.23981481481481481,0.48490000003576483],[-0.06187499999999998,-0.2631481481481482,0.5016000000238421],[-0.04989583333333331,-0.2668518518518519,0.5197000000476848],[-0.04989583333333331,-0.2668518518518519,0.534900000035762],[-0.02791666666666662,-0.27240740740740743,0.5516000000238392],[-0.010000000000000024,-0.29203703703703704,0.5682000000476819],[0.01083333333333331,-0.2687037037037037,0.5850000000000009],[0.02520833333333338,-0.272037037037037,0.6071000000238413],[0.02520833333333338,-0.272037037037037,0.6182000000476862],[0.025312499999999953,-0.255,0.6349000000357634],[0.02666666666666669,-0.2638888888888889,0.6514999999999986],[0.02666666666666669,-0.2638888888888889,0.668300000011925],[0.002916666666666619,-0.22962962962962963,0.6850000000000023],[0.002916666666666619,-0.22962962962962963,0.7016000000238449],[-0.03187500000000002,-0.20092592592592592,0.7182000000476876],[-0.0421875,-0.19018518518518515,0.7404000000357627],[-0.0421875,-0.19018518518518515,0.7516000000238421],[-0.042708333333333334,-0.18851851851851853,0.7683000000119193],[-0.058229166666666644,-0.1690740740740741,0.784900000035762],[-0.06572916666666669,-0.1492592592592593,0.8046000000238394],[-0.06572916666666669,-0.1492592592592593,0.8242000000476821],[-0.07895833333333328,-0.14888888888888885,0.8408000000119245],[-0.07937500000000004,-0.11796296296296294,0.8544000000357599],[-0.06937500000000002,-0.11518518518518517,0.8682000000476862],[-0.06937500000000002,-0.11518518518518517,0.8849000000357634],[-0.04562499999999995,-0.10018518518518522,0.9016000000238407],[-0.024687500000000046,-0.09722222222222222,0.918300000011925],[-0.0021875000000000236,-0.08888888888888889,0.9348000000119185],[-0.0021875000000000236,-0.08888888888888889,0.9515000000000029],[-0.0026041666666666665,-0.06740740740740736,0.9683000000119222],[-0.019270833333333334,-0.041666666666666664,0.9848000000119228],[-0.03822916666666672,-0.04462962962962967,1.0017000000476841],[-0.03822916666666672,-0.04462962962962967,1.0182000000476847],[-0.04895833333333333,-0.059999999999999956,1.034900000035762],[-0.04885416666666664,-0.05055555555555547,1.0514999999999972],[-0.07395833333333333,-0.05703703703703706,1.0683000000119236],[-0.08656250000000003,-0.08425925925925926,1.0886000000238454],[-0.10739583333333336,-0.04888888888888885,1.1030000000000015],[-0.14249999999999996,-0.04592592592592584,1.1181000000238441],[-0.16812499999999997,-0.04277777777777782,1.1349000000357634],[-0.16812499999999997,-0.04277777777777782,1.1516000000238407],[-0.18020833333333333,-0.03722222222222227,1.1682000000476833],[-0.16239583333333332,-0.06611111111111109,1.1848000000119185],[-0.13791666666666663,-0.06407407407407412,1.201600000023845],[-0.134375,-0.0690740740740741,1.2184000000357642],[-0.1701041666666666,-0.05759259259259263,1.2349000000357648],[-0.13656250000000003,-0.09074074074074075,1.2515],[-0.10760416666666663,-0.08888888888888889,1.2682000000476847],[-0.09479166666666666,-0.1479629629629629,1.2851000000238457],[-0.06447916666666664,-0.19166666666666668,1.301800000011923],[-0.051145833333333356,-0.22018518518518515,1.318200000047682],[-0.04677083333333331,-0.24981481481481477,1.3348000000119242],[-0.058958333333333356,-0.19592592592592595,1.3522000000476808],[-0.06687500000000005,-0.17166666666666663,1.3682000000476862],[-0.05802083333333338,-0.13499999999999995,1.3849000000357634],[-0.016145833333333335,-0.12925925925925927,1.4018000000119244],[-0.01260416666666669,-0.06759259259259259,1.4182000000476833],[-0.01854166666666662,-0.041666666666666664,1.4349000000357606],[-0.015104166666666667,-0.003703703703703704,1.451500000000003],[-0.026041666666666668,0.06185185185185181,1.4682000000476876],[-0.014999999999999977,0.08888888888888889,1.4851000000238415],[-0.014999999999999977,0.08888888888888889,1.5017000000476841],[-0.03447916666666669,0.14629629629629629,1.5182000000476847],[-0.01427083333333338,0.0985185185185186,1.534900000035762],[-0.00927083333333331,0.09814814814814815,1.5516000000238392],[-0.00927083333333331,0.09814814814814815,1.568200000047682],[-0.00010416666666669035,0.09240740740740737,1.5849000000357663],[0.016562499999999977,0.0801851851851851,1.602800000011925],[0.05322916666666669,0.016851851851851896,1.6182000000476862],[0.0896874999999999,-0.01592592592592597,1.6375000000000028],[0.12020833333333343,-0.06518518518518517,1.6516000000238407],[0.15197916666666675,-0.1161111111111111,1.6682000000476833],[0.17760416666666667,-0.11055555555555553,1.6888000000119234],[0.17760416666666667,-0.11055555555555553,1.7018000000119216],[0.2337500000000001,-0.13537037037037042,1.7183000000119222],[0.2193749999999999,-0.09462962962962967,1.7349000000357648],[0.2430208333333333,-0.10685185185185184,1.7515],[0.26666666666666666,-0.1190740740740741,1.7682000000476847],[0.27447916666666666,-0.182962962962963,1.784900000035762],[0.2646874999999999,-0.14759259259259258,1.8017000000476813],[0.2548958333333334,-0.11222222222222226,1.818200000047682],[0.1931250000000001,-0.04592592592592584,1.8349000000357663],[0.14447916666666671,-0.005555555555555556,1.8515000000000015],[0.11427083333333338,-0.032407407407407406,1.8682000000476862],[0.0703125,-0.026851851851851852,1.8848000000119214],[0.035312499999999976,-0.022222222222222223,1.902000000000001],[-0.016145833333333335,-0.002407407407407323,1.9182000000476833],[-0.051979166666666646,-0.007037037037036953,1.9349000000357606],[-0.09604166666666672,-0.002962962962963005,1.951600000023845],[-0.1436458333333333,-0.041111111111111195,1.9682000000476876],[-0.1765625,-0.06333333333333331,1.9848000000119228],[-0.1515625,-0.1,2.001600000023842],[-0.13562500000000005,-0.1007407407407407,2.0181000000238427],[-0.13697916666666668,-0.06740740740740736,2.0350000000000037],[-0.11833333333333336,-0.07222222222222222,2.051499999999997],[-0.07364583333333338,-0.11462962962962958,2.068200000047682],[-0.07052083333333338,-0.11055555555555553,2.0849000000357663],[-0.07156250000000004,-0.1190740740740741,2.101900000035762],[-0.06385416666666661,-0.09981481481481477,2.118100000023844],[-0.05499999999999995,-0.08648148148148146,2.1349000000357634],[-0.06270833333333338,-0.04814814814814815,2.1514999999999986],[-0.0704166666666667,-0.009814814814814731,2.16840000003576],[-0.06906249999999996,-0.007407407407407408,2.1863000000119186],[-0.06864583333333331,-0.06759259259259259,2.201600000023845],[-0.07885416666666671,-0.10537037037037032,2.2182000000476876],[-0.09281250000000002,-0.11500000000000005,2.2351000000238415],[-0.08427083333333331,-0.13388888888888892,2.2515],[-0.07687499999999996,-0.14907407407407408,2.2682000000476847],[-0.07875000000000003,-0.15870370370370368,2.284900000035762],[-0.08447916666666669,-0.13703703703703704,2.301800000011923],[-0.08833333333333329,-0.15629629629629627,2.318200000047682],[-0.08031250000000002,-0.1588888888888889,2.3349000000357663],[-0.09031250000000005,-0.17018518518518513,2.3516000000238435],[-0.09937499999999998,-0.11888888888888886,2.368200000047686],[-0.09937499999999998,-0.11888888888888886,2.3849000000357634],[-0.09083333333333338,-0.13111111111111112,2.4016000000238407],[-0.11052083333333336,-0.1227777777777778,2.4181000000238413],[-0.11114583333333337,-0.15166666666666662,2.4349000000357606],[-0.09791666666666667,-0.17259259259259258,2.451500000000003],[-0.08635416666666665,-0.1527777777777778,2.4682000000476876],[-0.08697916666666666,-0.1766666666666666,2.484900000035765],[-0.09760416666666671,-0.19370370370370374,2.5015],[-0.07864583333333333,-0.1772222222222222,2.5182000000476847],[-0.041666666666666664,-0.15203703703703708,2.534900000035762],[-0.016145833333333335,-0.12092592592592595,2.551499999999997],[-0.00010416666666669035,-0.06888888888888887,2.568200000047682],[0.027708333333333356,-0.04407407407407399,2.5891000000238407],[0.05802083333333338,-0.009444444444444486,2.60440000003576],[0.06416666666666669,0.05055555555555547,2.618200000047686],[0.024791666666666618,0.07962962962962963,2.6349000000357634],[0.0014583333333333095,0.12111111111111107,2.65530000001192],[0.030208333333333334,0.14907407407407408,2.6688000000119203],[0.017499999999999953,0.12685185185185185,2.6878000000119187],[0.017499999999999953,0.12685185185185185,2.701600000023845],[-0.000416666666666643,0.13037037037037033,2.718300000011922],[-0.000416666666666643,0.13037037037037033,2.734900000035765],[-0.014999999999999977,0.12018518518518514,2.7515],[-0.017708333333333333,0.15703703703703695,2.7682000000476847],[-0.0014583333333333095,0.19037037037037027,2.788100000023846],[0.0021875000000000236,0.22666666666666663,2.8043000000119207],[0.029375000000000047,0.24777777777777768,2.8199000000357657],[0.12041666666666657,0.24833333333333338,2.8349000000357663],[0.18864583333333323,0.29259259259259257,2.8532000000476856],[0.21687500000000004,0.3199999999999999,2.869500000000002],[0.24104166666666677,0.31574074074074077,2.8848000000119214],[0.2704166666666666,0.2857407407407407,2.9014999999999986],[0.2853125000000001,0.32111111111111107,2.921300000011918],[0.28458333333333335,0.33537037037037043,2.936100000023842],[0.25281250000000005,0.33666666666666656,2.951500000000003],[0.23114583333333344,0.32518518518518524,2.9682000000476876],[0.1859375,0.32888888888888895,2.9881000000238416],[0.15291666666666662,0.33425925925925926,3.0065000000000026],[0.1490624999999999,0.31203703703703706,3.0217000000476872],[0.11739583333333338,0.3140740740740741,3.0352000000476878],[0.10395833333333329,0.3392592592592593,3.051499999999997],[0.11531250000000005,0.3483333333333334,3.070400000035761],[0.1492708333333333,0.29981481481481476,3.0849000000357663],[0.17927083333333324,0.23944444444444435,3.1015000000000015],[0.20125000000000004,0.20907407407407402,3.118200000047686],[0.2263541666666666,0.17833333333333326,3.1348000000119214],[0.27395833333333336,0.15166666666666662,3.1514999999999986],[0.29239583333333335,0.14166666666666666,3.1682000000476833],[0.2835416666666667,0.0962962962962963,3.1850000000000023],[0.3004166666666668,0.05018518518518523,3.2036000000238403],[0.29697916666666657,0.034444444444444486,3.219400000035762],[0.25583333333333325,0.03296296296296288,3.234900000035765],[0.21739583333333337,0.03685185185185181,3.2515],[0.18291666666666656,0.05259259259259255,3.271800000011922],[0.17395833333333333,0.0507407407407407,3.2869000000357644],[0.14729166666666677,0.07703703703703708,3.3019999999999996],[0.1256249999999999,0.041666666666666664,3.31810000002384],[0.08781249999999995,0.022777777777777692,3.338200000047685],[0.05593750000000005,0.03537037037037041,3.3530000000000015],[0.04812500000000005,0.014814814814814815,3.368200000047686],[0.04645833333333336,-0.02759259259259255,3.3849000000357634],[0.05625,-0.06814814814814817,3.405800000011922],[0.06333333333333328,-0.11407407407407412,3.4212000000476834],[0.07854166666666676,-0.1403703703703704,3.4351000000238443],[0.09104166666666676,-0.15499999999999997,3.451500000000003],[0.0821875000000001,-0.16648148148148145,3.472400000035762],[0.06177083333333329,-0.14722222222222223,3.4873000000119205],[0.057500000000000044,-0.14444444444444443,3.5033000000119188],[0.07333333333333343,-0.14833333333333337,3.5199000000357614],[0.07333333333333343,-0.14833333333333337,3.5350000000000037],[0.06510416666666667,-0.1190740740740741,3.551499999999997],[0.0515625,-0.09055555555555551,3.568200000047682],[0.03572916666666662,-0.06574074074074074,3.5849000000357663],[0.019895833333333356,-0.04092592592592597,3.602700000047683],[0.025729166666666713,-0.055740740740740785,3.622800000011921],[0.03156249999999995,-0.0705555555555556,3.639499999999998],[0.06843750000000005,-0.11592592592592597,3.6556000000238456],[0.06843750000000005,-0.11592592592592597,3.6685000000000016],[0.08937499999999995,-0.13444444444444448,3.6850000000000023],[0.09729166666666676,-0.11814814814814817,3.7057000000476847],[0.09833333333333343,-0.12074074074074072,3.722999999999999],[0.09833333333333343,-0.12074074074074072,3.734900000035765],[0.09937500000000009,-0.12333333333333338,3.751600000023842],[0.12833333333333338,-0.1455555555555556,3.7682000000476847],[0.16104166666666658,-0.16407407407407412,3.784900000035762],[0.1912499999999999,-0.19222222222222224,3.810400000035763],[0.1912499999999999,-0.19222222222222224,3.818200000047682],[0.1788541666666667,-0.11870370370370374,3.8348000000119242],[0.1664583333333333,-0.04518518518518514,3.8515000000000015],[0.17843749999999994,-0.013703703703703662,3.868100000023844],[0.17156250000000003,0.03555555555555564,3.888300000011924],[0.1734375,0.07092592592592584,3.904700000047683],[0.16958333333333328,0.12314814814814815,3.9194999999999993],[0.16572916666666657,0.17537037037037045,3.9349000000357606],[0.13583333333333342,0.24296296296296305,3.9544000000357613],[0.10593750000000005,0.31055555555555564,3.968600000023841],[0.0900000000000001,0.37537037037037047,3.984800000011923],[0.08687500000000009,0.35851851851851857,4.0015],[0.10270833333333323,0.32944444444444443,4.018200000047685],[0.08864583333333324,0.36796296296296305,4.03480000001192],[0.11270833333333338,0.35425925925925916,4.051499999999997],[0.10666666666666676,0.35185185185185186,4.068300000011924],[0.10666666666666676,0.35185185185185186,4.087800000011924],[0.09427083333333333,0.37666666666666665,4.1016000000238435],[0.0896874999999999,0.38944444444444437,4.118200000047686],[0.08854166666666667,0.4072222222222222,4.134900000035763],[0.08854166666666667,0.4072222222222222,4.155900000035764],[0.07947916666666661,0.4335185185185186,4.16840000003576],[0.058958333333333356,0.4722222222222222,4.186600000023844],[0.0626041666666667,0.4696296296296297,4.205800000011919],[0.034791666666666644,0.4988888888888888,4.223100000023841],[0.022395833333333334,0.493888888888889,4.238300000011918],[-0.001145833333333357,0.5003703703703705,4.255400000035763],[-0.002395833333333286,0.4992592592592593,4.270800000011924],[-0.013229166666666714,0.5135185185185185,4.288499999999999],[-0.03187500000000002,0.5398148148148149,4.3076000000238395],[-0.03187500000000002,0.5398148148148149,4.318300000011924],[-0.016250000000000025,0.5116666666666666,4.335100000023843],[-0.002916666666666619,0.4733333333333334,4.354700000047686],[0.010416666666666666,0.43499999999999994,4.372800000011921],[0.00614583333333331,0.44166666666666665,4.387999999999998],[0.014374999999999952,0.4287037037037037,4.404600000023841],[0.0078125,0.3890740740740741,4.4248000000119205],[0.0078125,0.3890740740740741,4.434900000035761],[0.00302083333333331,0.37888888888888894,4.4518000000119216],[0.012083333333333357,0.34888888888888886,4.468300000011922],[0.03354166666666671,0.31074074074074065,4.489200000047681],[0.057291666666666664,0.22611111111111115,4.505400000035763],[0.051979166666666646,0.20703703703703696,4.5214000000357615],[0.05687500000000002,0.1896296296296296,4.5383000000119225],[0.057395833333333354,0.17907407407407416,4.554600000023839],[0.057395833333333354,0.17907407407407416,4.568300000011924],[0.05135416666666662,0.1648148148148148,4.585000000000001],[0.03343750000000002,0.15722222222222218,4.606000000000002],[0.03343750000000002,0.15722222222222218,4.618200000047686],[0.034375,0.1574074074074074,4.634999999999998],[0.022187499999999954,0.17962962962962964,4.651700000047683],[0.003541666666666643,0.17759259259259255,4.671700000047686],[0.003541666666666643,0.17759259259259255,4.685100000023844],[0.007708333333333309,0.1300000000000001,4.7018000000119216],[0.007708333333333309,0.1300000000000001,4.722200000047685],[0.004479166666666619,0.11555555555555551,4.734900000035765],[0.008437500000000023,0.07462962962962955,4.7514000000357655],[0.0109375,0.03685185185185181,4.775100000023841],[0.0109375,0.03685185185185181,4.78480000001192],[-0.002708333333333357,0.020555555555555598,4.801600000023839],[-0.007708333333333309,-0.00592592592592601,4.81810000002384],[0.008645833333333287,-0.05129629629629638,4.836200000047683],[0.011041666666666691,-0.07148148148148152,4.851900000035762],[0.016666666666666666,-0.12018518518518514,4.868100000023844],[0.033645833333333285,-0.15833333333333333,4.884800000011921],[0.01604166666666664,-0.17,4.903200000047683],[0.01583333333333338,-0.14462962962962966,4.920800000011923],[0.0032291666666666905,-0.10388888888888893,4.936200000047684],[-0.002499999999999976,-0.07296296296296292,4.951500000000003],[0.02041666666666669,-0.07000000000000002,4.968200000047688],[0.021249999999999977,-0.07611111111111116,4.990200000047686],[0.021249999999999977,-0.07611111111111116,5.010400000035766],[0.016562499999999977,-0.05870370370370368,5.029400000035764],[0.016562499999999977,-0.05870370370370368,5.0377000000476855],[0.021458333333333357,-0.05407407407407405,5.051499999999997],[0.02374999999999995,-0.03777777777777774,5.06810000002384],[0.019375000000000024,-0.012592592592592508,5.084800000011924],[0.024270833333333287,0.009629629629629714,5.1015000000000015],[0.016875000000000046,0.008148148148148106,5.118200000047686],[0.027291666666666714,-0.009629629629629714,5.134900000035763],[0.036249999999999956,-0.008333333333333333,5.151499999999999],[0.052187500000000026,-0.0031481481481482323,5.168100000023841],[0.05562499999999997,0.009074074074074031,5.1848000000119185],[0.05510416666666664,0.009999999999999959,5.201500000000003],[0.0484375,0.025370370370370456,5.2181000000238456],[0.044375000000000026,0.02907407407407416,5.234900000035765],[0.03302083333333338,0.06018518518518518,5.2515],[0.03322916666666664,0.07962962962962963,5.268100000023843],[0.030520833333333285,0.08722222222222227,5.284900000035762],[0.0037500000000000237,0.07981481481481485,5.301600000023839],[0.00302083333333331,0.0544444444444444,5.31810000002384],[-0.01875,0.016666666666666666,5.334800000011924],[-0.00791666666666669,0.018518518518518517,5.3515000000000015],[0.002916666666666619,0.020370370370370372,5.368200000047686],[0.002916666666666619,0.020370370370370372,5.384900000035763],[0.014791666666666713,0.013888888888888888,5.401700000047683],[0.03239583333333336,-0.009074074074074031,5.418100000023841],[0.028541666666666642,-0.02092592592592584,5.4348000000119185],[0.028541666666666642,-0.02092592592592584,5.451500000000003],[0.02666666666666669,-0.037037037037037035,5.468200000047688],[0.03322916666666664,-0.024629629629629547,5.484800000011923],[0.04989583333333331,-0.01962962962962967,5.501600000023842],[0.036562500000000026,-0.009074074074074031,5.521000000000001],[0.04718749999999995,-0.011666666666666582,5.53480000001192],[0.05552083333333328,-0.04222222222222214,5.551400000035763],[0.058333333333333334,-0.06481481481481481,5.56810000002384],[0.02687499999999995,-0.04796296296296292,5.587700000047683],[-0.010312499999999976,-0.014629629629629588,5.602800000011925],[0.01895833333333338,-0.04018518518518527,5.618100000023844],[0.04822916666666662,-0.06574074074074074,5.634900000035763],[0.0578125,-0.10444444444444441,5.655100000023843],[0.060104166666666715,-0.11944444444444445,5.66840000003576],[0.06302083333333333,-0.12333333333333338,5.685200000047686],[0.04791666666666667,-0.10592592592592591,5.704700000047687],[0.04791666666666667,-0.10592592592592591,5.718200000047688],[0.043020833333333286,-0.11129629629629634,5.734900000035765],[0.013125000000000024,-0.10444444444444441,5.7515],[0.017916666666666713,-0.12833333333333335,5.768200000047685],[0.022916666666666665,-0.15685185185185183,5.784900000035762],[-0.025729166666666713,-0.14944444444444444,5.802200000047684],[-0.07437499999999998,-0.14203703703703702,5.818200000047682],[-0.09333333333333335,-0.14648148148148152,5.834900000035766],[-0.10885416666666667,-0.1359259259259259,5.854700000047686],[-0.14249999999999996,-0.12259259259259257,5.868100000023844],[-0.17614583333333336,-0.10925925925925926,5.884800000011921],[-0.21166666666666673,-0.06796296296296295,5.902200000047685],[-0.21166666666666673,-0.06796296296296295,5.919300000011923],[-0.225,-0.04870370370370362,5.934900000035761]]","[0.0003000000119186552,0.039200000047685535,0.051499999999997215,0.06840000003576563,0.08480000001192423,0.10230000001192252,0.11970000004768622,0.1349000000357634,0.15160000002384066,0.16820000004768332,0.18650000000000233,0.20199999999999818,0.21830000001192218,0.23490000003576483,0.25150000000000006,0.26820000004768474,0.284900000035762,0.30160000002383924,0.3182000000476819,0.3393000000119244,0.35420000004768326,0.3684999999999974,0.38510000002384004,0.40610000002384083,0.42080000001192275,0.436900000035763,0.4515000000000029,0.4683000000119222,0.48490000003576483,0.5016000000238421,0.5197000000476848,0.534900000035762,0.5516000000238392,0.5682000000476819,0.5850000000000009,0.6071000000238413,0.6182000000476862,0.6349000000357634,0.6514999999999986,0.668300000011925,0.6850000000000023,0.7016000000238449,0.7182000000476876,0.7404000000357627,0.7516000000238421,0.7683000000119193,0.784900000035762,0.8046000000238394,0.8242000000476821,0.8408000000119245,0.8544000000357599,0.8682000000476862,0.8849000000357634,0.9016000000238407,0.918300000011925,0.9348000000119185,0.9515000000000029,0.9683000000119222,0.9848000000119228,1.0017000000476841,1.0182000000476847,1.034900000035762,1.0514999999999972,1.0683000000119236,1.0886000000238454,1.1030000000000015,1.1181000000238441,1.1349000000357634,1.1516000000238407,1.1682000000476833,1.1848000000119185,1.201600000023845,1.2184000000357642,1.2349000000357648,1.2515,1.2682000000476847,1.2851000000238457,1.301800000011923,1.318200000047682,1.3348000000119242,1.3522000000476808,1.3682000000476862,1.3849000000357634,1.4018000000119244,1.4182000000476833,1.4349000000357606,1.451500000000003,1.4682000000476876,1.4851000000238415,1.5017000000476841,1.5182000000476847,1.534900000035762,1.5516000000238392,1.568200000047682,1.5849000000357663,1.602800000011925,1.6182000000476862,1.6375000000000028,1.6516000000238407,1.6682000000476833,1.6888000000119234,1.7018000000119216,1.7183000000119222,1.7349000000357648,1.7515,1.7682000000476847,1.784900000035762,1.8017000000476813,1.818200000047682,1.8349000000357663,1.8515000000000015,1.8682000000476862,1.8848000000119214,1.902000000000001,1.9182000000476833,1.9349000000357606,1.951600000023845,1.9682000000476876,1.9848000000119228,2.001600000023842,2.0181000000238427,2.0350000000000037,2.051499999999997,2.068200000047682,2.0849000000357663,2.101900000035762,2.118100000023844,2.1349000000357634,2.1514999999999986,2.16840000003576,2.1863000000119186,2.201600000023845,2.2182000000476876,2.2351000000238415,2.2515,2.2682000000476847,2.284900000035762,2.301800000011923,2.318200000047682,2.3349000000357663,2.3516000000238435,2.368200000047686,2.3849000000357634,2.4016000000238407,2.4181000000238413,2.4349000000357606,2.451500000000003,2.4682000000476876,2.484900000035765,2.5015,2.5182000000476847,2.534900000035762,2.551499999999997,2.568200000047682,2.5891000000238407,2.60440000003576,2.618200000047686,2.6349000000357634,2.65530000001192,2.6688000000119203,2.6878000000119187,2.701600000023845,2.718300000011922,2.734900000035765,2.7515,2.7682000000476847,2.788100000023846,2.8043000000119207,2.8199000000357657,2.8349000000357663,2.8532000000476856,2.869500000000002,2.8848000000119214,2.9014999999999986,2.921300000011918,2.936100000023842,2.951500000000003,2.9682000000476876,2.9881000000238416,3.0065000000000026,3.0217000000476872,3.0352000000476878,3.051499999999997,3.070400000035761,3.0849000000357663,3.1015000000000015,3.118200000047686,3.1348000000119214,3.1514999999999986,3.1682000000476833,3.1850000000000023,3.2036000000238403,3.219400000035762,3.234900000035765,3.2515,3.271800000011922,3.2869000000357644,3.3019999999999996,3.31810000002384,3.338200000047685,3.3530000000000015,3.368200000047686,3.3849000000357634,3.405800000011922,3.4212000000476834,3.4351000000238443,3.451500000000003,3.472400000035762,3.4873000000119205,3.5033000000119188,3.5199000000357614,3.5350000000000037,3.551499999999997,3.568200000047682,3.5849000000357663,3.602700000047683,3.622800000011921,3.639499999999998,3.6556000000238456,3.6685000000000016,3.6850000000000023,3.7057000000476847,3.722999999999999,3.734900000035765,3.751600000023842,3.7682000000476847,3.784900000035762,3.810400000035763,3.818200000047682,3.8348000000119242,3.8515000000000015,3.868100000023844,3.888300000011924,3.904700000047683,3.9194999999999993,3.9349000000357606,3.9544000000357613,3.968600000023841,3.984800000011923,4.0015,4.018200000047685,4.03480000001192,4.051499999999997,4.068300000011924,4.087800000011924,4.1016000000238435,4.118200000047686,4.134900000035763,4.155900000035764,4.16840000003576,4.186600000023844,4.205800000011919,4.223100000023841,4.238300000011918,4.255400000035763,4.270800000011924,4.288499999999999,4.3076000000238395,4.318300000011924,4.335100000023843,4.354700000047686,4.372800000011921,4.387999999999998,4.404600000023841,4.4248000000119205,4.434900000035761,4.4518000000119216,4.468300000011922,4.489200000047681,4.505400000035763,4.5214000000357615,4.5383000000119225,4.554600000023839,4.568300000011924,4.585000000000001,4.606000000000002,4.618200000047686,4.634999999999998,4.651700000047683,4.671700000047686,4.685100000023844,4.7018000000119216,4.722200000047685,4.734900000035765,4.7514000000357655,4.775100000023841,4.78480000001192,4.801600000023839,4.81810000002384,4.836200000047683,4.851900000035762,4.868100000023844,4.884800000011921,4.903200000047683,4.920800000011923,4.936200000047684,4.951500000000003,4.968200000047688,4.990200000047686,5.010400000035766,5.029400000035764,5.0377000000476855,5.051499999999997,5.06810000002384,5.084800000011924,5.1015000000000015,5.118200000047686,5.134900000035763,5.151499999999999,5.168100000023841,5.1848000000119185,5.201500000000003,5.2181000000238456,5.234900000035765,5.2515,5.268100000023843,5.284900000035762,5.301600000023839,5.31810000002384,5.334800000011924,5.3515000000000015,5.368200000047686,5.384900000035763,5.401700000047683,5.418100000023841,5.4348000000119185,5.451500000000003,5.468200000047688,5.484800000011923,5.501600000023842,5.521000000000001,5.53480000001192,5.551400000035763,5.56810000002384,5.587700000047683,5.602800000011925,5.618100000023844,5.634900000035763,5.655100000023843,5.66840000003576,5.685200000047686,5.704700000047687,5.718200000047688,5.734900000035765,5.7515,5.768200000047685,5.784900000035762,5.802200000047684,5.818200000047682,5.834900000035766,5.854700000047686,5.868100000023844,5.884800000011921,5.902200000047685,5.919300000011923,5.934900000035761]","[1732877408833,1732877408864,1732877408876,1732877408893,1732877408910,1732877408927,1732877408945,1732877408960,1732877408976,1732877408993,1732877409011,1732877409027,1732877409043,1732877409060,1732877409076,1732877409093,1732877409110,1732877409126,1732877409143,1732877409164,1732877409179,1732877409193,1732877409210,1732877409231,1732877409246,1732877409262,1732877409276,1732877409293,1732877409310,1732877409326,1732877409344,1732877409360,1732877409376,1732877409393,1732877409410,1732877409432,1732877409443,1732877409460,1732877409476,1732877409493,1732877409510,1732877409526,1732877409543,1732877409565,1732877409576,1732877409593,1732877409610,1732877409629,1732877409649,1732877409666,1732877409679,1732877409693,1732877409710,1732877409726,1732877409743,1732877409760,1732877409776,1732877409793,1732877409810,1732877409826,1732877409843,1732877409860,1732877409876,1732877409893,1732877409913,1732877409928,1732877409943,1732877409960,1732877409976,1732877409993,1732877410010,1732877410026,1732877410043,1732877410060,1732877410076,1732877410093,1732877410110,1732877410127,1732877410143,1732877410160,1732877410177,1732877410193,1732877410210,1732877410227,1732877410243,1732877410260,1732877410276,1732877410293,1732877410310,1732877410326,1732877410343,1732877410360,1732877410376,1732877410393,1732877410410,1732877410428,1732877410443,1732877410462,1732877410476,1732877410493,1732877410514,1732877410527,1732877410543,1732877410560,1732877410576,1732877410593,1732877410610,1732877410626,1732877410643,1732877410660,1732877410676,1732877410693,1732877410710,1732877410727,1732877410743,1732877410760,1732877410776,1732877410793,1732877410810,1732877410826,1732877410843,1732877410860,1732877410876,1732877410893,1732877410910,1732877410927,1732877410943,1732877410960,1732877410976,1732877410993,1732877411011,1732877411026,1732877411043,1732877411060,1732877411076,1732877411093,1732877411110,1732877411127,1732877411143,1732877411160,1732877411176,1732877411193,1732877411210,1732877411226,1732877411243,1732877411260,1732877411276,1732877411293,1732877411310,1732877411326,1732877411343,1732877411360,1732877411376,1732877411393,1732877411414,1732877411429,1732877411443,1732877411460,1732877411480,1732877411494,1732877411513,1732877411526,1732877411543,1732877411560,1732877411576,1732877411593,1732877411613,1732877411629,1732877411645,1732877411660,1732877411678,1732877411694,1732877411710,1732877411726,1732877411746,1732877411761,1732877411776,1732877411793,1732877411813,1732877411831,1732877411846,1732877411860,1732877411876,1732877411895,1732877411910,1732877411926,1732877411943,1732877411960,1732877411976,1732877411993,1732877412010,1732877412028,1732877412044,1732877412060,1732877412076,1732877412097,1732877412112,1732877412127,1732877412143,1732877412163,1732877412178,1732877412193,1732877412210,1732877412231,1732877412246,1732877412260,1732877412276,1732877412297,1732877412312,1732877412328,1732877412345,1732877412360,1732877412376,1732877412393,1732877412410,1732877412427,1732877412447,1732877412464,1732877412480,1732877412493,1732877412510,1732877412531,1732877412548,1732877412560,1732877412576,1732877412593,1732877412610,1732877412635,1732877412643,1732877412660,1732877412676,1732877412693,1732877412713,1732877412729,1732877412744,1732877412760,1732877412779,1732877412793,1732877412810,1732877412826,1732877412843,1732877412860,1732877412876,1732877412893,1732877412913,1732877412926,1732877412943,1732877412960,1732877412981,1732877412993,1732877413011,1732877413031,1732877413048,1732877413063,1732877413080,1732877413096,1732877413113,1732877413132,1732877413143,1732877413160,1732877413179,1732877413198,1732877413213,1732877413229,1732877413250,1732877413260,1732877413277,1732877413293,1732877413314,1732877413330,1732877413346,1732877413363,1732877413379,1732877413393,1732877413410,1732877413431,1732877413443,1732877413460,1732877413477,1732877413497,1732877413510,1732877413527,1732877413547,1732877413560,1732877413576,1732877413600,1732877413610,1732877413626,1732877413643,1732877413661,1732877413677,1732877413693,1732877413710,1732877413728,1732877413746,1732877413761,1732877413776,1732877413793,1732877413815,1732877413835,1732877413854,1732877413862,1732877413876,1732877413893,1732877413910,1732877413926,1732877413943,1732877413960,1732877413976,1732877413993,1732877414010,1732877414026,1732877414043,1732877414060,1732877414076,1732877414093,1732877414110,1732877414126,1732877414143,1732877414160,1732877414176,1732877414193,1732877414210,1732877414227,1732877414243,1732877414260,1732877414276,1732877414293,1732877414310,1732877414326,1732877414346,1732877414360,1732877414376,1732877414393,1732877414412,1732877414427,1732877414443,1732877414460,1732877414480,1732877414493,1732877414510,1732877414530,1732877414543,1732877414560,1732877414576,1732877414593,1732877414610,1732877414627,1732877414643,1732877414660,1732877414679,1732877414693,1732877414710,1732877414727,1732877414744,1732877414760]","[[766.5,553.4],[766.5,553.4],[765.7,536.3],[765.4,529.1],[750.4,529.1],[758.6,508.8],[763.8,486.6],[766.5,470.5],[783.3,464.8],[807.5,457.4],[831.7,450],[831.7,450],[846.7,430.4],[869.9,438],[893.1,445.6],[893.1,445.6],[909.3,453.4],[931.5,464],[959.6,477.7],[978.7,483.4],[974.1,468.3],[957.8,467.3],[956.5,452.6],[946.5,452.7],[920.2,444.7],[893.9,436.7],[902.1,425],[902.1,425],[904.3,410.5],[900.6,397.9],[912.1,395.9],[912.1,395.9],[933.2,392.9],[950.4,382.3],[970.4,394.9],[984.2,393.1],[984.2,393.1],[984.3,402.3],[985.6,397.5],[985.6,397.5],[962.8,416],[962.8,416],[929.4,431.5],[919.5,437.3],[919.5,437.3],[919,438.2],[904.1,448.7],[896.9,459.4],[896.9,459.4],[884.2,459.6],[883.8,476.3],[893.4,477.8],[893.4,477.8],[916.2,485.9],[936.3,487.5],[957.9,492],[957.9,492],[957.5,503.6],[941.5,517.5],[923.3,515.9],[923.3,515.9],[913,507.6],[913.1,512.7],[889,509.2],[876.9,494.5],[856.9,513.6],[823.2,515.2],[798.6,516.9],[798.6,516.9],[787,519.9],[804.1,504.3],[827.6,505.4],[831,502.7],[796.7,508.9],[828.9,491],[856.7,492],[869,460.1],[898.1,436.5],[910.9,421.1],[915.1,405.1],[903.4,434.2],[895.8,447.3],[904.3,467.1],[944.5,470.2],[947.9,503.5],[942.2,517.5],[945.5,538],[935,573.4],[945.6,588],[945.6,588],[926.9,619],[946.3,593.2],[951.1,593],[951.1,593],[959.9,589.9],[975.9,583.3],[1011.1,549.1],[1046.1,531.4],[1075.4,504.8],[1105.9,477.3],[1130.5,480.3],[1130.5,480.3],[1184.4,466.9],[1170.6,488.9],[1193.3,482.3],[1216,475.7],[1223.5,441.2],[1214.1,460.3],[1204.7,479.4],[1145.4,515.2],[1098.7,537],[1069.7,522.5],[1027.5,525.5],[993.9,528],[944.5,538.7],[910.1,536.2],[867.8,538.4],[822.1,517.8],[790.5,505.8],[814.5,486],[829.8,485.6],[828.5,503.6],[846.4,501],[889.3,478.1],[892.3,480.3],[891.3,475.7],[898.7,486.1],[907.2,493.3],[899.8,514],[892.4,534.7],[893.7,536],[894.1,503.5],[884.3,483.1],[870.9,477.9],[879.1,467.7],[886.2,459.5],[884.4,454.3],[878.9,466],[875.2,455.6],[882.9,454.2],[873.3,448.1],[864.6,475.8],[864.6,475.8],[872.8,469.2],[853.9,473.7],[853.3,458.1],[866,446.8],[877.1,457.5],[876.5,444.6],[866.3,435.4],[884.5,444.3],[920,457.9],[944.5,474.7],[959.9,502.8],[986.6,516.2],[1015.7,534.9],[1021.6,567.3],[983.8,583],[961.4,605.4],[989,620.5],[976.8,608.5],[976.8,608.5],[959.6,610.4],[959.6,610.4],[945.6,604.9],[943,624.8],[958.6,642.8],[962.1,662.4],[988.2,673.8],[1075.6,674.1],[1141.1,698],[1168.2,712.8],[1191.4,710.5],[1219.6,694.3],[1233.9,713.4],[1233.2,721.1],[1202.7,721.8],[1181.9,715.6],[1138.5,717.6],[1106.8,720.5],[1103.1,708.5],[1072.7,709.6],[1059.8,723.2],[1070.7,728.1],[1103.3,701.9],[1132.1,669.3],[1153.2,652.9],[1177.3,636.3],[1223,621.9],[1240.7,616.5],[1232.2,592],[1248.4,567.1],[1245.1,558.6],[1205.6,557.8],[1168.7,559.9],[1135.6,568.4],[1127,567.4],[1101.4,581.6],[1080.6,562.5],[1044.3,552.3],[1013.7,559.1],[1006.2,548],[1004.6,525.1],[1014,503.2],[1020.8,478.4],[1035.4,464.2],[1047.4,456.3],[1038.9,450.1],[1019.3,460.5],[1015.2,462],[1030.4,459.9],[1030.4,459.9],[1022.5,475.7],[1009.5,491.1],[994.3,504.5],[979.1,517.9],[984.7,509.9],[990.3,501.9],[1025.7,477.4],[1025.7,477.4],[1045.8,467.4],[1053.4,476.2],[1054.4,474.8],[1054.4,474.8],[1055.4,473.4],[1083.2,461.4],[1114.6,451.4],[1143.6,436.2],[1143.6,436.2],[1131.7,475.9],[1119.8,515.6],[1131.3,532.6],[1124.7,559.2],[1126.5,578.3],[1122.8,606.5],[1119.1,634.7],[1090.4,671.2],[1061.7,707.7],[1046.4,742.7],[1043.4,733.6],[1058.6,717.9],[1045.1,738.7],[1068.2,731.3],[1062.4,730],[1062.4,730],[1050.5,743.4],[1046.1,750.3],[1045,759.9],[1045,759.9],[1036.3,774.1],[1016.6,795],[1020.1,793.6],[993.4,809.4],[981.5,806.7],[958.9,810.2],[957.7,809.6],[947.3,817.3],[929.4,831.5],[929.4,831.5],[944.4,816.3],[957.2,795.6],[970,774.9],[965.9,778.5],[973.8,771.5],[967.5,750.1],[967.5,750.1],[962.9,744.6],[971.6,728.4],[992.2,707.8],[1015,662.1],[1009.9,651.8],[1014.6,642.4],[1015.1,636.7],[1015.1,636.7],[1009.3,629],[992.1,624.9],[992.1,624.9],[993,625],[981.3,637],[963.4,635.9],[963.4,635.9],[967.4,610.2],[967.4,610.2],[964.3,602.4],[968.1,580.3],[970.5,559.9],[970.5,559.9],[957.4,551.1],[952.6,536.8],[968.3,512.3],[970.6,501.4],[976,475.1],[992.3,454.5],[975.4,448.2],[975.2,461.9],[963.1,483.9],[957.6,500.6],[979.6,502.2],[980.4,498.9],[980.4,498.9],[975.9,508.3],[975.9,508.3],[980.6,510.8],[982.8,519.6],[978.6,533.2],[983.3,545.2],[976.2,544.4],[986.2,534.8],[994.8,535.5],[1010.1,538.3],[1013.4,544.9],[1012.9,545.4],[1006.5,553.7],[1002.6,555.7],[991.7,572.5],[991.9,583],[989.3,587.1],[963.6,583.1],[962.9,569.4],[942,549],[952.4,550],[962.8,551],[962.8,551],[974.2,547.5],[991.1,535.1],[987.4,528.7],[987.4,528.7],[985.6,520],[991.9,526.7],[1007.9,529.4],[995.1,535.1],[1005.3,533.7],[1013.3,517.2],[1016,505],[985.8,514.1],[950.1,532.1],[978.2,518.3],[1006.3,504.5],[1015.5,483.6],[1017.7,475.5],[1020.5,473.4],[1006,482.8],[1006,482.8],[1001.3,479.9],[972.6,483.6],[977.2,470.7],[982,455.3],[935.3,459.3],[888.6,463.3],[870.4,460.9],[855.5,466.6],[823.2,473.8],[790.9,481],[756.8,503.3],[756.8,503.3],[744,513.7]]","[0,0.151169218]","[0.151169218,0.151169218]","[-0.151169218,0]","[-0.151169218,-0.151169218]","[0,0]","[0.151169218,0]","[0,-0.151169218]","[0.151169218,-0.151169218]",0,0,0,0,1,3,Smartphone,11,9,9,1
