inst1_resp.keys,inst1_resp.rt,calibrationMouse.x,calibrationMouse.y,calibrationMouse.leftButton,calibrationMouse.midButton,calibrationMouse.rightButton,calibrationClick.x,calibrationClick.y,calibrationClick.leftButton,calibrationClick.midButton,calibrationClick.rightButton,calibrationClick.clicked_name,trialsc.thisRepN,trialsc.thisTrialN,trialsc.thisN,trialsc.thisIndex,trialsc.ran,calibration_x,calibration_y,participant,session,date,expName,psychopyVersion,OS,frameRate,ScreenRes_pixels,Camera_pixels,mouse_2.x,mouse_2.y,mouse_2.leftButton,mouse_2.midButton,mouse_2.rightButton,mouse_2.time,mouse_2.clicked_name,mouse.x,mouse.y,mouse.leftButton,mouse.midButton,mouse.rightButton,mouse.time,mouse.clicked_name,Choice,Trial,TrialDuration,MOUSE_GAZE,ET_GAZE,ET_GAZE_x_T,time,unixTime,ET_GAZE_NF,Loc_Option1_label,Loc_Option2_label,Loc_Cost_label,Loc_Qual_label,Loc_Option1_cost,Loc_Option2_cost,Loc_Option1_quality,Loc_Option2_quality,trials.thisRepN,trials.thisTrialN,trials.thisN,trials.thisIndex,trials.ran,Block,Device,cost1,qual1,cost2,qual2
space,5.0549,0.1625,-0.316666667,1,0,0,0.007291667,-0.67037037,1,0,0,calibration_square,0,0,0,9,1,0,-0.67,39,001,2024-11-30_11h43.40.557,Attention_exp_legacy,2023.1.0,Win32,59.88023952,,,,,,,,,,,,,,,,,,,,,,,,,,,,,,,,,,,,,,,,,,,,
,,,,,,,-0.338541667,0.666666667,1,0,0,calibration_square,0,1,1,8,1,-0.33,0.67,39,001,2024-11-30_11h43.40.557,Attention_exp_legacy,2023.1.0,Win32,59.88023952,,,,,,,,,,,,,,,,,,,,,,,,,,,,,,,,,,,,,,,,,,,,
,,,,,,,0.661458333,-0.666666667,1,0,0,calibration_square,0,2,2,20,1,0.67,-0.67,39,001,2024-11-30_11h43.40.557,Attention_exp_legacy,2023.1.0,Win32,59.88023952,,,,,,,,,,,,,,,,,,,,,,,,,,,,,,,,,,,,,,,,,,,,
,,,,,,,-0.669791667,-0.664814815,1,0,0,calibration_square,0,3,3,0,1,-0.67,-0.67,39,001,2024-11-30_11h43.40.557,Attention_exp_legacy,2023.1.0,Win32,59.88023952,,,,,,,,,,,,,,,,,,,,,,,,,,,,,,,,,,,,,,,,,,,,
,,,,,,,0.320833333,0.672222222,1,0,0,calibration_square,0,4,4,18,1,0.33,0.67,39,001,2024-11-30_11h43.40.557,Attention_exp_legacy,2023.1.0,Win32,59.88023952,,,,,,,,,,,,,,,,,,,,,,,,,,,,,,,,,,,,,,,,,,,,
,,,,,,,0.336458333,0.324074074,1,0,0,calibration_square,0,5,5,17,1,0.33,0.33,39,001,2024-11-30_11h43.40.557,Attention_exp_legacy,2023.1.0,Win32,59.88023952,,,,,,,,,,,,,,,,,,,,,,,,,,,,,,,,,,,,,,,,,,,,
,,,,,,,-0.666666667,-0.32962963,1,0,0,calibration_square,0,6,6,1,1,-0.67,-0.33,39,001,2024-11-30_11h43.40.557,Attention_exp_legacy,2023.1.0,Win32,59.88023952,,,,,,,,,,,,,,,,,,,,,,,,,,,,,,,,,,,,,,,,,,,,
,,,,,,,-0.00625,-0.333333333,1,0,0,calibration_square,0,7,7,10,1,0,-0.33,39,001,2024-11-30_11h43.40.557,Attention_exp_legacy,2023.1.0,Win32,59.88023952,,,,,,,,,,,,,,,,,,,,,,,,,,,,,,,,,,,,,,,,,,,,
,,,,,,,-0.326041667,-0.664814815,1,0,0,calibration_square,0,8,8,4,1,-0.33,-0.67,39,001,2024-11-30_11h43.40.557,Attention_exp_legacy,2023.1.0,Win32,59.88023952,,,,,,,,,,,,,,,,,,,,,,,,,,,,,,,,,,,,,,,,,,,,
,,,,,,,-0.328125,-0.324074074,1,0,0,calibration_square,0,9,9,5,1,-0.33,-0.33,39,001,2024-11-30_11h43.40.557,Attention_exp_legacy,2023.1.0,Win32,59.88023952,,,,,,,,,,,,,,,,,,,,,,,,,,,,,,,,,,,,,,,,,,,,
,,,,,,,0.33125,-0.342592593,1,0,0,,0,10,10,15,1,0.33,-0.33,39,001,2024-11-30_11h43.40.557,Attention_exp_legacy,2023.1.0,Win32,59.88023952,,,,,,,,,,,,,,,,,,,,,,,,,,,,,,,,,,,,,,,,,,,,
,,,,,,,-0.327083333,0.325925926,1,0,0,calibration_square,0,11,11,7,1,-0.33,0.33,39,001,2024-11-30_11h43.40.557,Attention_exp_legacy,2023.1.0,Win32,59.88023952,,,,,,,,,,,,,,,,,,,,,,,,,,,,,,,,,,,,,,,,,,,,
,,,,,,,0.005208333,0.677777778,1,0,0,calibration_square,0,12,12,13,1,0,0.67,39,001,2024-11-30_11h43.40.557,Attention_exp_legacy,2023.1.0,Win32,59.88023952,,,,,,,,,,,,,,,,,,,,,,,,,,,,,,,,,,,,,,,,,,,,
,,,,,,,0.002083333,0.331481481,1,0,0,calibration_square,0,13,13,12,1,0,0.33,39,001,2024-11-30_11h43.40.557,Attention_exp_legacy,2023.1.0,Win32,59.88023952,,,,,,,,,,,,,,,,,,,,,,,,,,,,,,,,,,,,,,,,,,,,
,,,,,,,0.330208333,0.003703704,1,0,0,calibration_square,0,14,14,16,1,0.33,0,39,001,2024-11-30_11h43.40.557,Attention_exp_legacy,2023.1.0,Win32,59.88023952,,,,,,,,,,,,,,,,,,,,,,,,,,,,,,,,,,,,,,,,,,,,
,,,,,,,-0.003125,-0.003703704,1,0,0,calibration_square,0,15,15,11,1,0,0,39,001,2024-11-30_11h43.40.557,Attention_exp_legacy,2023.1.0,Win32,59.88023952,,,,,,,,,,,,,,,,,,,,,,,,,,,,,,,,,,,,,,,,,,,,
,,,,,,,-0.663541667,0.001851852,1,0,0,calibration_square,0,16,16,2,1,-0.67,0,39,001,2024-11-30_11h43.40.557,Attention_exp_legacy,2023.1.0,Win32,59.88023952,,,,,,,,,,,,,,,,,,,,,,,,,,,,,,,,,,,,,,,,,,,,
,,,,,,,0.330208333,-0.662962963,1,0,0,calibration_square,0,17,17,14,1,0.33,-0.67,39,001,2024-11-30_11h43.40.557,Attention_exp_legacy,2023.1.0,Win32,59.88023952,,,,,,,,,,,,,,,,,,,,,,,,,,,,,,,,,,,,,,,,,,,,
,,,,,,,-0.682291667,0.340740741,1,0,0,,0,18,18,3,1,-0.67,0.33,39,001,2024-11-30_11h43.40.557,Attention_exp_legacy,2023.1.0,Win32,59.88023952,,,,,,,,,,,,,,,,,,,,,,,,,,,,,,,,,,,,,,,,,,,,
,,,,,,,0.665625,0.672222222,1,0,0,calibration_square,0,19,19,19,1,0.67,0.67,39,001,2024-11-30_11h43.40.557,Attention_exp_legacy,2023.1.0,Win32,59.88023952,,,,,,,,,,,,,,,,,,,,,,,,,,,,,,,,,,,,,,,,,,,,
,,,,,,,-0.339583333,0.007407407,1,0,0,calibration_square,0,20,20,6,1,-0.33,0,39,001,2024-11-30_11h43.40.557,Attention_exp_legacy,2023.1.0,Win32,59.88023952,,,,,,,,,,,,,,,,,,,,,,,,,,,,,,,,,,,,,,,,,,,,
,,,,,,,,,,,,,,,,,,,,39,001,2024-11-30_11h43.40.557,Attention_exp_legacy,2023.1.0,Win32,59.88023952,"[1920,1080]","[640,480]",[0.030208333333333334],[-0.4925925925925926],[1],[0],[0],[2.760900000035761],"[""StartButton""]",[0.19375],[0.16296296296296298],[1],[0],[0],[6.184300000011923],"[""Option2_label""]",Option2_label,1,7.194,"[[0.09270833333333334,-0.2814814814814815],[0.09270833333333334,-0.2814814814814815],[0.09270833333333334,-0.2814814814814815],[0.09270833333333334,-0.2814814814814815],[0.09270833333333334,-0.2814814814814815],[0.09270833333333334,-0.2814814814814815],[0.09270833333333334,-0.2814814814814815],[0.09270833333333334,-0.2814814814814815],[0.09270833333333334,-0.2814814814814815],[0.09270833333333334,-0.2814814814814815],[0.09270833333333334,-0.2814814814814815],[0.09270833333333334,-0.2814814814814815],[0.09270833333333334,-0.2814814814814815],[0.09270833333333334,-0.2814814814814815],[0.09270833333333334,-0.2814814814814815],[0.09270833333333334,-0.2814814814814815],[0.09270833333333334,-0.2814814814814815],[0.09270833333333334,-0.2814814814814815],[0.09270833333333334,-0.2814814814814815],[0.09270833333333334,-0.2814814814814815],[0.09270833333333334,-0.2814814814814815],[0.09270833333333334,-0.2814814814814815],[0.09270833333333334,-0.2814814814814815],[0.09270833333333334,-0.2814814814814815],[0.09270833333333334,-0.2814814814814815],[0.09270833333333334,-0.2814814814814815],[0.09270833333333334,-0.2814814814814815],[0.09270833333333334,-0.2814814814814815],[0.09270833333333334,-0.2814814814814815],[0.09270833333333334,-0.2814814814814815],[0.09270833333333334,-0.2814814814814815],[0.09270833333333334,-0.2814814814814815],[0.09270833333333334,-0.2814814814814815],[0.09270833333333334,-0.2814814814814815],[0.09270833333333334,-0.2814814814814815],[0.09270833333333334,-0.2814814814814815],[0.09270833333333334,-0.2814814814814815],[0.09270833333333334,-0.2814814814814815],[0.09270833333333334,-0.2814814814814815],[0.09270833333333334,-0.2814814814814815],[0.09270833333333334,-0.2814814814814815],[0.09270833333333334,-0.2814814814814815],[0.09270833333333334,-0.2814814814814815],[0.09270833333333334,-0.2814814814814815],[0.09270833333333334,-0.2814814814814815],[0.09270833333333334,-0.2814814814814815],[0.09270833333333334,-0.2814814814814815],[0.09270833333333334,-0.2814814814814815],[0.09270833333333334,-0.2814814814814815],[0.09270833333333334,-0.2814814814814815],[0.09270833333333334,-0.2814814814814815],[0.09270833333333334,-0.2814814814814815],[0.09270833333333334,-0.2814814814814815],[0.09270833333333334,-0.2814814814814815],[0.09270833333333334,-0.2814814814814815],[0.09270833333333334,-0.2814814814814815],[0.09270833333333334,-0.2814814814814815],[0.09270833333333334,-0.2814814814814815],[0.09270833333333334,-0.2814814814814815],[0.09270833333333334,-0.2814814814814815],[0.09270833333333334,-0.2814814814814815],[0.09270833333333334,-0.2814814814814815],[0.09270833333333334,-0.2814814814814815],[0.09270833333333334,-0.2814814814814815],[0.09270833333333334,-0.2814814814814815],[0.09270833333333334,-0.2814814814814815],[0.09270833333333334,-0.2814814814814815],[0.09270833333333334,-0.2814814814814815],[0.09270833333333334,-0.2814814814814815],[0.09270833333333334,-0.2814814814814815],[0.09270833333333334,-0.2814814814814815],[0.09270833333333334,-0.2814814814814815],[0.09270833333333334,-0.2814814814814815],[0.09270833333333334,-0.2814814814814815],[0.09270833333333334,-0.2814814814814815],[0.09270833333333334,-0.2814814814814815],[0.09270833333333334,-0.2814814814814815],[0.09270833333333334,-0.2814814814814815],[0.09270833333333334,-0.2814814814814815],[0.09270833333333334,-0.2814814814814815],[0.09270833333333334,-0.2814814814814815],[0.09270833333333334,-0.2814814814814815],[0.09270833333333334,-0.2814814814814815],[0.09270833333333334,-0.2814814814814815],[0.09270833333333334,-0.2814814814814815],[0.09270833333333334,-0.2814814814814815],[0.09270833333333334,-0.2814814814814815],[0.09270833333333334,-0.2814814814814815],[0.09270833333333334,-0.2814814814814815],[0.09270833333333334,-0.2814814814814815],[0.09270833333333334,-0.2814814814814815],[0.09270833333333334,-0.2814814814814815],[0.09270833333333334,-0.2814814814814815],[0.09270833333333334,-0.2814814814814815],[0.09270833333333334,-0.2814814814814815],[0.09270833333333334,-0.2814814814814815],[0.09270833333333334,-0.2814814814814815],[0.09270833333333334,-0.2814814814814815],[0.09270833333333334,-0.2814814814814815],[0.09270833333333334,-0.2814814814814815],[0.09270833333333334,-0.2814814814814815],[0.09270833333333334,-0.2814814814814815],[0.09270833333333334,-0.2814814814814815],[0.09270833333333334,-0.2814814814814815],[0.09270833333333334,-0.2814814814814815],[0.09270833333333334,-0.2814814814814815],[0.09270833333333334,-0.2814814814814815],[0.09270833333333334,-0.2814814814814815],[0.09270833333333334,-0.2814814814814815],[0.09270833333333334,-0.2814814814814815],[0.09270833333333334,-0.2814814814814815],[0.09270833333333334,-0.2814814814814815],[0.09270833333333334,-0.2814814814814815],[0.09270833333333334,-0.2814814814814815],[0.09270833333333334,-0.2814814814814815],[0.09270833333333334,-0.2814814814814815],[0.09270833333333334,-0.2814814814814815],[0.09270833333333334,-0.2814814814814815],[0.09270833333333334,-0.2814814814814815],[0.09270833333333334,-0.2814814814814815],[0.09270833333333334,-0.2814814814814815],[0.09270833333333334,-0.2814814814814815],[0.09270833333333334,-0.2814814814814815],[0.09270833333333334,-0.2814814814814815],[0.09270833333333334,-0.2814814814814815],[0.09270833333333334,-0.2814814814814815],[0.09270833333333334,-0.2814814814814815],[0.09270833333333334,-0.2814814814814815],[0.09270833333333334,-0.2814814814814815],[0.09270833333333334,-0.2814814814814815],[0.09270833333333334,-0.2814814814814815],[0.09270833333333334,-0.2814814814814815],[0.09270833333333334,-0.2814814814814815],[0.09270833333333334,-0.2814814814814815],[0.09270833333333334,-0.2814814814814815],[0.09270833333333334,-0.2814814814814815],[0.09270833333333334,-0.2814814814814815],[0.08958333333333333,-0.2814814814814815],[0.08854166666666667,-0.2814814814814815],[0.08645833333333333,-0.2814814814814815],[0.08229166666666667,-0.2777777777777778],[0.08125,-0.2759259259259259],[0.07916666666666666,-0.2740740740740741],[0.07916666666666666,-0.2740740740740741],[0.078125,-0.2740740740740741],[0.078125,-0.27037037037037037],[0.08229166666666667,-0.24444444444444444],[0.0875,-0.2111111111111111],[0.09270833333333334,-0.1648148148148148],[0.09270833333333334,-0.12407407407407407],[0.09270833333333334,-0.09444444444444444],[0.09270833333333334,-0.06111111111111111],[0.090625,-0.007407407407407408],[0.08854166666666667,0.014814814814814815],[0.08229166666666667,0.05925925925925926],[0.07708333333333334,0.07592592592592592],[0.071875,0.09814814814814815],[0.06354166666666666,0.12222222222222222],[0.05416666666666667,0.14444444444444443],[0.04583333333333333,0.16111111111111112],[0.036458333333333336,0.17592592592592593],[0.03229166666666667,0.17962962962962964],[0.03125,0.18333333333333332],[0.027083333333333334,0.18703703703703703],[0.023958333333333335,0.19074074074074074],[0.020833333333333332,0.1962962962962963],[0.016666666666666666,0.1962962962962963],[0.016666666666666666,0.1962962962962963],[0.014583333333333334,0.1962962962962963],[0.014583333333333334,0.1962962962962963],[0.014583333333333334,0.1962962962962963],[0.014583333333333334,0.1962962962962963],[0.014583333333333334,0.1962962962962963],[0.014583333333333334,0.1962962962962963],[0.0125,0.1962962962962963],[0.009375,0.1962962962962963],[0.009375,0.1962962962962963],[0.009375,0.1962962962962963],[0.009375,0.1962962962962963],[0.009375,0.19444444444444445],[0.009375,0.19444444444444445],[0.009375,0.19444444444444445],[0.009375,0.19444444444444445],[0.009375,0.19444444444444445],[0.008333333333333333,0.1925925925925926],[0.007291666666666667,0.18888888888888888],[0.007291666666666667,0.18703703703703703],[0.007291666666666667,0.18703703703703703],[0.007291666666666667,0.18703703703703703],[0.007291666666666667,0.18703703703703703],[0.007291666666666667,0.18518518518518517],[0.007291666666666667,0.18518518518518517],[0.007291666666666667,0.18518518518518517],[0.007291666666666667,0.18333333333333332],[0.007291666666666667,0.1814814814814815],[0.007291666666666667,0.1814814814814815],[0.007291666666666667,0.1814814814814815],[0.00625,0.17962962962962964],[0.00625,0.17962962962962964],[0.00625,0.17777777777777778],[0.00625,0.17407407407407408],[0.00625,0.17407407407407408],[0.00625,0.17222222222222222],[0.00625,0.1685185185185185],[0.00625,0.16666666666666666],[0.00625,0.1648148148148148],[0.00625,0.1648148148148148],[0.00625,0.1648148148148148],[0.00625,0.1648148148148148],[0.00625,0.1648148148148148],[0.00625,0.1648148148148148],[0.00625,0.1648148148148148],[0.00625,0.1648148148148148],[0.00625,0.1648148148148148],[0.00625,0.1648148148148148],[0.00625,0.1648148148148148],[0.00625,0.1648148148148148],[0.00625,0.1648148148148148],[0.00625,0.1648148148148148],[0.00625,0.1648148148148148],[0.00625,0.1648148148148148],[0.00625,0.1648148148148148],[0.00625,0.1648148148148148],[0.00625,0.1648148148148148],[0.00625,0.1648148148148148],[0.00625,0.1648148148148148],[0.00625,0.1648148148148148],[0.00625,0.1648148148148148],[0.00625,0.1648148148148148],[0.00625,0.1648148148148148],[0.00625,0.1648148148148148],[0.00625,0.1648148148148148],[0.00625,0.1648148148148148],[0.00625,0.1648148148148148],[0.00625,0.1648148148148148],[0.00625,0.1648148148148148],[0.00625,0.1648148148148148],[0.00625,0.1648148148148148],[0.00625,0.1648148148148148],[0.00625,0.1648148148148148],[0.00625,0.1648148148148148],[0.00625,0.1648148148148148],[0.00625,0.1648148148148148],[0.00625,0.1648148148148148],[0.00625,0.1648148148148148],[0.00625,0.1648148148148148],[0.00625,0.1648148148148148],[0.00625,0.1648148148148148],[0.00625,0.1648148148148148],[0.00625,0.1648148148148148],[0.00625,0.1648148148148148],[0.00625,0.1648148148148148],[0.00625,0.1648148148148148],[0.00625,0.1648148148148148],[0.00625,0.1648148148148148],[0.00625,0.1648148148148148],[0.00625,0.1648148148148148],[0.00625,0.1648148148148148],[0.00625,0.1648148148148148],[0.00625,0.1648148148148148],[0.00625,0.1648148148148148],[0.00625,0.1648148148148148],[0.00625,0.1648148148148148],[0.00625,0.1648148148148148],[0.00625,0.1648148148148148],[0.00625,0.1648148148148148],[0.00625,0.1648148148148148],[0.00625,0.1648148148148148],[0.00625,0.1648148148148148],[0.00625,0.1648148148148148],[0.00625,0.1648148148148148],[0.00625,0.1648148148148148],[0.00625,0.1648148148148148],[0.00625,0.1648148148148148],[0.00625,0.1648148148148148],[0.00625,0.1648148148148148],[0.00625,0.1648148148148148],[0.00625,0.1648148148148148],[0.00625,0.1648148148148148],[0.00625,0.1648148148148148],[0.00625,0.1648148148148148],[0.00625,0.1648148148148148],[0.00625,0.1648148148148148],[0.00625,0.1648148148148148],[0.00625,0.1648148148148148],[0.00625,0.1648148148148148],[0.00625,0.1648148148148148],[0.00625,0.1648148148148148],[0.00625,0.1648148148148148],[0.00625,0.1648148148148148],[0.00625,0.1648148148148148],[0.00625,0.1648148148148148],[0.00625,0.1648148148148148],[0.00625,0.1648148148148148],[0.00625,0.1648148148148148],[0.00625,0.1648148148148148],[0.00625,0.1648148148148148],[0.00625,0.1648148148148148],[0.00625,0.1648148148148148],[0.00625,0.1648148148148148],[0.00625,0.1648148148148148],[0.00625,0.1648148148148148],[0.00625,0.1648148148148148],[0.00625,0.1648148148148148],[0.00625,0.1648148148148148],[0.00625,0.1648148148148148],[0.00625,0.1648148148148148],[0.019791666666666666,0.16296296296296298],[0.03229166666666667,0.16296296296296298],[0.065625,0.16296296296296298],[0.12291666666666666,0.16296296296296298],[0.146875,0.16296296296296298],[0.15520833333333334,0.16296296296296298],[0.15729166666666666,0.16296296296296298],[0.15729166666666666,0.16296296296296298],[0.15729166666666666,0.16296296296296298],[0.15729166666666666,0.16296296296296298],[0.15729166666666666,0.16296296296296298],[0.15729166666666666,0.16296296296296298],[0.15729166666666666,0.16296296296296298],[0.15729166666666666,0.16296296296296298],[0.15729166666666666,0.16296296296296298],[0.15729166666666666,0.16296296296296298],[0.15833333333333333,0.16296296296296298],[0.1625,0.16296296296296298],[0.16875,0.16296296296296298],[0.18125,0.16296296296296298],[0.19375,0.16296296296296298],[0.2,0.16296296296296298],[0.20416666666666666,0.16296296296296298],[0.20520833333333333,0.16296296296296298],[0.20625,0.16296296296296298],[0.20625,0.16296296296296298],[0.20625,0.16296296296296298],[0.20625,0.16296296296296298],[0.20625,0.16296296296296298],[0.20625,0.16296296296296298],[0.20625,0.16296296296296298],[0.20625,0.16296296296296298],[0.20625,0.16296296296296298],[0.20625,0.16296296296296298],[0.20625,0.16296296296296298],[0.20625,0.16296296296296298],[0.20625,0.16296296296296298],[0.20625,0.16296296296296298],[0.20625,0.16296296296296298],[0.20625,0.16296296296296298],[0.20625,0.16296296296296298],[0.20625,0.16296296296296298],[0.20625,0.16296296296296298],[0.20625,0.16296296296296298],[0.20625,0.16296296296296298],[0.20625,0.16296296296296298],[0.20625,0.16296296296296298],[0.20625,0.16296296296296298],[0.20625,0.16296296296296298],[0.20625,0.16296296296296298],[0.20625,0.16296296296296298],[0.20625,0.16296296296296298],[0.20625,0.16296296296296298],[0.20625,0.16296296296296298],[0.20625,0.16296296296296298],[0.20520833333333333,0.16296296296296298],[0.20208333333333334,0.16296296296296298],[0.19895833333333332,0.16296296296296298],[0.19583333333333333,0.16296296296296298],[0.19375,0.16296296296296298],[0.19375,0.16296296296296298],[0.19375,0.16296296296296298],[0.19375,0.16296296296296298],[0.19375,0.16296296296296298],[0.19375,0.16296296296296298],[0.19375,0.16296296296296298],[0.19375,0.16296296296296298],[0.19375,0.16296296296296298],[0.19375,0.16296296296296298],[0.19375,0.16296296296296298],[0.19375,0.16296296296296298],[0.19375,0.16296296296296298],[0.19375,0.16296296296296298],[0.19375,0.16296296296296298],[0.19375,0.16296296296296298],[0.19375,0.16296296296296298],[0.19375,0.16296296296296298],[0.19375,0.16296296296296298],[0.19375,0.16296296296296298],[0.19375,0.16296296296296298],[0.19375,0.16296296296296298],[0.19375,0.16296296296296298],[0.19375,0.16296296296296298],[0.19375,0.16296296296296298],[0.190625,0.16296296296296298],[0.18958333333333333,0.16111111111111112],[0.18854166666666666,0.15925925925925927],[0.1875,0.15925925925925927],[0.18645833333333334,0.15925925925925927],[0.18541666666666667,0.1574074074074074],[0.18541666666666667,0.1574074074074074],[0.18541666666666667,0.1574074074074074],[0.18541666666666667,0.1574074074074074],[0.18541666666666667,0.1574074074074074],[0.18541666666666667,0.1574074074074074],[0.18541666666666667,0.1574074074074074],[0.18541666666666667,0.1574074074074074],[0.184375,0.15555555555555556],[0.184375,0.15555555555555556],[0.184375,0.15555555555555556],[0.184375,0.15555555555555556],[0.184375,0.15555555555555556],[0.184375,0.15555555555555556],[0.184375,0.15555555555555556],[0.18333333333333332,0.15555555555555556],[0.18333333333333332,0.15555555555555556],[0.18333333333333332,0.15555555555555556],[0.18333333333333332,0.15555555555555556],[0.18333333333333332,0.15555555555555556],[0.18333333333333332,0.15555555555555556],[0.18333333333333332,0.15555555555555556],[0.18333333333333332,0.15555555555555556],[0.18333333333333332,0.15555555555555556],[0.18333333333333332,0.15555555555555556],[0.18333333333333332,0.15555555555555556],[0.18333333333333332,0.15555555555555556],[0.18333333333333332,0.15555555555555556],[0.18333333333333332,0.15555555555555556],[0.18333333333333332,0.15555555555555556],[0.18333333333333332,0.15555555555555556],[0.18333333333333332,0.15555555555555556],[0.18333333333333332,0.15555555555555556],[0.18333333333333332,0.15555555555555556],[0.18333333333333332,0.15555555555555556],[0.18333333333333332,0.15555555555555556]]","[[-0.12875000000000003,-0.08296296296296299],[-0.12875000000000003,-0.08296296296296299],[-0.10427083333333335,-0.06351851851851854],[-0.06739583333333338,-0.09462962962962967],[-0.0421875,-0.09018518518518516],[-0.03135416666666669,-0.08222222222222218],[-0.020937500000000022,-0.06074074074074076],[-0.020937500000000022,-0.06074074074074076],[-0.005520833333333286,-0.01444444444444436],[-0.029895833333333382,-0.000925925925925926],[-0.008020833333333382,-0.01722222222222214],[0.017604166666666643,-0.001851851851851852],[0.01885416666666669,0.03259259259259263],[0.026979166666666644,0.03166666666666671],[0.010625000000000048,0.062037037037037036],[-0.012187500000000047,0.0742592592592593],[-0.022604166666666713,0.10462962962962963],[-0.04010416666666667,0.07666666666666662],[-0.04010416666666667,0.07666666666666662],[-0.01895833333333338,0.06888888888888897],[-0.01895833333333338,0.06888888888888897],[-0.001979166666666643,0.09314814814814806],[0.007604166666666619,0.12407407407407407],[0.003125,0.12129629629629629],[-0.002916666666666619,0.1361111111111111],[0.005104166666666643,0.12888888888888894],[0.019479166666666714,0.13203703703703695],[0.04854166666666669,0.1316666666666667],[0.09552083333333337,0.15222222222222231],[0.09354166666666662,0.17518518518518522],[0.04624999999999998,0.152962962962963],[0.019583333333333286,0.1477777777777777],[-0.014374999999999952,0.16055555555555565],[-0.05687500000000002,0.16703703703703712],[-0.08708333333333336,0.15129629629629637],[-0.09635416666666667,0.18129629629629626],[-0.11427083333333338,0.18981481481481483],[-0.16312500000000002,0.21722222222222215],[-0.2376041666666667,0.2064814814814815],[-0.25802083333333337,0.23796296296296296],[-0.25802083333333337,0.23796296296296296],[-0.23947916666666663,0.26796296296296307],[-0.22083333333333333,0.27018518518518514],[-0.18166666666666664,0.30240740740740735],[-0.16593749999999996,0.3109259259259259],[-0.15416666666666667,0.31055555555555564],[-0.1701041666666666,0.2911111111111112],[-0.15125000000000005,0.27388888888888885],[-0.15125000000000005,0.27388888888888885],[-0.10489583333333338,0.24888888888888885],[-0.08322916666666665,0.24759259259259267],[-0.05562499999999997,0.22888888888888892],[-0.06697916666666662,0.2116666666666666],[-0.06083333333333331,0.19425925925925921],[-0.08010416666666664,0.14425925925925923],[-0.06895833333333339,0.1418518518518519],[-0.06895833333333339,0.1418518518518519],[-0.07999999999999995,0.13944444444444437],[-0.07395833333333333,0.13648148148148156],[-0.08875000000000005,0.15240740740740732],[-0.10708333333333328,0.16314814814814818],[-0.11156250000000002,0.15611111111111103],[-0.10343749999999995,0.16129629629629633],[-0.0953125,0.16648148148148145],[-0.0921875,0.18296296296296288],[-0.0921875,0.18296296296296288],[-0.07281249999999997,0.20925925925925926],[-0.051874999999999956,0.21796296296296305],[-0.02052083333333338,0.18870370370370365],[0.005416666666666714,0.15388888888888894],[0.005416666666666714,0.15388888888888894],[0.00604166666666662,0.1566666666666667],[0.019270833333333334,0.1587037037037038],[0.03916666666666669,0.15259259259259256],[0.04895833333333333,0.15314814814814823],[0.03791666666666664,0.13203703703703695],[0.04041666666666662,0.10333333333333325],[0.04041666666666662,0.10333333333333325],[0.03083333333333336,0.07925925925925917],[0.016145833333333335,0.08518518518518518],[0.006458333333333381,0.1425925925925926],[0.006458333333333381,0.1425925925925926],[0.021875,0.22037037037037038],[0.04375,0.23499999999999996],[0.06104166666666669,0.24814814814814815],[0.07249999999999991,0.2698148148148149],[0.07552083333333333,0.29000000000000004],[0.09937500000000009,0.33185185185185195],[0.09552083333333337,0.3446296296296297],[0.09552083333333337,0.3446296296296297],[0.11947916666666672,0.3648148148148148],[0.11791666666666671,0.32944444444444443],[0.11916666666666677,0.30999999999999994],[0.08854166666666667,0.26296296296296295],[0.08854166666666667,0.26296296296296295],[0.08302083333333338,0.24944444444444452],[0.03729166666666662,0.23407407407407405],[0.03729166666666662,0.23407407407407405],[0.03885416666666662,0.2616666666666666],[0.024687500000000046,0.2455555555555556],[0.0067708333333333336,0.2351851851851852],[0.0067708333333333336,0.2351851851851852],[-0.000833333333333286,0.2381481481481482],[-0.015416666666666618,0.2381481481481482],[-0.022187499999999954,0.26222222222222225],[-0.03239583333333336,0.26185185185185184],[-0.03239583333333336,0.26185185185185184],[-0.03583333333333331,0.2687037037037037],[-0.0546875,0.29314814814814805],[-0.0546875,0.29314814814814805],[-0.0390625,0.31500000000000006],[-0.0390625,0.31500000000000006],[-0.07156250000000004,0.28888888888888886],[-0.08833333333333329,0.30648148148148147],[-0.11677083333333335,0.319074074074074],[-0.1430208333333333,0.3485185185185186],[-0.17479166666666662,0.3411111111111112],[-0.18374999999999997,0.3351851851851852],[-0.17114583333333327,0.352962962962963],[-0.1922916666666667,0.35351851851851845],[-0.19583333333333333,0.3412962962962962],[-0.18687499999999999,0.3477777777777777],[-0.1670833333333333,0.352962962962963],[-0.1670833333333333,0.352962962962963],[-0.17302083333333335,0.34037037037037027],[-0.153125,0.3461111111111111],[-0.13322916666666665,0.35185185185185186],[-0.1382291666666667,0.3557407407407408],[-0.11968749999999997,0.3520370370370371],[-0.128125,0.35425925925925916],[-0.10281250000000004,0.3737037037037036],[-0.1202083333333333,0.37888888888888894],[-0.15239583333333329,0.372037037037037],[-0.1616666666666667,0.3633333333333334],[-0.1616666666666667,0.3633333333333334],[-0.1452083333333333,0.37240740740740746],[-0.13489583333333333,0.36574074074074076],[-0.12458333333333335,0.35907407407407405],[-0.12458333333333335,0.35907407407407405],[-0.09739583333333333,0.35611111111111104],[-0.09291666666666672,0.35259259259259257],[-0.09291666666666672,0.35259259259259257],[-0.09833333333333331,0.330925925925926],[-0.10375000000000002,0.30925925925925923],[-0.04760416666666671,0.3031481481481482],[-0.014479166666666644,0.2616666666666666],[-0.007083333333333286,0.23037037037037034],[0.020624999999999952,0.21074074074074065],[0.044062499999999956,0.18777777777777774],[0.051874999999999956,0.16500000000000004],[0.051874999999999956,0.16500000000000004],[0.07541666666666676,0.1685185185185185],[0.09093749999999995,0.19962962962962955],[0.11458333333333333,0.1814814814814815],[0.11458333333333333,0.1814814814814815],[0.1321875000000001,0.1566666666666667],[0.12416666666666672,0.1574074074074074],[0.12843749999999995,0.17037037037037037],[0.16239583333333343,0.1675925925925926],[0.15093750000000009,0.1381481481481482],[0.13739583333333344,0.10685185185185193],[0.13895833333333343,0.07185185185185176],[0.11020833333333328,0.04018518518518527],[0.08864583333333324,-0.010925925925925884],[0.09302083333333329,0.020185185185185143],[0.10343749999999995,0.057962962962962876],[0.0953125,0.027407407407407325],[0.0953125,0.027407407407407325],[0.09916666666666671,0.022037037037036994],[0.0640625,0.0242592592592593],[0.06458333333333334,0.02296296296296292],[0.0655208333333333,0.031111111111111027],[0.043333333333333356,0.032407407407407406],[0.01583333333333338,0.027037037037037078],[-0.011666666666666714,0.02166666666666675],[-0.02947916666666662,-0.0025925925925925505],[-0.04729166666666664,-0.026851851851851852],[-0.07229166666666664,-0.04018518518518527],[-0.07447916666666667,-0.028518518518518478],[-0.07447916666666667,-0.028518518518518478],[-0.06791666666666671,-0.04296296296296305],[-0.09656250000000005,-0.03722222222222227],[-0.12354166666666669,-0.039074074074074115],[-0.12687499999999996,-0.030555555555555555],[-0.10010416666666669,-0.04981481481481477],[-0.09979166666666663,-0.06333333333333331],[-0.13468749999999996,-0.06314814814814819],[-0.14031250000000003,-0.062407407407407384],[-0.10604166666666662,-0.06129629629629634],[-0.12208333333333338,-0.08518518518518518],[-0.10052083333333334,-0.06759259259259259],[-0.10052083333333334,-0.06759259259259259],[-0.07947916666666661,-0.09259259259259259],[-0.06854166666666663,-0.1111111111111111],[-0.04604166666666672,-0.12185185185185188],[-0.04604166666666672,-0.12185185185185188],[-0.08624999999999995,-0.12481481481481477],[-0.06187499999999998,-0.09092592592592597],[-0.03322916666666664,-0.12851851851851848],[-0.03322916666666664,-0.12851851851851848],[-0.04114583333333333,-0.16648148148148145],[-0.05458333333333331,-0.17092592592592595],[-0.025729166666666713,-0.18870370370370365],[-0.043333333333333356,-0.22333333333333338],[-0.03572916666666662,-0.21703703703703703],[-0.014479166666666644,-0.21277777777777773],[-0.010416666666666666,-0.19907407407407407],[0.015312500000000047,-0.19222222222222224],[0.015312500000000047,-0.19222222222222224],[0.02822916666666669,-0.24833333333333338],[0.06635416666666671,-0.2235185185185185],[0.07531249999999995,-0.2257407407407407],[0.08875000000000005,-0.23148148148148148],[0.08885416666666662,-0.22092592592592594],[0.09572916666666677,-0.2192592592592592],[0.10750000000000005,-0.18703703703703703],[0.10739583333333323,-0.16814814814814816],[0.1109375,-0.1911111111111111],[0.13052083333333328,-0.17814814814814814],[0.13031249999999991,-0.1403703703703704],[0.13031249999999991,-0.1403703703703704],[0.11291666666666676,-0.15185185185185185],[0.13145833333333337,-0.127962962962963],[0.12312500000000005,-0.122037037037037],[0.11166666666666672,-0.1346296296296296],[0.08104166666666662,-0.102962962962963],[0.050416666666666644,-0.14481481481481479],[0.03843749999999998,-0.1544444444444444],[0.03843749999999998,-0.1544444444444444],[-0.002708333333333357,-0.1366666666666667],[-0.05447916666666662,-0.15407407407407406],[-0.10104166666666667,-0.19074074074074074],[-0.10104166666666667,-0.19074074074074074],[-0.15239583333333329,-0.22870370370370371],[-0.16145833333333334,-0.21277777777777773],[-0.18552083333333336,-0.20129629629629628],[-0.20708333333333329,-0.17333333333333337],[-0.19145833333333329,-0.19462962962962968],[-0.16312500000000002,-0.17740740740740743],[-0.17927083333333335,-0.1801851851851852],[-0.17927083333333335,-0.1801851851851852],[-0.15197916666666664,-0.15203703703703708],[-0.11302083333333333,-0.10277777777777777],[-0.07927083333333336,-0.03759259259259251],[-0.04833333333333331,0.023148148148148147],[-0.07749999999999997,-0.000925925925925926],[-0.08739583333333331,0.009444444444444486],[-0.10427083333333335,-0.025925925925925925],[-0.10427083333333335,-0.025925925925925925],[-0.09916666666666671,-0.01703703703703712],[-0.16499999999999998,-0.019444444444444445],[-0.17322916666666663,-0.001851851851851852],[-0.18187500000000004,-0.026851851851851852],[-0.1920833333333333,-0.075],[-0.2169791666666666,-0.1287037037037037],[-0.21802083333333327,-0.13222222222222219],[-0.21947916666666673,-0.14759259259259258],[-0.21947916666666673,-0.14759259259259258],[-0.20687500000000003,-0.1655555555555555],[-0.20687500000000003,-0.1655555555555555],[-0.1820833333333333,-0.14870370370370373],[-0.20218750000000002,-0.1479629629629629],[-0.18156249999999996,-0.19574074074074072],[-0.15187499999999995,-0.2101851851851852],[-0.16656249999999997,-0.21629629629629632],[-0.16927083333333334,-0.17240740740740745],[-0.1670833333333333,-0.11018518518518519],[-0.1560416666666666,-0.12000000000000002],[-0.12625000000000006,-0.0955555555555556],[-0.1202083333333333,-0.06148148148148146],[-0.12145833333333336,-0.019444444444444445],[-0.1140625,-0.0016666666666666245],[-0.11864583333333331,0.06814814814814807],[-0.14718749999999994,0.06444444444444436],[-0.1408333333333334,0.06648148148148143],[-0.11822916666666666,0.05685185185185194],[-0.10760416666666663,0.04277777777777782],[-0.1140625,0.049629629629629544],[-0.11114583333333337,0.06944444444444445],[-0.10541666666666671,0.044999999999999915],[-0.09500000000000004,0.010185185185185186],[-0.08385416666666666,-0.008333333333333333],[-0.0375,-0.001851851851851852],[0.0003124999999999526,0.021481481481481525],[0.016562499999999977,0.06629629629629621],[0.016562499999999977,0.06629629629629621],[0.008437500000000023,0.09407407407407399],[0.021458333333333357,0.07074074074074083],[0.058124999999999954,0.07074074074074083],[0.07354166666666657,0.07074074074074083],[0.09833333333333343,0.0837037037037038],[0.09927083333333328,0.08462962962962971],[0.11906249999999995,0.09462962962962967],[0.1290625000000001,0.09092592592592597],[0.1390625,0.08722222222222227],[0.1521874999999999,0.04888888888888885],[0.16531250000000006,0.01055555555555564],[0.1798958333333334,0.029259259259259176],[0.15791666666666657,0.040370370370370286],[0.15427083333333325,0.02962962962962963],[0.1506249999999999,0.018888888888888972],[0.16302083333333334,0.01962962962962967],[0.15208333333333332,0.011666666666666582],[0.14572916666666677,-0.0007407407407406986],[0.15593750000000003,-0.008888888888888804],[0.16104166666666658,-0.0001851851851852273],[0.17583333333333329,0.0198148148148149],[0.18104166666666663,-0.009629629629629714],[0.18104166666666663,-0.009629629629629714],[0.17510416666666656,-0.030740740740740784],[0.1642708333333334,-0.05425925925925928],[0.15343749999999995,-0.07777777777777778],[0.13635416666666675,-0.06518518518518517],[0.15072916666666672,-0.05277777777777778],[0.1638541666666666,-0.0514814814814814],[0.11458333333333333,-0.060555555555555536],[0.10343749999999995,-0.0705555555555556],[0.07447916666666667,-0.07962962962962963],[0.07447916666666667,-0.07962962962962963],[0.05260416666666667,-0.049074074074074076],[0.025729166666666713,-0.012777777777777735],[-0.005208333333333333,0.001851851851851852],[-0.005208333333333333,0.001851851851851852],[-0.036145833333333384,0.01648148148148144],[-0.002499999999999976,0.011296296296296339],[-0.051770833333333384,0.010185185185185186],[-0.051770833333333384,0.010185185185185186],[-0.07114583333333328,-0.002407407407407323],[-0.024687500000000046,0.009444444444444486],[0.004791666666666691,0.013333333333333417],[0.004791666666666691,0.013333333333333417],[-0.007291666666666667,0.023148148148148147],[0.0109375,0.006851851851851936],[0.05302083333333331,-0.02759259259259255],[0.05302083333333331,-0.02759259259259255],[0.06083333333333331,-0.006481481481481481],[0.1056250000000001,-0.01592592592592597],[0.05249999999999998,0.0001851851851852273],[0.05249999999999998,0.0001851851851852273],[0.07937500000000004,-0.0338888888888888],[0.0484375,-0.005370370370370328],[0.06749999999999995,-0.013333333333333417],[0.021249999999999977,-0.025],[0.09406249999999995,-0.026111111111111154],[0.10750000000000005,-0.007592592592592635],[0.12156250000000005,-0.016851851851851896],[0.1540625000000001,-0.020740740740740823],[0.17333333333333342,-0.005740740740740783],[0.2353125000000001,-0.02166666666666675],[0.28666666666666674,0.0020370370370370794],[0.36177083333333326,-0.008888888888888804],[0.36687500000000006,-0.0016666666666666245],[0.36687500000000006,-0.0016666666666666245],[0.4181250000000001,-0.000925925925925926],[0.4181250000000001,-0.000925925925925926],[0.3885416666666667,-0.006666666666666709],[0.3868750000000001,-0.008148148148148106],[0.37354166666666655,0.008148148148148106],[0.39729166666666677,0.011296296296296339],[0.39895833333333336,0.018518518518518517],[0.3935416666666666,0.024074074074074074],[0.3602083333333333,0.06185185185185181],[0.3584374999999999,0.08000000000000008],[0.3403125000000001,0.10166666666666663],[0.3220833333333334,0.10555555555555556],[0.3162499999999999,0.1014814814814814],[0.3162499999999999,0.1014814814814814],[0.3471874999999999,0.08592592592592588],[0.3458333333333333,0.05907407407407403],[0.3481250000000001,0.015370370370370286],[0.33177083333333335,-0.02814814814814823],[0.31968750000000007,-0.0544444444444444],[0.3241666666666667,-0.11648148148148144],[0.2882291666666667,-0.152962962962963],[0.2686458333333334,-0.19296296296296295],[0.26833333333333326,-0.205],[0.26458333333333334,-0.24518518518518514],[0.23145833333333338,-0.27629629629629626],[0.23145833333333338,-0.27629629629629626],[0.23135416666666658,-0.2627777777777777],[0.2209374999999999,-0.2553703703703703],[0.22708333333333333,-0.22148148148148153],[0.2390625,-0.21444444444444447],[0.22989583333333338,-0.19148148148148145],[0.2618750000000001,-0.1655555555555555],[0.2694791666666667,-0.17703703703703708],[0.28968749999999993,-0.17518518518518522],[0.30833333333333335,-0.147037037037037],[0.3185416666666666,-0.12092592592592595],[0.32145833333333323,-0.13870370370370366],[0.31187500000000007,-0.1412962962962963],[0.3094791666666666,-0.14314814814814816],[0.2921875,-0.14444444444444443],[0.29145833333333326,-0.12462962962962965],[0.25843749999999993,-0.11370370370370367],[0.2716666666666666,-0.10666666666666672],[0.2534374999999999,-0.1037037037037037],[0.23145833333333338,-0.10592592592592591],[0.20958333333333337,-0.10037037037037035],[0.19760416666666672,-0.07018518518518514],[0.1712500000000001,-0.05648148148148148],[0.13812499999999991,-0.06259259259259262],[0.1134375000000001,-0.05259259259259255],[0.0921875,-0.07481481481481478],[0.07687499999999996,-0.10444444444444441],[0.05375000000000003,-0.10777777777777775],[0.04510416666666662,-0.09388888888888887],[0.052083333333333336,-0.08314814814814811],[0.03208333333333328,-0.07666666666666662],[0.02645833333333331,-0.08611111111111111],[0.028437499999999952,-0.08870370370370366],[0.05604166666666662,-0.09074074074074075],[0.08177083333333333,-0.11574074074074074],[0.09822916666666662,-0.10740740740740741],[0.09916666666666671,-0.10185185185185185],[0.08822916666666672,-0.08444444444444449],[0.08822916666666672,-0.08444444444444449],[0.08166666666666676,-0.09351851851851851],[0.08114583333333343,-0.10925925925925926],[0.11645833333333329,-0.13907407407407413],[0.11645833333333329,-0.13907407407407413],[0.13739583333333344,-0.152962962962963],[0.14197916666666663,-0.1403703703703704],[0.1212500000000001,-0.12666666666666662],[0.1212500000000001,-0.12666666666666662],[0.09802083333333324,-0.11740740740740736],[0.11437499999999995,-0.12814814814814812],[0.15968749999999995,-0.11740740740740736],[0.15968749999999995,-0.11740740740740736],[0.1554166666666667,-0.13759259259259263],[0.15187499999999995,-0.12537037037037035],[0.11833333333333323,-0.10925925925925926]]","[[-0.12875000000000003,-0.08296296296296299,0.00030000001192576065],[-0.12875000000000003,-0.08296296296296299,0.032800000011924624],[-0.10427083333333335,-0.06351851851851854,0.04080000001192019],[-0.06739583333333338,-0.09462962962962967,0.060899999976157915],[-0.0421875,-0.09018518518518516,0.07700000000000529],[-0.03135416666666669,-0.08222222222222218,0.09419999998807782],[-0.020937500000000022,-0.06074074074074076,0.10919999998807839],[-0.020937500000000022,-0.06074074074074076,0.12409999996423693],[-0.005520833333333286,-0.01444444444444436,0.1408000000119216],[-0.029895833333333382,-0.000925925925925926,0.1576999999880826],[-0.008020833333333382,-0.01722222222222214,0.17459999996423647],[0.017604166666666643,-0.001851851851851852,0.19319999998808157],[0.01885416666666669,0.03259259259259263,0.21059999996423784],[0.026979166666666644,0.03166666666666671,0.22589999997615706],[0.010625000000000048,0.062037037037037036,0.24089999997615763],[-0.012187500000000047,0.0742592592592593,0.2588000000119237],[-0.022604166666666713,0.10462962962962963,0.2775000000000034],[-0.04010416666666667,0.07666666666666662,0.2948999999761597],[-0.04010416666666667,0.07666666666666662,0.30750000000000455],[-0.01895833333333338,0.06888888888888897,0.32430000001192383],[-0.01895833333333338,0.06888888888888897,0.34080000001192445],[-0.001979166666666643,0.09314814814814806,0.3575000000000017],[0.007604166666666619,0.12407407407407407,0.37419999998807896],[0.003125,0.12129629629629629,0.3931999999880844],[-0.002916666666666619,0.1361111111111111,0.41100000000000136],[0.005104166666666643,0.12888888888888894,0.426800000011923],[0.019479166666666714,0.13203703703703695,0.44119999998807913],[0.04854166666666669,0.1316666666666667,0.4578999999761635],[0.09552083333333337,0.15222222222222231,0.47680000001192013],[0.09354166666666662,0.17518518518518522,0.49159999996423664],[0.04624999999999998,0.152962962962963,0.5075000000000003],[0.019583333333333286,0.1477777777777777,0.5245999999642379],[-0.014374999999999952,0.16055555555555565,0.5423000000119202],[-0.05687500000000002,0.16703703703703712,0.5601999999880789],[-0.08708333333333336,0.15129629629629637,0.5765000000000029],[-0.09635416666666667,0.18129629629629626,0.5931999999880802],[-0.11427083333333338,0.18981481481481483,0.6108000000119205],[-0.16312500000000002,0.21722222222222215,0.6268999999761604],[-0.2376041666666667,0.2064814814814815,0.6410999999642399],[-0.25802083333333337,0.23796296296296296,0.6574999999999989],[-0.25802083333333337,0.23796296296296296,0.6740999999642412],[-0.23947916666666663,0.26796296296296307,0.6908999999761605],[-0.22083333333333333,0.27018518518518514,0.7075000000000031],[-0.18166666666666664,0.30240740740740735,0.7268999999761618],[-0.16593749999999996,0.3109259259259259,0.7445999999642368],[-0.15416666666666667,0.31055555555555564,0.7598000000119214],[-0.1701041666666666,0.2911111111111112,0.775500000000001],[-0.15125000000000005,0.27388888888888885,0.7921999999880782],[-0.15125000000000005,0.27388888888888885,0.8075999999642391],[-0.10489583333333338,0.24888888888888885,0.8240999999642398],[-0.08322916666666665,0.24759259259259267,0.8445999999642382],[-0.05562499999999997,0.22888888888888892,0.8601999999880832],[-0.06697916666666662,0.2116666666666666,0.8785000000000025],[-0.06083333333333331,0.19425925925925921,0.8943999999761587],[-0.08010416666666664,0.14425925925925923,0.9100999999642383],[-0.06895833333333339,0.1418518518518519,0.9265000000000043],[-0.06895833333333339,0.1418518518518519,0.9413000000119212],[-0.07999999999999995,0.13944444444444437,0.9575999999642377],[-0.07395833333333333,0.13648148148148156,0.9741999999880804],[-0.08875000000000005,0.15240740740740732,0.990800000011923],[-0.10708333333333328,0.16314814814814818,1.0075000000000003],[-0.11156250000000002,0.15611111111111103,1.024800000011922],[-0.10343749999999995,0.16129629629629633,1.0423000000119202],[-0.0953125,0.16648148148148145,1.0605000000000047],[-0.0921875,0.18296296296296288,1.0800000000000054],[-0.0921875,0.18296296296296288,1.0911999999880848],[-0.07281249999999997,0.20925925925925926,1.1075000000000017],[-0.051874999999999956,0.21796296296296305,1.1248000000119234],[-0.02052083333333338,0.18870370370370365,1.1423000000119217],[0.005416666666666714,0.15388888888888894,1.1585000000000036],[0.005416666666666714,0.15388888888888894,1.1740999999642412],[0.00604166666666662,0.1566666666666667,1.1908000000119259],[0.019270833333333334,0.1587037037037038,1.2113999999761589],[0.03916666666666669,0.15259259259259256,1.2283000000119202],[0.04895833333333333,0.15314814814814823,1.2441999999880835],[0.03791666666666664,0.13203703703703695,1.2605000000000004],[0.04041666666666662,0.10333333333333325,1.27919999998808],[0.04041666666666662,0.10333333333333325,1.290899999976162],[0.03083333333333336,0.07925925925925917,1.3075000000000045],[0.016145833333333335,0.08518518518518518,1.328800000011924],[0.006458333333333381,0.1425925925925926,1.3470000000000013],[0.006458333333333381,0.1425925925925926,1.3575000000000017],[0.021875,0.22037037037037038,1.374099999964237],[0.04375,0.23499999999999996,1.3948000000119265],[0.06104166666666669,0.24814814814814815,1.4108999999761593],[0.07249999999999991,0.2698148148148149,1.4275999999642366],[0.07552083333333333,0.29000000000000004,1.4435000000000002],[0.09937500000000009,0.33185185185185195,1.4590000000000032],[0.09552083333333337,0.3446296296296297,1.4780999999642361],[0.09552083333333337,0.3446296296296297,1.490800000011923],[0.11947916666666672,0.3648148148148148,1.5075000000000003],[0.11791666666666671,0.32944444444444443,1.524599999964238],[0.11916666666666677,0.30999999999999994,1.5408000000119202],[0.08854166666666667,0.26296296296296295,1.5618999999761627],[0.08854166666666667,0.26296296296296295,1.5741999999880818],[0.08302083333333338,0.24944444444444452,1.591000000000001],[0.03729166666666662,0.23407407407407405,1.6075999999642363],[0.03729166666666662,0.23407407407407405,1.624199999988079],[0.03885416666666662,0.2616666666666666,1.6408000000119216],[0.024687500000000046,0.2455555555555556,1.6575999999642406],[0.0067708333333333336,0.2351851851851852,1.6746999999880785],[0.0067708333333333336,0.2351851851851852,1.6908999999761605],[-0.000833333333333286,0.2381481481481482,1.7075000000000031],[-0.015416666666666618,0.2381481481481482,1.7241999999880804],[-0.022187499999999954,0.26222222222222225,1.7428000000119255],[-0.03239583333333336,0.26185185185185184,1.7636999999880842],[-0.03239583333333336,0.26185185185185184,1.7741999999880846],[-0.03583333333333331,0.2687037037037037,1.790899999976162],[-0.0546875,0.29314814814814805,1.8125],[-0.0546875,0.29314814814814805,1.8253999999761632],[-0.0390625,0.31500000000000006,1.8440000000000012],[-0.0390625,0.31500000000000006,1.867300000011923],[-0.07156250000000004,0.28888888888888886,1.874099999964237],[-0.08833333333333329,0.30648148148148147,1.8908000000119216],[-0.11677083333333335,0.319074074074074,1.9076999999880826],[-0.1430208333333333,0.3485185185185186,1.9240999999642412],[-0.17479166666666662,0.3411111111111112,1.9408000000119259],[-0.18374999999999997,0.3351851851851852,1.9575999999642377],[-0.17114583333333327,0.352962962962963,1.9743000000119224],[-0.1922916666666667,0.35351851851851845,1.990800000011923],[-0.19583333333333333,0.3412962962962962,2.007599999964242],[-0.18687499999999999,0.3477777777777777,2.0250999999642403],[-0.1670833333333333,0.352962962962963,2.040899999976162],[-0.1670833333333333,0.352962962962963,2.0575000000000045],[-0.17302083333333335,0.34037037037037027,2.074199999988082],[-0.153125,0.3461111111111111,2.090899999976159],[-0.13322916666666665,0.35185185185185186,2.1075000000000017],[-0.1382291666666667,0.3557407407407408,2.124199999988079],[-0.11968749999999997,0.3520370370370371,2.1408000000119216],[-0.128125,0.35425925925925916,2.1575999999642406],[-0.10281250000000004,0.3737037037037036,2.1745999999642365],[-0.1202083333333333,0.37888888888888894,2.190800000011926],[-0.15239583333333329,0.372037037037037,2.2075999999642377],[-0.1616666666666667,0.3633333333333334,2.2243000000119224],[-0.1616666666666667,0.3633333333333334,2.2408999999761576],[-0.1452083333333333,0.37240740740740746,2.257599999964242],[-0.13489583333333333,0.36574074074074076,2.2743000000119267],[-0.12458333333333335,0.35907407407407405,2.2943000000119227],[-0.12458333333333335,0.35907407407407405,2.307699999988081],[-0.09739583333333333,0.35611111111111104,2.324599999964242],[-0.09291666666666672,0.35259259259259257,2.3458999999761616],[-0.09291666666666672,0.35259259259259257,2.3575999999642363],[-0.09833333333333331,0.330925925925926,2.3743999999761627],[-0.10375000000000002,0.30925925925925923,2.3908000000119216],[-0.04760416666666671,0.3031481481481482,2.410499999999999],[-0.014479166666666644,0.2616666666666666,2.42589999997616],[-0.007083333333333286,0.23037037037037034,2.4418000000119235],[0.020624999999999952,0.21074074074074065,2.4575999999642377],[0.044062499999999956,0.18777777777777774,2.4771999999880805],[0.051874999999999956,0.16500000000000004,2.4916999999880787],[0.051874999999999956,0.16500000000000004,2.507800000011926],[0.07541666666666676,0.1685185185185185,2.5275000000000034],[0.09093749999999995,0.19962962962962955,2.542500000000004],[0.11458333333333333,0.1814814814814815,2.558],[0.11458333333333333,0.1814814814814815,2.5783000000119216],[0.1321875000000001,0.1566666666666667,2.591099999964243],[0.12416666666666672,0.1574074074074074,2.6075999999642363],[0.12843749999999995,0.17037037037037037,2.6268999999761604],[0.16239583333333343,0.1675925925925926,2.6423000000119217],[0.15093750000000009,0.1381481481481482,2.6583999999761616],[0.13739583333333344,0.10685185185185193,2.677500000000002],[0.13895833333333343,0.07185185185185176,2.691500000000005],[0.11020833333333328,0.04018518518518527,2.7075999999642377],[0.08864583333333324,-0.010925925925925884,2.7286999999880805],[0.09302083333333329,0.020185185185185143,2.7420000000000044],[0.10343749999999995,0.057962962962962876,2.757599999964242],[0.0953125,0.027407407407407325,2.78069999998808],[0.0953125,0.027407407407407325,2.790699999988078],[0.09916666666666671,0.022037037037036994,2.807699999988081],[0.0640625,0.0242592592592593,2.8240999999642398],[0.06458333333333334,0.02296296296296292,2.8408000000119245],[0.0655208333333333,0.031111111111111027,2.858699999988083],[0.043333333333333356,0.032407407407407406,2.8748000000119234],[0.01583333333333338,0.027037037037037078,2.8906999999880796],[-0.011666666666666714,0.02166666666666675,2.9113999999761617],[-0.02947916666666662,-0.0025925925925925505,2.9273000000119254],[-0.04729166666666664,-0.026851851851851852,2.9416999999880815],[-0.07229166666666664,-0.04018518518518527,2.957500000000003],[-0.07447916666666667,-0.028518518518518478,2.9750000000000014],[-0.07447916666666667,-0.028518518518518478,2.9938999999761577],[-0.06791666666666671,-0.04296296296296305,3.0073999999761583],[-0.09656250000000005,-0.03722222222222227,3.0240999999642426],[-0.12354166666666669,-0.039074074074074115,3.0411999999880805],[-0.12687499999999996,-0.030555555555555555,3.057800000011923],[-0.10010416666666669,-0.04981481481481477,3.0766999999880795],[-0.09979166666666663,-0.06333333333333331,3.0915000000000035],[-0.13468749999999996,-0.06314814814814819,3.1076999999880783],[-0.14031250000000003,-0.062407407407407384,3.124099999964237],[-0.10604166666666662,-0.06129629629629634,3.1406999999880796],[-0.12208333333333338,-0.08518518518518518,3.157399999976164],[-0.10052083333333334,-0.06759259259259259,3.177500000000002],[-0.10052083333333334,-0.06759259259259259,3.1908999999761605],[-0.07947916666666661,-0.09259259259259259,3.207500000000003],[-0.06854166666666663,-0.1111111111111111,3.227499999999999],[-0.04604166666666672,-0.12185185185185188,3.2416999999880787],[-0.04604166666666672,-0.12185185185185188,3.2575000000000003],[-0.08624999999999995,-0.12481481481481477,3.2740999999642426],[-0.06187499999999998,-0.09092592592592597,3.2944999999999993],[-0.03322916666666664,-0.12851851851851848,3.3111999999880837],[-0.03322916666666664,-0.12851851851851848,3.3243999999761584],[-0.04114583333333333,-0.16648148148148145,3.341099999964243],[-0.05458333333333331,-0.17092592592592595,3.359800000011923],[-0.025729166666666713,-0.18870370370370365,3.376800000011926],[-0.043333333333333356,-0.22333333333333338,3.394300000011924],[-0.03572916666666662,-0.21703703703703703,3.4103000000119224],[-0.014479166666666644,-0.21277777777777773,3.4295000000000044],[-0.010416666666666666,-0.19907407407407407,3.445099999964242],[0.015312500000000047,-0.19222222222222224,3.462099999964238],[0.015312500000000047,-0.19222222222222224,3.4740999999642384],[0.02822916666666669,-0.24833333333333338,3.4908999999761576],[0.06635416666666671,-0.2235185185185185,3.507599999964242],[0.07531249999999995,-0.2257407407407407,3.5263999999761637],[0.08875000000000005,-0.23148148148148148,3.5440999999642386],[0.08885416666666662,-0.22092592592592594,3.5611999999880837],[0.09572916666666677,-0.2192592592592592,3.5778000000119263],[0.10750000000000005,-0.18703703703703703,3.5945000000000036],[0.10739583333333323,-0.16814814814814816,3.6123000000119205],[0.1109375,-0.1911111111111111,3.6283999999761605],[0.13052083333333328,-0.17814814814814814,3.643500000000003],[0.13031249999999991,-0.1403703703703704,3.6576999999880826],[0.13031249999999991,-0.1403703703703704,3.674099999964241],[0.11291666666666676,-0.15185185185185185,3.690800000011926],[0.13145833333333337,-0.127962962962963,3.707399999976161],[0.12312500000000005,-0.122037037037037,3.7240999999642384],[0.11166666666666672,-0.1346296296296296,3.7445999999642368],[0.08104166666666662,-0.102962962962963,3.7595999999642373],[0.050416666666666644,-0.14481481481481479,3.777000000000001],[0.03843749999999998,-0.1544444444444444,3.792099999964236],[0.03843749999999998,-0.1544444444444444,3.8073999999761625],[-0.002708333333333357,-0.1366666666666667,3.824199999988082],[-0.05447916666666662,-0.15407407407407406,3.840899999976159],[-0.10104166666666667,-0.19074074074074074,3.8575000000000017],[-0.10104166666666667,-0.19074074074074074,3.874099999964237],[-0.15239583333333329,-0.22870370370370371,3.8908999999761633],[-0.16145833333333334,-0.21277777777777773,3.907499999999999],[-0.18552083333333336,-0.20129629629629628,3.924099999964241],[-0.20708333333333329,-0.17333333333333337,3.942599999964237],[-0.19145833333333329,-0.19462962962962968,3.957399999976161],[-0.16312500000000002,-0.17740740740740743,3.974499999999999],[-0.17927083333333335,-0.1801851851851852,3.990800000011923],[-0.17927083333333335,-0.1801851851851852,4.0075],[-0.15197916666666664,-0.15203703703703708,4.024099999964243],[-0.11302083333333333,-0.10277777777777777,4.040899999976162],[-0.07927083333333336,-0.03759259259259251,4.0575000000000045],[-0.04833333333333331,0.023148148148148147,4.076500000000003],[-0.07749999999999997,-0.000925925925925926,4.094599999964238],[-0.08739583333333331,0.009444444444444486,4.110500000000002],[-0.10427083333333335,-0.025925925925925925,4.1270000000000024],[-0.10427083333333335,-0.025925925925925925,4.140800000011922],[-0.09916666666666671,-0.01703703703703712,4.157499999999999],[-0.16499999999999998,-0.019444444444444445,4.176500000000004],[-0.17322916666666663,-0.001851851851851852,4.191399999976163],[-0.18187500000000004,-0.026851851851851852,4.210399999976161],[-0.1920833333333333,-0.075,4.2271999999880805],[-0.2169791666666666,-0.1287037037037037,4.241300000011925],[-0.21802083333333327,-0.13222222222222219,4.260000000000005],[-0.21947916666666673,-0.14759259259259258,4.278699999988085],[-0.21947916666666673,-0.14759259259259258,4.29080000001192],[-0.20687500000000003,-0.1655555555555555,4.307699999988081],[-0.20687500000000003,-0.1655555555555555,4.324199999988082],[-0.1820833333333333,-0.14870370370370373,4.340899999976159],[-0.20218750000000002,-0.1479629629629629,4.358499999999999],[-0.18156249999999996,-0.19574074074074072,4.374899999976158],[-0.15187499999999995,-0.2101851851851852,4.390800000011922],[-0.16656249999999997,-0.21629629629629632,4.407499999999999],[-0.16927083333333334,-0.17240740740740745,4.427500000000002],[-0.1670833333333333,-0.11018518518518519,4.443800000011926],[-0.1560416666666666,-0.12000000000000002,4.4593999999761635],[-0.12625000000000006,-0.0955555555555556,4.477399999976157],[-0.1202083333333333,-0.06148148148148146,4.495199999988081],[-0.12145833333333336,-0.019444444444444445,4.5105],[-0.1140625,-0.0016666666666666245,4.526899999976159],[-0.11864583333333331,0.06814814814814807,4.542399999976162],[-0.14718749999999994,0.06444444444444436,4.561899999976163],[-0.1408333333333334,0.06648148148148143,4.57819999998808],[-0.11822916666666666,0.05685185185185194,4.594000000000001],[-0.10760416666666663,0.04277777777777782,4.609399999976162],[-0.1140625,0.049629629629629544,4.627099999964244],[-0.11114583333333337,0.06944444444444445,4.642599999964233],[-0.10541666666666671,0.044999999999999915,4.659999999999997],[-0.09500000000000004,0.010185185185185186,4.677300000011925],[-0.08385416666666666,-0.008333333333333333,4.693699999988084],[-0.0375,-0.001851851851851852,4.710399999976161],[0.0003124999999999526,0.021481481481481525,4.725899999976164],[0.016562499999999977,0.06629629629629621,4.74080000001193],[0.016562499999999977,0.06629629629629621,4.757500000000007],[0.008437500000000023,0.09407407407407399,4.7740999999642355],[0.021458333333333357,0.07074074074074083,4.792199999988085],[0.058124999999999954,0.07074074074074083,4.807699999988088],[0.07354166666666657,0.07074074074074083,4.8280999999642376],[0.09833333333333343,0.0837037037037038,4.844000000000008],[0.09927083333333328,0.08462962962962971,4.8606999999880856],[0.11906249999999995,0.09462962962962967,4.877300000011928],[0.1290625000000001,0.09092592592592597,4.894599999964242],[0.1390625,0.08722222222222227,4.911399999976155],[0.1521874999999999,0.04888888888888885,4.928399999976165],[0.16531250000000006,0.01055555555555564,4.9433000000119165],[0.1798958333333334,0.029259259259259176,4.961300000011917],[0.15791666666666657,0.040370370370370286,4.977399999976157],[0.15427083333333325,0.02962962962962963,4.992399999976158],[0.1506249999999999,0.018888888888888972,5.008899999976165],[0.16302083333333334,0.01962962962962967,5.028199999988075],[0.15208333333333332,0.011666666666666582,5.045000000000002],[0.14572916666666677,-0.0007407407407406986,5.060699999988088],[0.15593750000000003,-0.008888888888888804,5.076999999999998],[0.16104166666666658,-0.0001851851851852273,5.09469999998808],[0.17583333333333329,0.0198148148148149,5.1121999999880785],[0.18104166666666663,-0.009629629629629714,5.131199999988084],[0.18104166666666663,-0.009629629629629714,5.140899999976156],[0.17510416666666656,-0.030740740740740784,5.1575999999642335],[0.1642708333333334,-0.05425925925925928,5.174199999988076],[0.15343749999999995,-0.07777777777777778,5.193699999988084],[0.13635416666666675,-0.06518518518518517,5.209699999988075],[0.15072916666666672,-0.05277777777777778,5.227199999988088],[0.1638541666666666,-0.0514814814814814,5.2433999999761625],[0.11458333333333333,-0.060555555555555536,5.259],[0.10343749999999995,-0.0705555555555556,5.275599999964243],[0.07447916666666667,-0.07962962962962963,5.294399999976164],[0.07447916666666667,-0.07962962962962963,5.307399999976155],[0.05260416666666667,-0.049074074074074076,5.324199999988082],[0.025729166666666713,-0.012777777777777735,5.343300000011922],[-0.005208333333333333,0.001851851851851852,5.360099999964234],[-0.005208333333333333,0.001851851851851852,5.374099999964244],[-0.036145833333333384,0.01648148148148144,5.394599999964242],[-0.002499999999999976,0.011296296296296339,5.4103000000119295],[-0.051770833333333384,0.010185185185185186,5.426000000000002],[-0.051770833333333384,0.010185185185185186,5.440800000011919],[-0.07114583333333328,-0.002407407407407323,5.461199999988082],[-0.024687500000000046,0.009444444444444486,5.478000000000009],[0.004791666666666691,0.013333333333333417,5.494],[0.004791666666666691,0.013333333333333417,5.5110999999642445],[-0.007291666666666667,0.023148148148148147,5.52430000001192],[0.0109375,0.006851851851851936,5.5460000000000065],[0.05302083333333331,-0.02759259259259255,5.56139999997616],[0.05302083333333331,-0.02759259259259255,5.574099999964233],[0.06083333333333331,-0.006481481481481481,5.5908000000119245],[0.1056250000000001,-0.01592592592592597,5.607399999976167],[0.05249999999999998,0.0001851851851852273,5.626800000011926],[0.05249999999999998,0.0001851851851852273,5.640699999988087],[0.07937500000000004,-0.0338888888888888,5.657499999999999],[0.0484375,-0.005370370370370328,5.676800000011923],[0.06749999999999995,-0.013333333333333417,5.692999999999998],[0.021249999999999977,-0.025,5.709699999988075],[0.09406249999999995,-0.026111111111111154,5.726599999964236],[0.10750000000000005,-0.007592592592592635,5.741199999988083],[0.12156250000000005,-0.016851851851851896,5.757500000000007],[0.1540625000000001,-0.020740740740740823,5.778000000000006],[0.17333333333333342,-0.005740740740740783,5.794800000011918],[0.2353125000000001,-0.02166666666666675,5.811000000000007],[0.28666666666666674,0.0020370370370370794,5.826399999976161],[0.36177083333333326,-0.008888888888888804,5.844199999988078],[0.36687500000000006,-0.0016666666666666245,5.8613999999761575],[0.36687500000000006,-0.0016666666666666245,5.874300000011928],[0.4181250000000001,-0.000925925925925926,5.8948000000119265],[0.4181250000000001,-0.000925925925925926,5.907399999976164],[0.3885416666666667,-0.006666666666666709,5.927800000011928],[0.3868750000000001,-0.008148148148148106,5.942199999988077],[0.37354166666666655,0.008148148148148106,5.95769999998808],[0.39729166666666677,0.011296296296296339,5.974099999964238],[0.39895833333333336,0.018518518518518517,5.991099999964234],[0.3935416666666666,0.024074074074074074,6.007500000000007],[0.3602083333333333,0.06185185185185181,6.0240999999642355],[0.3584374999999999,0.08000000000000008,6.044099999964246],[0.3403125000000001,0.10166666666666663,6.060199999988086],[0.3220833333333334,0.10555555555555556,6.076499999999996],[0.3162499999999999,0.1014814814814814,6.092899999976154],[0.3162499999999999,0.1014814814814814,6.107699999988085],[0.3471874999999999,0.08592592592592588,6.124199999988079],[0.3458333333333333,0.05907407407407403,6.140699999988087],[0.3481250000000001,0.015370370370370286,6.157399999976164],[0.33177083333333335,-0.02814814814814823,6.174000000000007],[0.31968750000000007,-0.0544444444444444,6.191300000011921],[0.3241666666666667,-0.11648148148148144,6.207499999999996],[0.2882291666666667,-0.152962962962963,6.224099999964238],[0.2686458333333334,-0.19296296296296295,6.24080000001193],[0.26833333333333326,-0.205,6.257899999976161],[0.26458333333333334,-0.24518518518518514,6.27509999996424],[0.23145833333333338,-0.27629629629629626,6.291899999976167],[0.23145833333333338,-0.27629629629629626,6.307399999976155],[0.23135416666666658,-0.2627777777777777,6.324199999988082],[0.2209374999999999,-0.2553703703703703,6.344300000011927],[0.22708333333333333,-0.22148148148148153,6.3598999999761645],[0.2390625,-0.21444444444444447,6.374399999976163],[0.22989583333333338,-0.19148148148148145,6.390800000011922],[0.2618750000000001,-0.1655555555555555,6.407499999999999],[0.2694791666666667,-0.17703703703703708,6.424599999964244],[0.28968749999999993,-0.17518518518518522,6.440899999976153],[0.30833333333333335,-0.147037037037037,6.457399999976161],[0.3185416666666666,-0.12092592592592595,6.474099999964238],[0.32145833333333323,-0.13870370370370366,6.49080000001193],[0.31187500000000007,-0.1412962962962963,6.507399999976158],[0.3094791666666666,-0.14314814814814816,6.529399999976164],[0.2921875,-0.14444444444444443,6.543300000011925],[0.29145833333333326,-0.12462962962962965,6.559099999964246],[0.25843749999999993,-0.11370370370370367,6.574199999988082],[0.2716666666666666,-0.10666666666666672,6.593699999988075],[0.2534374999999999,-0.1037037037037037,6.6093000000119275],[0.23145833333333338,-0.10592592592592591,6.6253999999761675],[0.20958333333333337,-0.10037037037037035,6.640699999988087],[0.19760416666666672,-0.07018518518518514,6.657499999999999],[0.1712500000000001,-0.05648148148148148,6.675899999976167],[0.13812499999999991,-0.06259259259259262,6.690800000011919],[0.1134375000000001,-0.05259259259259255,6.707399999976161],[0.0921875,-0.07481481481481478,6.724000000000004],[0.07687499999999996,-0.10444444444444441,6.7428000000119255],[0.05375000000000003,-0.10777777777777775,6.758699999988082],[0.04510416666666662,-0.09388888888888887,6.775399999976159],[0.052083333333333336,-0.08314814814814811,6.793000000000006],[0.03208333333333328,-0.07666666666666662,6.807399999976155],[0.02645833333333331,-0.08611111111111111,6.824099999964233],[0.028437499999999952,-0.08870370370370366,6.840699999988075],[0.05604166666666662,-0.09074074074074075,6.8608000000119205],[0.08177083333333333,-0.11574074074074074,6.876399999976158],[0.09822916666666662,-0.10740740740740741,6.890800000011922],[0.09916666666666671,-0.10185185185185185,6.907399999976164],[0.08822916666666672,-0.08444444444444449,6.924000000000007],[0.08822916666666672,-0.08444444444444449,6.940699999988084],[0.08166666666666676,-0.09351851851851851,6.957399999976161],[0.08114583333333343,-0.10925925925925926,6.976899999976155],[0.11645833333333329,-0.13907407407407413,6.992099999964239],[0.11645833333333329,-0.13907407407407413,7.007399999976158],[0.13739583333333344,-0.152962962962963,7.0240999999642355],[0.14197916666666663,-0.1403703703703704,7.040699999988078],[0.1212500000000001,-0.12666666666666662,7.057399999976155],[0.1212500000000001,-0.12666666666666662,7.074099999964233],[0.09802083333333324,-0.11740740740740736,7.090899999976159],[0.11437499999999995,-0.12814814814814812,7.107399999976167],[0.15968749999999995,-0.11740740740740736,7.124199999988079],[0.15968749999999995,-0.11740740740740736,7.140899999976156],[0.1554166666666667,-0.13759259259259263,7.157499999999999],[0.15187499999999995,-0.12537037037037035,7.177899999976162],[0.11833333333333323,-0.10925925925925926,7.194000000000003]]","[0.00030000001192576065,0.032800000011924624,0.04080000001192019,0.060899999976157915,0.07700000000000529,0.09419999998807782,0.10919999998807839,0.12409999996423693,0.1408000000119216,0.1576999999880826,0.17459999996423647,0.19319999998808157,0.21059999996423784,0.22589999997615706,0.24089999997615763,0.2588000000119237,0.2775000000000034,0.2948999999761597,0.30750000000000455,0.32430000001192383,0.34080000001192445,0.3575000000000017,0.37419999998807896,0.3931999999880844,0.41100000000000136,0.426800000011923,0.44119999998807913,0.4578999999761635,0.47680000001192013,0.49159999996423664,0.5075000000000003,0.5245999999642379,0.5423000000119202,0.5601999999880789,0.5765000000000029,0.5931999999880802,0.6108000000119205,0.6268999999761604,0.6410999999642399,0.6574999999999989,0.6740999999642412,0.6908999999761605,0.7075000000000031,0.7268999999761618,0.7445999999642368,0.7598000000119214,0.775500000000001,0.7921999999880782,0.8075999999642391,0.8240999999642398,0.8445999999642382,0.8601999999880832,0.8785000000000025,0.8943999999761587,0.9100999999642383,0.9265000000000043,0.9413000000119212,0.9575999999642377,0.9741999999880804,0.990800000011923,1.0075000000000003,1.024800000011922,1.0423000000119202,1.0605000000000047,1.0800000000000054,1.0911999999880848,1.1075000000000017,1.1248000000119234,1.1423000000119217,1.1585000000000036,1.1740999999642412,1.1908000000119259,1.2113999999761589,1.2283000000119202,1.2441999999880835,1.2605000000000004,1.27919999998808,1.290899999976162,1.3075000000000045,1.328800000011924,1.3470000000000013,1.3575000000000017,1.374099999964237,1.3948000000119265,1.4108999999761593,1.4275999999642366,1.4435000000000002,1.4590000000000032,1.4780999999642361,1.490800000011923,1.5075000000000003,1.524599999964238,1.5408000000119202,1.5618999999761627,1.5741999999880818,1.591000000000001,1.6075999999642363,1.624199999988079,1.6408000000119216,1.6575999999642406,1.6746999999880785,1.6908999999761605,1.7075000000000031,1.7241999999880804,1.7428000000119255,1.7636999999880842,1.7741999999880846,1.790899999976162,1.8125,1.8253999999761632,1.8440000000000012,1.867300000011923,1.874099999964237,1.8908000000119216,1.9076999999880826,1.9240999999642412,1.9408000000119259,1.9575999999642377,1.9743000000119224,1.990800000011923,2.007599999964242,2.0250999999642403,2.040899999976162,2.0575000000000045,2.074199999988082,2.090899999976159,2.1075000000000017,2.124199999988079,2.1408000000119216,2.1575999999642406,2.1745999999642365,2.190800000011926,2.2075999999642377,2.2243000000119224,2.2408999999761576,2.257599999964242,2.2743000000119267,2.2943000000119227,2.307699999988081,2.324599999964242,2.3458999999761616,2.3575999999642363,2.3743999999761627,2.3908000000119216,2.410499999999999,2.42589999997616,2.4418000000119235,2.4575999999642377,2.4771999999880805,2.4916999999880787,2.507800000011926,2.5275000000000034,2.542500000000004,2.558,2.5783000000119216,2.591099999964243,2.6075999999642363,2.6268999999761604,2.6423000000119217,2.6583999999761616,2.677500000000002,2.691500000000005,2.7075999999642377,2.7286999999880805,2.7420000000000044,2.757599999964242,2.78069999998808,2.790699999988078,2.807699999988081,2.8240999999642398,2.8408000000119245,2.858699999988083,2.8748000000119234,2.8906999999880796,2.9113999999761617,2.9273000000119254,2.9416999999880815,2.957500000000003,2.9750000000000014,2.9938999999761577,3.0073999999761583,3.0240999999642426,3.0411999999880805,3.057800000011923,3.0766999999880795,3.0915000000000035,3.1076999999880783,3.124099999964237,3.1406999999880796,3.157399999976164,3.177500000000002,3.1908999999761605,3.207500000000003,3.227499999999999,3.2416999999880787,3.2575000000000003,3.2740999999642426,3.2944999999999993,3.3111999999880837,3.3243999999761584,3.341099999964243,3.359800000011923,3.376800000011926,3.394300000011924,3.4103000000119224,3.4295000000000044,3.445099999964242,3.462099999964238,3.4740999999642384,3.4908999999761576,3.507599999964242,3.5263999999761637,3.5440999999642386,3.5611999999880837,3.5778000000119263,3.5945000000000036,3.6123000000119205,3.6283999999761605,3.643500000000003,3.6576999999880826,3.674099999964241,3.690800000011926,3.707399999976161,3.7240999999642384,3.7445999999642368,3.7595999999642373,3.777000000000001,3.792099999964236,3.8073999999761625,3.824199999988082,3.840899999976159,3.8575000000000017,3.874099999964237,3.8908999999761633,3.907499999999999,3.924099999964241,3.942599999964237,3.957399999976161,3.974499999999999,3.990800000011923,4.0075,4.024099999964243,4.040899999976162,4.0575000000000045,4.076500000000003,4.094599999964238,4.110500000000002,4.1270000000000024,4.140800000011922,4.157499999999999,4.176500000000004,4.191399999976163,4.210399999976161,4.2271999999880805,4.241300000011925,4.260000000000005,4.278699999988085,4.29080000001192,4.307699999988081,4.324199999988082,4.340899999976159,4.358499999999999,4.374899999976158,4.390800000011922,4.407499999999999,4.427500000000002,4.443800000011926,4.4593999999761635,4.477399999976157,4.495199999988081,4.5105,4.526899999976159,4.542399999976162,4.561899999976163,4.57819999998808,4.594000000000001,4.609399999976162,4.627099999964244,4.642599999964233,4.659999999999997,4.677300000011925,4.693699999988084,4.710399999976161,4.725899999976164,4.74080000001193,4.757500000000007,4.7740999999642355,4.792199999988085,4.807699999988088,4.8280999999642376,4.844000000000008,4.8606999999880856,4.877300000011928,4.894599999964242,4.911399999976155,4.928399999976165,4.9433000000119165,4.961300000011917,4.977399999976157,4.992399999976158,5.008899999976165,5.028199999988075,5.045000000000002,5.060699999988088,5.076999999999998,5.09469999998808,5.1121999999880785,5.131199999988084,5.140899999976156,5.1575999999642335,5.174199999988076,5.193699999988084,5.209699999988075,5.227199999988088,5.2433999999761625,5.259,5.275599999964243,5.294399999976164,5.307399999976155,5.324199999988082,5.343300000011922,5.360099999964234,5.374099999964244,5.394599999964242,5.4103000000119295,5.426000000000002,5.440800000011919,5.461199999988082,5.478000000000009,5.494,5.5110999999642445,5.52430000001192,5.5460000000000065,5.56139999997616,5.574099999964233,5.5908000000119245,5.607399999976167,5.626800000011926,5.640699999988087,5.657499999999999,5.676800000011923,5.692999999999998,5.709699999988075,5.726599999964236,5.741199999988083,5.757500000000007,5.778000000000006,5.794800000011918,5.811000000000007,5.826399999976161,5.844199999988078,5.8613999999761575,5.874300000011928,5.8948000000119265,5.907399999976164,5.927800000011928,5.942199999988077,5.95769999998808,5.974099999964238,5.991099999964234,6.007500000000007,6.0240999999642355,6.044099999964246,6.060199999988086,6.076499999999996,6.092899999976154,6.107699999988085,6.124199999988079,6.140699999988087,6.157399999976164,6.174000000000007,6.191300000011921,6.207499999999996,6.224099999964238,6.24080000001193,6.257899999976161,6.27509999996424,6.291899999976167,6.307399999976155,6.324199999988082,6.344300000011927,6.3598999999761645,6.374399999976163,6.390800000011922,6.407499999999999,6.424599999964244,6.440899999976153,6.457399999976161,6.474099999964238,6.49080000001193,6.507399999976158,6.529399999976164,6.543300000011925,6.559099999964246,6.574199999988082,6.593699999988075,6.6093000000119275,6.6253999999761675,6.640699999988087,6.657499999999999,6.675899999976167,6.690800000011919,6.707399999976161,6.724000000000004,6.7428000000119255,6.758699999988082,6.775399999976159,6.793000000000006,6.807399999976155,6.824099999964233,6.840699999988075,6.8608000000119205,6.876399999976158,6.890800000011922,6.907399999976164,6.924000000000007,6.940699999988084,6.957399999976161,6.976899999976155,6.992099999964239,7.007399999976158,7.0240999999642355,7.040699999988078,7.057399999976155,7.074099999964233,7.090899999976159,7.107399999976167,7.124199999988079,7.140899999976156,7.157499999999999,7.177899999976162,7.194000000000003]","[1732938271108,1732938271134,1732938271142,1732938271162,1732938271178,1732938271195,1732938271210,1732938271225,1732938271242,1732938271259,1732938271276,1732938271294,1732938271312,1732938271327,1732938271342,1732938271360,1732938271378,1732938271396,1732938271409,1732938271425,1732938271442,1732938271459,1732938271475,1732938271494,1732938271512,1732938271528,1732938271542,1732938271559,1732938271578,1732938271593,1732938271609,1732938271626,1732938271643,1732938271661,1732938271678,1732938271694,1732938271712,1732938271728,1732938271742,1732938271759,1732938271775,1732938271792,1732938271809,1732938271828,1732938271846,1732938271861,1732938271877,1732938271893,1732938271909,1732938271925,1732938271946,1732938271961,1732938271980,1732938271995,1732938272011,1732938272028,1732938272042,1732938272059,1732938272075,1732938272092,1732938272109,1732938272126,1732938272143,1732938272162,1732938272181,1732938272192,1732938272209,1732938272226,1732938272243,1732938272260,1732938272275,1732938272292,1732938272312,1732938272329,1732938272345,1732938272362,1732938272380,1732938272392,1732938272409,1732938272430,1732938272448,1732938272459,1732938272475,1732938272496,1732938272512,1732938272529,1732938272545,1732938272560,1732938272579,1732938272592,1732938272609,1732938272626,1732938272642,1732938272663,1732938272675,1732938272692,1732938272709,1732938272725,1732938272742,1732938272759,1732938272776,1732938272792,1732938272809,1732938272825,1732938272844,1732938272865,1732938272875,1732938272892,1732938272914,1732938272927,1732938272945,1732938272968,1732938272975,1732938272992,1732938273009,1732938273025,1732938273042,1732938273059,1732938273075,1732938273092,1732938273109,1732938273126,1732938273142,1732938273159,1732938273175,1732938273192,1732938273209,1732938273225,1732938273242,1732938273259,1732938273276,1732938273292,1732938273309,1732938273325,1732938273342,1732938273359,1732938273375,1732938273395,1732938273409,1732938273426,1732938273447,1732938273459,1732938273475,1732938273492,1732938273512,1732938273527,1732938273543,1732938273559,1732938273578,1732938273593,1732938273609,1732938273629,1732938273644,1732938273659,1732938273679,1732938273692,1732938273709,1732938273728,1732938273743,1732938273760,1732938273778,1732938273793,1732938273809,1732938273830,1732938273843,1732938273859,1732938273882,1732938273892,1732938273909,1732938273925,1732938273942,1732938273960,1732938273976,1732938273992,1732938274012,1732938274028,1732938274043,1732938274059,1732938274076,1732938274095,1732938274108,1732938274125,1732938274142,1732938274159,1732938274178,1732938274193,1732938274209,1732938274225,1732938274242,1732938274258,1732938274279,1732938274292,1732938274309,1732938274329,1732938274343,1732938274359,1732938274375,1732938274396,1732938274412,1732938274426,1732938274442,1732938274461,1732938274478,1732938274495,1732938274511,1732938274531,1732938274546,1732938274563,1732938274575,1732938274592,1732938274609,1732938274627,1732938274645,1732938274662,1732938274679,1732938274696,1732938274713,1732938274729,1732938274745,1732938274759,1732938274775,1732938274792,1732938274808,1732938274825,1732938274846,1732938274861,1732938274878,1732938274893,1732938274908,1732938274925,1732938274942,1732938274958,1732938274975,1732938274992,1732938275008,1732938275025,1732938275044,1732938275058,1732938275076,1732938275092,1732938275109,1732938275125,1732938275142,1732938275159,1732938275178,1732938275196,1732938275212,1732938275228,1732938275242,1732938275259,1732938275278,1732938275292,1732938275311,1732938275328,1732938275342,1732938275361,1732938275380,1732938275392,1732938275409,1732938275425,1732938275442,1732938275459,1732938275476,1732938275492,1732938275509,1732938275529,1732938275545,1732938275560,1732938275579,1732938275596,1732938275612,1732938275628,1732938275643,1732938275663,1732938275679,1732938275695,1732938275710,1732938275728,1732938275744,1732938275761,1732938275778,1732938275795,1732938275812,1732938275827,1732938275842,1732938275859,1732938275875,1732938275893,1732938275909,1732938275929,1732938275945,1732938275962,1732938275978,1732938275996,1732938276012,1732938276029,1732938276044,1732938276062,1732938276078,1732938276093,1732938276110,1732938276129,1732938276146,1732938276162,1732938276178,1732938276196,1732938276213,1732938276232,1732938276242,1732938276259,1732938276275,1732938276295,1732938276311,1732938276328,1732938276344,1732938276360,1732938276377,1732938276395,1732938276408,1732938276425,1732938276444,1732938276461,1732938276475,1732938276496,1732938276511,1732938276527,1732938276542,1732938276562,1732938276579,1732938276595,1732938276612,1732938276625,1732938276647,1732938276662,1732938276675,1732938276692,1732938276708,1732938276728,1732938276742,1732938276759,1732938276778,1732938276794,1732938276811,1732938276828,1732938276842,1732938276858,1732938276879,1732938276896,1732938276912,1732938276927,1732938276945,1732938276962,1732938276975,1732938276996,1732938277008,1732938277029,1732938277043,1732938277059,1732938277075,1732938277092,1732938277108,1732938277125,1732938277145,1732938277161,1732938277178,1732938277194,1732938277209,1732938277225,1732938277242,1732938277258,1732938277275,1732938277293,1732938277309,1732938277325,1732938277342,1732938277359,1732938277376,1732938277393,1732938277409,1732938277425,1732938277445,1732938277461,1732938277475,1732938277492,1732938277509,1732938277526,1732938277542,1732938277559,1732938277575,1732938277592,1732938277608,1732938277630,1732938277644,1732938277660,1732938277675,1732938277695,1732938277710,1732938277726,1732938277742,1732938277759,1732938277777,1732938277792,1732938277808,1732938277825,1732938277844,1732938277860,1732938277877,1732938277894,1732938277908,1732938277925,1732938277942,1732938277962,1732938277977,1732938277992,1732938278008,1732938278025,1732938278042,1732938278058,1732938278078,1732938278093,1732938278108,1732938278125,1732938278142,1732938278158,1732938278175,1732938278192,1732938278208,1732938278225,1732938278242,1732938278259,1732938278279,1732938278295]","[[836.4,495.2],[836.4,495.2],[859.9,505.7],[895.3,488.9],[919.5,491.3],[929.9,495.6],[939.9,507.2],[939.9,507.2],[954.7,532.2],[931.3,539.5],[952.3,530.7],[976.9,539],[978.1,557.6],[985.9,557.1],[970.2,573.5],[948.3,580.1],[938.3,596.5],[921.5,581.4],[921.5,581.4],[941.8,577.2],[941.8,577.2],[958.1,590.3],[967.3,607],[963,605.5],[957.2,613.5],[964.9,609.6],[978.7,611.3],[1006.6,611.1],[1051.7,622.2],[1049.8,634.6],[1004.4,622.6],[978.8,619.8],[946.2,626.7],[905.4,630.2],[876.4,621.7],[867.5,637.9],[850.3,642.5],[803.4,657.3],[731.9,651.5],[712.3,668.5],[712.3,668.5],[730.1,684.7],[748,685.9],[785.6,703.3],[800.7,707.9],[812,707.7],[796.7,697.2],[814.8,687.9],[814.8,687.9],[859.3,674.4],[880.1,673.7],[906.6,663.6],[895.7,654.3],[901.6,644.9],[883.1,617.9],[893.8,616.6],[893.8,616.6],[883.2,615.3],[889,613.7],[874.8,622.3],[857.2,628.1],[852.9,624.3],[860.7,627.1],[868.5,629.9],[871.5,638.8],[871.5,638.8],[890.1,653],[910.2,657.7],[940.3,641.9],[965.2,623.1],[965.2,623.1],[965.8,624.6],[978.5,625.7],[997.6,622.4],[1007,622.7],[996.4,611.3],[998.8,595.8],[998.8,595.8],[989.6,582.8],[975.5,586],[966.2,617],[966.2,617],[981,659],[1002,666.9],[1018.6,674],[1029.6,685.7],[1032.5,696.6],[1055.4,719.2],[1051.7,726.1],[1051.7,726.1],[1074.7,737],[1073.2,717.9],[1074.4,707.4],[1045,682],[1045,682],[1039.7,674.7],[995.8,666.4],[995.8,666.4],[997.3,681.3],[983.7,672.6],[966.5,667],[966.5,667],[959.2,668.6],[945.2,668.6],[938.7,681.6],[928.9,681.4],[928.9,681.4],[925.6,685.1],[907.5,698.3],[907.5,698.3],[922.5,710.1],[922.5,710.1],[891.3,696],[875.2,705.5],[847.9,712.3],[822.7,728.2],[792.2,724.2],[783.6,721],[795.7,730.6],[775.4,730.9],[772,724.3],[780.6,727.8],[799.6,730.6],[799.6,730.6],[793.9,723.8],[813,726.9],[832.1,730],[827.3,732.1],[845.1,730.1],[837,731.3],[861.3,741.8],[844.6,744.6],[813.7,740.9],[804.8,736.2],[804.8,736.2],[820.6,741.1],[830.5,737.5],[840.4,733.9],[840.4,733.9],[866.5,732.3],[870.8,730.4],[870.8,730.4],[865.6,718.7],[860.4,707],[914.3,703.7],[946.1,681.3],[953.2,664.4],[979.8,653.8],[1002.3,641.4],[1009.8,629.1],[1009.8,629.1],[1032.4,631],[1047.3,647.8],[1070,638],[1070,638],[1086.9,624.6],[1079.2,625],[1083.3,632],[1115.9,630.5],[1104.9,614.6],[1091.9,597.7],[1093.4,578.8],[1065.8,561.7],[1045.1,534.1],[1049.3,550.9],[1059.3,571.3],[1051.5,554.8],[1051.5,554.8],[1055.2,551.9],[1021.5,553.1],[1022,552.4],[1022.9,556.8],[1001.6,557.5],[975.2,554.6],[948.8,551.7],[931.7,538.6],[914.6,525.5],[890.6,518.3],[888.5,524.6],[888.5,524.6],[894.8,516.8],[867.3,519.9],[841.4,518.9],[838.2,523.5],[863.9,513.1],[864.2,505.8],[830.7,505.9],[825.3,506.3],[858.2,506.9],[842.8,494],[863.5,503.5],[863.5,503.5],[883.7,490],[894.2,480],[915.8,474.2],[915.8,474.2],[877.2,472.6],[900.6,490.9],[928.1,470.6],[928.1,470.6],[920.5,450.1],[907.6,447.7],[935.3,438.1],[918.4,419.4],[925.7,422.8],[946.1,425.1],[950,432.5],[974.7,436.2],[974.7,436.2],[987.1,405.9],[1023.7,419.3],[1032.3,418.1],[1045.2,415],[1045.3,420.7],[1051.9,421.6],[1063.2,439],[1063.1,449.2],[1066.5,436.8],[1085.3,443.8],[1085.1,464.2],[1085.1,464.2],[1068.4,458],[1086.2,470.9],[1078.2,474.1],[1067.2,467.3],[1037.8,484.4],[1008.4,461.8],[996.9,456.6],[996.9,456.6],[957.4,466.2],[907.7,456.8],[863,437],[863,437],[813.7,416.5],[805,425.1],[781.9,431.3],[761.2,446.4],[776.2,434.9],[803.4,444.2],[787.9,442.7],[787.9,442.7],[814.1,457.9],[851.5,484.5],[883.9,519.7],[913.6,552.5],[885.6,539.5],[876.1,545.1],[859.9,526],[859.9,526],[864.8,530.8],[801.6,529.5],[793.7,539],[785.4,525.5],[775.6,499.5],[751.7,470.5],[750.7,468.6],[749.3,460.3],[749.3,460.3],[761.4,450.6],[761.4,450.6],[785.2,459.7],[765.9,460.1],[785.7,434.3],[814.2,426.5],[800.1,423.2],[797.5,446.9],[799.6,480.5],[810.2,475.2],[838.8,488.4],[844.6,506.8],[843.4,529.5],[850.5,539.1],[846.1,576.8],[818.7,574.8],[824.8,575.9],[846.5,570.7],[856.7,563.1],[850.5,566.8],[853.3,577.5],[858.8,564.3],[868.8,545.5],[879.5,535.5],[924,539],[960.3,551.6],[975.9,575.8],[975.9,575.8],[968.1,590.8],[980.6,578.2],[1015.8,578.2],[1030.6,578.2],[1054.4,585.2],[1055.3,585.7],[1074.3,591.1],[1083.9,589.1],[1093.5,587.1],[1106.1,566.4],[1118.7,545.7],[1132.7,555.8],[1111.6,561.8],[1108.1,556],[1104.6,550.2],[1116.5,550.6],[1106,546.3],[1099.9,539.6],[1109.7,535.2],[1114.6,539.9],[1128.8,550.7],[1133.8,534.8],[1133.8,534.8],[1128.1,523.4],[1117.7,510.7],[1107.3,498],[1090.9,504.8],[1104.7,511.5],[1117.3,512.2],[1070,507.3],[1059.3,501.9],[1031.5,497],[1031.5,497],[1010.5,513.5],[984.7,533.1],[955,541],[955,541],[925.3,548.9],[957.6,546.1],[910.3,545.5],[910.3,545.5],[891.7,538.7],[936.3,545.1],[964.6,547.2],[964.6,547.2],[953,552.5],[970.5,543.7],[1010.9,525.1],[1010.9,525.1],[1018.4,536.5],[1061.4,531.4],[1010.4,540.1],[1010.4,540.1],[1036.2,521.7],[1006.5,537.1],[1024.8,532.8],[980.4,526.5],[1050.3,525.9],[1063.2,535.9],[1076.7,530.9],[1107.9,528.8],[1126.4,536.9],[1185.9,528.3],[1235.2,541.1],[1307.3,535.2],[1312.2,539.1],[1312.2,539.1],[1361.4,539.5],[1361.4,539.5],[1333,536.4],[1331.4,535.6],[1318.6,544.4],[1341.4,546.1],[1343,550],[1337.8,553],[1305.8,573.4],[1304.1,583.2],[1286.7,594.9],[1269.2,597],[1263.6,594.8],[1263.6,594.8],[1293.3,586.4],[1292,571.9],[1294.2,548.3],[1278.5,524.8],[1266.9,510.6],[1271.2,477.1],[1236.7,457.4],[1217.9,435.8],[1217.6,429.3],[1214,407.6],[1182.2,390.8],[1182.2,390.8],[1182.1,398.1],[1172.1,402.1],[1178,420.4],[1189.5,424.2],[1180.7,436.6],[1211.4,450.6],[1218.7,444.4],[1238.1,445.4],[1256,460.6],[1265.8,474.7],[1268.6,465.1],[1259.4,463.7],[1257.1,462.7],[1240.5,462],[1239.8,472.7],[1208.1,478.6],[1220.8,482.4],[1203.3,484],[1182.2,482.8],[1161.2,485.8],[1149.7,502.1],[1124.4,509.5],[1092.6,506.2],[1068.9,511.6],[1048.5,499.6],[1033.8,483.6],[1011.6,481.8],[1003.3,489.3],[1010,495.1],[990.8,498.6],[985.4,493.5],[987.3,492.1],[1013.8,491],[1038.5,477.5],[1054.3,482],[1055.2,485],[1044.7,494.4],[1044.7,494.4],[1038.4,489.5],[1037.9,481],[1071.8,464.9],[1071.8,464.9],[1091.9,457.4],[1096.3,464.2],[1076.4,471.6],[1076.4,471.6],[1054.1,476.6],[1069.8,470.8],[1113.3,476.6],[1113.3,476.6],[1109.2,465.7],[1105.8,472.3],[1073.6,481]]","[0,0.151169218]","[0.151169218,0.151169218]","[-0.151169218,0]","[-0.151169218,-0.151169218]","[0,0]","[0.151169218,0]","[0,-0.151169218]","[0.151169218,-0.151169218]",0,0,0,0,1,4,Smartphone,11,5,13,9
