inst1_resp.keys,inst1_resp.rt,calibrationMouse.x,calibrationMouse.y,calibrationMouse.leftButton,calibrationMouse.midButton,calibrationMouse.rightButton,calibrationClick.x,calibrationClick.y,calibrationClick.leftButton,calibrationClick.midButton,calibrationClick.rightButton,trialsc.thisRepN,trialsc.thisTrialN,trialsc.thisN,trialsc.thisIndex,trialsc.ran,calibration_x,calibration_y,participant,session,date,expName,psychopyVersion,OS,frameRate,calibrationClick.clicked_name,ScreenRes_pixels,Camera_pixels,mouse_2.x,mouse_2.y,mouse_2.leftButton,mouse_2.midButton,mouse_2.rightButton,mouse_2.time,mouse_2.clicked_name,mouse.x,mouse.y,mouse.leftButton,mouse.midButton,mouse.rightButton,mouse.time,mouse.clicked_name,Choice,Trial,TrialDuration,MOUSE_GAZE,ET_GAZE,ET_GAZE_x_T,time,unixTime,ET_GAZE_NF,Loc_Option1_label,Loc_Option2_label,Loc_Cost_label,Loc_Qual_label,Loc_Option1_cost,Loc_Option2_cost,Loc_Option1_quality,Loc_Option2_quality,trials.thisRepN,trials.thisTrialN,trials.thisN,trials.thisIndex,trials.ran,Block,Device,cost1,qual1,cost2,qual2
space,7.7093,-0.172916667,0.068518519,1,0,0,0.019791667,0.357407407,0,0,0,0,0,0,1,1,-0.67,-0.33,34,001,2024-11-30_11h38.34.016,Attention_exp_legacy,2023.1.0,Win32,59.88023952,,,,,,,,,,,,,,,,,,,,,,,,,,,,,,,,,,,,,,,,,,,,,
,,,,,,,0.019791667,0.357407407,0,0,0,0,1,1,18,1,0.33,0.67,34,001,2024-11-30_11h38.34.016,Attention_exp_legacy,2023.1.0,Win32,59.88023952,,,,,,,,,,,,,,,,,,,,,,,,,,,,,,,,,,,,,,,,,,,,,
,,,,,,,0.019791667,0.357407407,0,0,0,0,2,2,11,1,0,0,34,001,2024-11-30_11h38.34.016,Attention_exp_legacy,2023.1.0,Win32,59.88023952,,,,,,,,,,,,,,,,,,,,,,,,,,,,,,,,,,,,,,,,,,,,,
,,,,,,,0.019791667,0.357407407,0,0,0,0,3,3,17,1,0.33,0.33,34,001,2024-11-30_11h38.34.016,Attention_exp_legacy,2023.1.0,Win32,59.88023952,,,,,,,,,,,,,,,,,,,,,,,,,,,,,,,,,,,,,,,,,,,,,
,,,,,,,0.019791667,0.357407407,0,0,0,0,4,4,0,1,-0.67,-0.67,34,001,2024-11-30_11h38.34.016,Attention_exp_legacy,2023.1.0,Win32,59.88023952,,,,,,,,,,,,,,,,,,,,,,,,,,,,,,,,,,,,,,,,,,,,,
,,,,,,,0.019791667,0.357407407,0,0,0,0,5,5,9,1,0,-0.67,34,001,2024-11-30_11h38.34.016,Attention_exp_legacy,2023.1.0,Win32,59.88023952,,,,,,,,,,,,,,,,,,,,,,,,,,,,,,,,,,,,,,,,,,,,,
,,,,,,,0.516666667,-0.37037037,0,0,0,0,6,6,20,1,0.67,-0.67,34,001,2024-11-30_11h38.34.016,Attention_exp_legacy,2023.1.0,Win32,59.88023952,,,,,,,,,,,,,,,,,,,,,,,,,,,,,,,,,,,,,,,,,,,,,
,,,,,,,-0.328125,-0.001851852,1,0,0,0,7,7,6,1,-0.33,0,34,001,2024-11-30_11h38.34.016,Attention_exp_legacy,2023.1.0,Win32,59.88023952,calibration_square,,,,,,,,,,,,,,,,,,,,,,,,,,,,,,,,,,,,,,,,,,,,
,,,,,,,0.332291667,0.009259259,1,0,0,0,8,8,16,1,0.33,0,34,001,2024-11-30_11h38.34.016,Attention_exp_legacy,2023.1.0,Win32,59.88023952,calibration_square,,,,,,,,,,,,,,,,,,,,,,,,,,,,,,,,,,,,,,,,,,,,
,,,,,,,-0.003125,0.67037037,1,0,0,0,9,9,13,1,0,0.67,34,001,2024-11-30_11h38.34.016,Attention_exp_legacy,2023.1.0,Win32,59.88023952,calibration_square,,,,,,,,,,,,,,,,,,,,,,,,,,,,,,,,,,,,,,,,,,,,
,,,,,,,-0.327083333,-0.314814815,1,0,0,0,10,10,5,1,-0.33,-0.33,34,001,2024-11-30_11h38.34.016,Attention_exp_legacy,2023.1.0,Win32,59.88023952,,,,,,,,,,,,,,,,,,,,,,,,,,,,,,,,,,,,,,,,,,,,,
,,,,,,,-0.671875,0.32962963,1,0,0,0,11,11,3,1,-0.67,0.33,34,001,2024-11-30_11h38.34.016,Attention_exp_legacy,2023.1.0,Win32,59.88023952,calibration_square,,,,,,,,,,,,,,,,,,,,,,,,,,,,,,,,,,,,,,,,,,,,
,,,,,,,0.342708333,-0.681481481,1,0,0,0,12,12,14,1,0.33,-0.67,34,001,2024-11-30_11h38.34.016,Attention_exp_legacy,2023.1.0,Win32,59.88023952,,,,,,,,,,,,,,,,,,,,,,,,,,,,,,,,,,,,,,,,,,,,,
,,,,,,,-0.33125,0.324074074,1,0,0,0,13,13,7,1,-0.33,0.33,34,001,2024-11-30_11h38.34.016,Attention_exp_legacy,2023.1.0,Win32,59.88023952,calibration_square,,,,,,,,,,,,,,,,,,,,,,,,,,,,,,,,,,,,,,,,,,,,
,,,,,,,0.326041667,-0.337037037,1,0,0,0,14,14,15,1,0.33,-0.33,34,001,2024-11-30_11h38.34.016,Attention_exp_legacy,2023.1.0,Win32,59.88023952,calibration_square,,,,,,,,,,,,,,,,,,,,,,,,,,,,,,,,,,,,,,,,,,,,
,,,,,,,-0.010416667,0.331481481,1,0,0,0,15,15,12,1,0,0.33,34,001,2024-11-30_11h38.34.016,Attention_exp_legacy,2023.1.0,Win32,59.88023952,,,,,,,,,,,,,,,,,,,,,,,,,,,,,,,,,,,,,,,,,,,,,
,,,,,,,-0.326041667,-0.67037037,1,0,0,0,16,16,4,1,-0.33,-0.67,34,001,2024-11-30_11h38.34.016,Attention_exp_legacy,2023.1.0,Win32,59.88023952,calibration_square,,,,,,,,,,,,,,,,,,,,,,,,,,,,,,,,,,,,,,,,,,,,
,,,,,,,0.672916667,0.662962963,1,0,0,0,17,17,19,1,0.67,0.67,34,001,2024-11-30_11h38.34.016,Attention_exp_legacy,2023.1.0,Win32,59.88023952,calibration_square,,,,,,,,,,,,,,,,,,,,,,,,,,,,,,,,,,,,,,,,,,,,
,,,,,,,-0.00625,-0.32037037,1,0,0,0,18,18,10,1,0,-0.33,34,001,2024-11-30_11h38.34.016,Attention_exp_legacy,2023.1.0,Win32,59.88023952,calibration_square,,,,,,,,,,,,,,,,,,,,,,,,,,,,,,,,,,,,,,,,,,,,
,,,,,,,-0.326041667,0.681481481,1,0,0,0,19,19,8,1,-0.33,0.67,34,001,2024-11-30_11h38.34.016,Attention_exp_legacy,2023.1.0,Win32,59.88023952,,,,,,,,,,,,,,,,,,,,,,,,,,,,,,,,,,,,,,,,,,,,,
,,,,,,,-0.665625,0.003703704,1,0,0,0,20,20,2,1,-0.67,0,34,001,2024-11-30_11h38.34.016,Attention_exp_legacy,2023.1.0,Win32,59.88023952,calibration_square,,,,,,,,,,,,,,,,,,,,,,,,,,,,,,,,,,,,,,,,,,,,
,,,,,,,,,,,,,,,,,,,34,001,2024-11-30_11h38.34.016,Attention_exp_legacy,2023.1.0,Win32,59.88023952,,"[1920,1080]","[640,480]",[-0.028125],[-0.4759259259259259],[1],[0],[0],[4.546999999999997],"[""StartButton""]",[0.09270833333333334],[0.35],[1],[0],[0],[4.183100000023842],"[""Option1_label""]",Option1_label,1,5.2085,"[[0.315625,0.14444444444444443],[0.315625,0.14444444444444443],[0.315625,0.14444444444444443],[0.315625,0.14444444444444443],[0.315625,0.14444444444444443],[0.315625,0.14444444444444443],[0.315625,0.14444444444444443],[0.315625,0.14444444444444443],[0.315625,0.14444444444444443],[0.315625,0.14444444444444443],[0.315625,0.14444444444444443],[0.315625,0.14444444444444443],[0.315625,0.14444444444444443],[0.315625,0.14444444444444443],[0.315625,0.14444444444444443],[0.315625,0.14444444444444443],[0.315625,0.14444444444444443],[0.315625,0.14444444444444443],[0.315625,0.14444444444444443],[0.315625,0.14444444444444443],[0.315625,0.14444444444444443],[0.315625,0.14444444444444443],[0.315625,0.14444444444444443],[0.315625,0.14444444444444443],[0.315625,0.14444444444444443],[0.315625,0.14444444444444443],[0.315625,0.14444444444444443],[0.315625,0.14444444444444443],[0.315625,0.14444444444444443],[0.315625,0.14444444444444443],[0.315625,0.14444444444444443],[0.315625,0.14444444444444443],[0.315625,0.14444444444444443],[0.315625,0.14444444444444443],[0.315625,0.14444444444444443],[0.315625,0.14444444444444443],[0.315625,0.14444444444444443],[0.315625,0.14444444444444443],[0.315625,0.14444444444444443],[0.315625,0.14444444444444443],[0.315625,0.14444444444444443],[0.315625,0.14444444444444443],[0.315625,0.14444444444444443],[0.315625,0.14444444444444443],[0.315625,0.14444444444444443],[0.315625,0.14444444444444443],[0.315625,0.14444444444444443],[0.315625,0.14444444444444443],[0.315625,0.14444444444444443],[0.315625,0.14444444444444443],[0.315625,0.14444444444444443],[0.315625,0.14444444444444443],[0.315625,0.14444444444444443],[0.315625,0.14444444444444443],[0.315625,0.14444444444444443],[0.315625,0.14444444444444443],[0.315625,0.14444444444444443],[0.315625,0.14444444444444443],[0.315625,0.14444444444444443],[0.315625,0.14444444444444443],[0.315625,0.14444444444444443],[0.315625,0.14444444444444443],[0.315625,0.14444444444444443],[0.315625,0.14444444444444443],[0.315625,0.14444444444444443],[0.315625,0.14444444444444443],[0.315625,0.14444444444444443],[0.315625,0.14444444444444443],[0.315625,0.14444444444444443],[0.315625,0.14444444444444443],[0.315625,0.14444444444444443],[0.315625,0.14444444444444443],[0.315625,0.14444444444444443],[0.315625,0.14444444444444443],[0.315625,0.14444444444444443],[0.315625,0.14444444444444443],[0.315625,0.14444444444444443],[0.315625,0.14444444444444443],[0.315625,0.14444444444444443],[0.315625,0.14444444444444443],[0.315625,0.14444444444444443],[0.315625,0.14444444444444443],[0.315625,0.14444444444444443],[0.315625,0.14444444444444443],[0.315625,0.14444444444444443],[0.315625,0.14444444444444443],[0.315625,0.14444444444444443],[0.315625,0.14444444444444443],[0.315625,0.14444444444444443],[0.315625,0.14444444444444443],[0.315625,0.14444444444444443],[0.315625,0.14444444444444443],[0.315625,0.14444444444444443],[0.315625,0.14444444444444443],[0.315625,0.14444444444444443],[0.315625,0.14444444444444443],[0.315625,0.14444444444444443],[0.315625,0.14444444444444443],[0.315625,0.14444444444444443],[0.315625,0.14444444444444443],[0.315625,0.14444444444444443],[0.315625,0.14444444444444443],[0.315625,0.14444444444444443],[0.315625,0.14444444444444443],[0.315625,0.14444444444444443],[0.315625,0.14444444444444443],[0.315625,0.14444444444444443],[0.315625,0.14444444444444443],[0.315625,0.14444444444444443],[0.315625,0.14444444444444443],[0.315625,0.14444444444444443],[0.315625,0.14444444444444443],[0.315625,0.14444444444444443],[0.315625,0.14444444444444443],[0.315625,0.14444444444444443],[0.315625,0.14444444444444443],[0.315625,0.14444444444444443],[0.315625,0.14444444444444443],[0.315625,0.14444444444444443],[0.315625,0.14444444444444443],[0.315625,0.14444444444444443],[0.315625,0.14444444444444443],[0.315625,0.14444444444444443],[0.315625,0.14444444444444443],[0.315625,0.14444444444444443],[0.315625,0.14444444444444443],[0.315625,0.14444444444444443],[0.315625,0.14444444444444443],[0.315625,0.14444444444444443],[0.315625,0.14444444444444443],[0.315625,0.14444444444444443],[0.315625,0.14444444444444443],[0.315625,0.14444444444444443],[0.315625,0.14444444444444443],[0.315625,0.14444444444444443],[0.315625,0.14444444444444443],[0.315625,0.14444444444444443],[0.315625,0.14444444444444443],[0.315625,0.14444444444444443],[0.315625,0.14444444444444443],[0.315625,0.14444444444444443],[0.315625,0.14444444444444443],[0.315625,0.14444444444444443],[0.315625,0.14444444444444443],[0.315625,0.14444444444444443],[0.315625,0.14444444444444443],[0.315625,0.14444444444444443],[0.315625,0.14444444444444443],[0.315625,0.14444444444444443],[0.315625,0.14444444444444443],[0.315625,0.14444444444444443],[0.315625,0.14444444444444443],[0.315625,0.14444444444444443],[0.315625,0.14444444444444443],[0.315625,0.14444444444444443],[0.315625,0.14444444444444443],[0.315625,0.14444444444444443],[0.315625,0.14444444444444443],[0.315625,0.14444444444444443],[0.315625,0.14444444444444443],[0.315625,0.14444444444444443],[0.315625,0.14444444444444443],[0.315625,0.14444444444444443],[0.315625,0.14444444444444443],[0.315625,0.14444444444444443],[0.315625,0.14444444444444443],[0.315625,0.14444444444444443],[0.315625,0.14444444444444443],[0.315625,0.14444444444444443],[0.315625,0.14444444444444443],[0.315625,0.14444444444444443],[0.315625,0.14444444444444443],[0.315625,0.14444444444444443],[0.315625,0.14444444444444443],[0.315625,0.14444444444444443],[0.315625,0.14444444444444443],[0.315625,0.14444444444444443],[0.315625,0.14444444444444443],[0.315625,0.14444444444444443],[0.315625,0.14444444444444443],[0.315625,0.14444444444444443],[0.315625,0.14444444444444443],[0.315625,0.14444444444444443],[0.315625,0.14444444444444443],[0.315625,0.14444444444444443],[0.315625,0.14444444444444443],[0.315625,0.14444444444444443],[0.315625,0.14444444444444443],[0.315625,0.14444444444444443],[0.315625,0.14444444444444443],[0.315625,0.14444444444444443],[0.315625,0.14444444444444443],[0.315625,0.14444444444444443],[0.315625,0.14444444444444443],[0.315625,0.14444444444444443],[0.315625,0.14444444444444443],[0.315625,0.14444444444444443],[0.315625,0.14444444444444443],[0.315625,0.14444444444444443],[0.315625,0.14444444444444443],[0.315625,0.14444444444444443],[0.315625,0.14444444444444443],[0.315625,0.14444444444444443],[0.315625,0.14444444444444443],[0.315625,0.14444444444444443],[0.315625,0.14444444444444443],[0.315625,0.14444444444444443],[0.315625,0.14444444444444443],[0.315625,0.14444444444444443],[0.315625,0.14444444444444443],[0.315625,0.14444444444444443],[0.315625,0.14444444444444443],[0.315625,0.14444444444444443],[0.315625,0.14444444444444443],[0.315625,0.14444444444444443],[0.315625,0.14444444444444443],[0.315625,0.14444444444444443],[0.315625,0.14444444444444443],[0.315625,0.14444444444444443],[0.315625,0.14444444444444443],[0.315625,0.14444444444444443],[0.315625,0.14444444444444443],[0.315625,0.14444444444444443],[0.315625,0.14444444444444443],[0.315625,0.14444444444444443],[0.315625,0.14444444444444443],[0.31354166666666666,0.14444444444444443],[0.30520833333333336,0.15],[0.2864583333333333,0.1685185185185185],[0.26979166666666665,0.18518518518518517],[0.24270833333333333,0.20925925925925926],[0.23333333333333334,0.21666666666666667],[0.21458333333333332,0.23333333333333334],[0.196875,0.25],[0.18958333333333333,0.25925925925925924],[0.18333333333333332,0.26666666666666666],[0.178125,0.2740740740740741],[0.16979166666666667,0.2851851851851852],[0.16145833333333334,0.29259259259259257],[0.15104166666666666,0.3],[0.1375,0.30925925925925923],[0.12083333333333333,0.32407407407407407],[0.10833333333333334,0.3388888888888889],[0.096875,0.35],[0.09270833333333334,0.35],[0.09270833333333334,0.35],[0.09270833333333334,0.35],[0.09270833333333334,0.35],[0.09270833333333334,0.35],[0.09270833333333334,0.35],[0.09270833333333334,0.35],[0.09270833333333334,0.35],[0.09270833333333334,0.35],[0.09270833333333334,0.35],[0.09270833333333334,0.35],[0.09270833333333334,0.35],[0.09270833333333334,0.35],[0.09270833333333334,0.35],[0.09270833333333334,0.35],[0.09270833333333334,0.35],[0.09270833333333334,0.35],[0.09270833333333334,0.35],[0.09270833333333334,0.35],[0.09270833333333334,0.35],[0.09270833333333334,0.35],[0.09270833333333334,0.35],[0.09270833333333334,0.35],[0.09270833333333334,0.35],[0.09270833333333334,0.35],[0.09270833333333334,0.35],[0.09270833333333334,0.35],[0.09270833333333334,0.35],[0.09270833333333334,0.35],[0.09270833333333334,0.35],[0.09270833333333334,0.35],[0.09270833333333334,0.35],[0.09270833333333334,0.35],[0.09270833333333334,0.35],[0.09270833333333334,0.35],[0.09270833333333334,0.35],[0.09270833333333334,0.35],[0.09270833333333334,0.35],[0.09270833333333334,0.35],[0.09270833333333334,0.35],[0.09270833333333334,0.35],[0.09270833333333334,0.35],[0.09270833333333334,0.35],[0.09270833333333334,0.35],[0.09270833333333334,0.35],[0.09270833333333334,0.35],[0.09270833333333334,0.35],[0.09270833333333334,0.35],[0.09270833333333334,0.35],[0.09270833333333334,0.35],[0.09270833333333334,0.35],[0.09270833333333334,0.35],[0.09270833333333334,0.35],[0.09270833333333334,0.35],[0.09270833333333334,0.35],[0.09270833333333334,0.35],[0.09270833333333334,0.35],[0.09270833333333334,0.35],[0.09270833333333334,0.35],[0.09270833333333334,0.35],[0.09270833333333334,0.35],[0.09270833333333334,0.35],[0.09270833333333334,0.35],[0.09270833333333334,0.35],[0.09270833333333334,0.35],[0.09270833333333334,0.35],[0.09270833333333334,0.35],[0.09270833333333334,0.35],[0.09166666666666666,0.34814814814814815]]","[[0.3194791666666667,-0.11981481481481479],[0.3194791666666667,-0.11981481481481479],[0.3277083333333332,-0.13333333333333333],[0.3277083333333332,-0.13333333333333333],[0.35489583333333335,-0.14666666666666664],[0.396875,-0.16055555555555553],[0.4469791666666666,-0.1935185185185185],[0.4469791666666666,-0.1935185185185185],[0.4495833333333332,-0.19944444444444442],[0.4701041666666666,-0.20777777777777776],[0.5164583333333332,-0.21777777777777782],[0.5164583333333332,-0.21777777777777782],[0.5662499999999999,-0.2735185185185185],[0.61875,-0.3425925925925926],[0.7186458333333334,-0.41629629629629633],[0.7186458333333334,-0.41629629629629633],[0.7662499999999999,-0.44055555555555553],[0.8023958333333333,-0.4631481481481482],[0.8155208333333335,-0.48814814814814816],[0.8404166666666666,-0.512962962962963],[0.8721875,-0.5407407407407407],[0.8604166666666667,-0.5501851851851852],[0.8486458333333334,-0.5596296296296296],[0.8486458333333334,-0.5596296296296296],[0.8523958333333332,-0.5637037037037037],[0.8372916666666667,-0.529074074074074],[0.8066666666666668,-0.4957407407407407],[0.8066666666666668,-0.4957407407407407],[0.7814583333333334,-0.5064814814814815],[0.7609375,-0.4905555555555555],[0.7506249999999999,-0.47185185185185186],[0.7064583333333334,-0.4596296296296296],[0.6664583333333333,-0.44425925925925924],[0.6203125,-0.4192592592592592],[0.5741666666666667,-0.3942592592592592],[0.5741666666666667,-0.3942592592592592],[0.4969791666666666,-0.34018518518518515],[0.4673958333333334,-0.3624074074074074],[0.4673958333333334,-0.3624074074074074],[0.38864583333333325,-0.32],[0.3428124999999999,-0.27259259259259255],[0.2794791666666666,-0.2553703703703703],[0.20947916666666658,-0.23055555555555557],[0.20947916666666658,-0.23055555555555557],[0.16135416666666677,-0.20018518518518522],[0.10593750000000005,-0.1648148148148148],[0.07531249999999995,-0.17092592592592595],[0.03333333333333333,-0.1514814814814815],[0.03333333333333333,-0.1514814814814815],[0.02781250000000005,-0.17740740740740743],[0.0009374999999999763,-0.14629629629629629],[0.0012500000000000473,-0.18462962962962962],[-0.002708333333333357,-0.21185185185185182],[-0.010104166666666714,-0.23703703703703705],[-0.01083333333333331,-0.2698148148148148],[-0.001145833333333357,-0.3109259259259259],[-0.001145833333333357,-0.3109259259259259],[0.028958333333333287,-0.3309259259259259],[0.05947916666666669,-0.3225925925925926],[0.10614583333333343,-0.3296296296296296],[0.14635416666666667,-0.32166666666666666],[0.17718749999999991,-0.32166666666666666],[0.21291666666666675,-0.3012962962962963],[0.24864583333333337,-0.2809259259259259],[0.24864583333333337,-0.2809259259259259],[0.29375,-0.2566666666666667],[0.3408333333333334,-0.25870370370370366],[0.37770833333333326,-0.25166666666666665],[0.37770833333333326,-0.25166666666666665],[0.3997916666666666,-0.2711111111111111],[0.40770833333333345,-0.2833333333333333],[0.4196875000000001,-0.2837037037037037],[0.43166666666666675,-0.28407407407407403],[0.44500000000000006,-0.27814814814814814],[0.44375,-0.26777777777777784],[0.4488541666666668,-0.25037037037037035],[0.4488541666666668,-0.25037037037037035],[0.45333333333333337,-0.23722222222222225],[0.4413541666666667,-0.20055555555555557],[0.40677083333333336,-0.18129629629629626],[0.3696875000000001,-0.1648148148148148],[0.3349999999999999,-0.1522222222222222],[0.29145833333333326,-0.16166666666666668],[0.29145833333333326,-0.16166666666666668],[0.2569791666666667,-0.16277777777777774],[0.22218749999999995,-0.14166666666666666],[0.19260416666666677,-0.11851851851851852],[0.1508333333333333,-0.12981481481481486],[0.10906250000000005,-0.1411111111111111],[0.10906250000000005,-0.1411111111111111],[0.08552083333333324,-0.15129629629629626],[0.07041666666666657,-0.13907407407407413],[0.05687500000000002,-0.1359259259259259],[0.05687500000000002,-0.1359259259259259],[0.05385416666666672,-0.11777777777777781],[0.04593750000000003,-0.09870370370370372],[0.027604166666666666,-0.08407407407407404],[-0.002499999999999976,-0.10388888888888893],[-0.03260416666666662,-0.12370370370370372],[-0.036562500000000026,-0.11685185185185189],[-0.04500000000000005,-0.11351851851851855],[-0.051145833333333356,-0.11925925925925922],[-0.043124999999999976,-0.12999999999999998],[-0.03208333333333328,-0.13203703703703706],[-0.021875,-0.15037037037037035],[-0.021875,-0.15037037037037035],[-0.011458333333333333,-0.19277777777777783],[0.00927083333333331,-0.20277777777777778],[0.03999999999999997,-0.205],[0.10677083333333333,-0.2035185185185185],[0.10677083333333333,-0.2035185185185185],[0.16208333333333325,-0.19685185185185186],[0.22583333333333327,-0.18481481481481485],[0.22583333333333327,-0.18481481481481485],[0.2820833333333333,-0.17259259259259258],[0.33125,-0.15796296296296297],[0.3758333333333333,-0.14296296296296293],[0.3758333333333333,-0.14296296296296293],[0.4150000000000001,-0.11148148148148146],[0.4630208333333333,-0.08129629629629626],[0.5020833333333333,-0.08740740740740739],[0.5020833333333333,-0.08740740740740739],[0.5395833333333333,-0.08722222222222227],[0.5458333333333333,-0.05722222222222218],[0.5420833333333335,-0.07833333333333335],[0.5420833333333335,-0.07833333333333335],[0.5401041666666667,-0.09462962962962967],[0.5279166666666666,-0.06611111111111109],[0.5279166666666666,-0.06611111111111109],[0.5239583333333333,-0.05129629629629638],[0.5196875000000001,-0.06796296296296295],[0.5212500000000001,-0.1],[0.51875,-0.1081481481481481],[0.5201041666666666,-0.11888888888888886],[0.5352083333333333,-0.13703703703703704],[0.5439583333333334,-0.1905555555555555],[0.5609375,-0.20092592592592592],[0.5721875,-0.21796296296296294],[0.5721875,-0.21796296296296294],[0.58125,-0.26592592592592595],[0.5891666666666666,-0.3025925925925925],[0.5891666666666666,-0.3025925925925925],[0.5801041666666668,-0.3116666666666667],[0.5352083333333333,-0.3224074074074075],[0.4809375000000001,-0.32333333333333336],[0.42687499999999995,-0.32703703703703707],[0.36062500000000003,-0.3296296296296296],[0.3068749999999999,-0.34296296296296297],[0.24604166666666671,-0.3527777777777778],[0.24604166666666671,-0.3527777777777778],[0.17666666666666658,-0.36148148148148146],[0.12197916666666657,-0.3603703703703704],[0.06729166666666657,-0.3592592592592593],[0.03270833333333331,-0.3581481481481481],[0.03354166666666671,-0.35648148148148145],[0.03354166666666671,-0.35648148148148145],[0.04614583333333329,-0.3557407407407408],[0.06906249999999996,-0.37518518518518523],[0.06906249999999996,-0.37518518518518523],[0.08166666666666676,-0.3785185185185185],[0.08770833333333337,-0.36370370370370364],[0.08760416666666657,-0.36796296296296294],[0.08760416666666657,-0.36796296296296294],[0.1068749999999999,-0.35759259259259263],[0.10927083333333343,-0.35777777777777775],[0.1273958333333333,-0.36796296296296294],[0.14270833333333333,-0.3742592592592593],[0.14270833333333333,-0.3742592592592593],[0.13958333333333334,-0.387037037037037],[0.13958333333333334,-0.387037037037037],[0.14322916666666666,-0.4059259259259259],[0.14322916666666666,-0.4059259259259259],[0.13354166666666673,-0.4003703703703704],[0.13354166666666673,-0.4003703703703704],[0.1478125000000001,-0.4101851851851852],[0.16020833333333329,-0.395],[0.19197916666666662,-0.38796296296296295],[0.22083333333333333,-0.3925925925925926],[0.22083333333333333,-0.3925925925925926],[0.26572916666666657,-0.3998148148148148],[0.29635416666666664,-0.3957407407407407],[0.31708333333333344,-0.3801851851851852],[0.35625,-0.3581481481481481],[0.3875,-0.3512962962962963],[0.41770833333333335,-0.34333333333333327],[0.4445833333333333,-0.3351851851851852],[0.46895833333333337,-0.35759259259259263],[0.46895833333333337,-0.35759259259259263],[0.4710416666666667,-0.33351851851851855],[0.47208333333333335,-0.29685185185185187],[0.4731250000000001,-0.2601851851851852],[0.4743750000000001,-0.23277777777777775],[0.48552083333333323,-0.2168518518518519],[0.49375,-0.18759259259259262],[0.5029166666666666,-0.14351851851851852],[0.5195833333333333,-0.14537037037037037],[0.5195833333333333,-0.14537037037037037],[0.521875,-0.12759259259259256],[0.521875,-0.12759259259259256],[0.4964583333333332,-0.1096296296296296],[0.45979166666666677,-0.09962962962962965],[0.4178124999999999,-0.1272222222222222],[0.3811458333333334,-0.13444444444444448],[0.35697916666666674,-0.17018518518518513],[0.3162499999999999,-0.15685185185185183],[0.2724999999999999,-0.18111111111111114],[0.22395833333333334,-0.21777777777777782],[0.22395833333333334,-0.21777777777777782],[0.16062500000000005,-0.18481481481481485],[0.10708333333333328,-0.19296296296296295],[0.07583333333333328,-0.19796296296296292],[0.06489583333333329,-0.21425925925925923],[0.05239583333333329,-0.2096296296296296],[0.05239583333333329,-0.2096296296296296],[0.04052083333333331,-0.20722222222222217],[0.04052083333333331,-0.20722222222222217],[0.013750000000000047,-0.17185185185185187],[-0.010104166666666714,-0.18462962962962962],[-0.02802083333333331,-0.17314814814814813],[-0.04479166666666667,-0.13907407407407413],[-0.05427083333333336,-0.1287037037037037],[-0.05583333333333336,-0.1272222222222222],[-0.051979166666666646,-0.12907407407407406],[-0.051979166666666646,-0.12907407407407406],[-0.050520833333333334,-0.13277777777777774],[-0.04010416666666667,-0.14222222222222225],[-0.03708333333333336,-0.14740740740740746],[-0.03708333333333336,-0.14740740740740746],[0.0016666666666666904,-0.18833333333333332],[0.07989583333333337,-0.23499999999999996],[0.15479166666666658,-0.2922222222222222],[0.15479166666666658,-0.2922222222222222],[0.2115624999999999,-0.3162962962962963],[0.28229166666666666,-0.36796296296296294],[0.3026041666666667,-0.4111111111111111],[0.3333333333333333,-0.43870370370370365],[0.3536458333333333,-0.4374074074074074],[0.38270833333333343,-0.46055555555555555],[0.42239583333333336,-0.49370370370370376],[0.4352083333333333,-0.4992592592592593],[0.4352083333333333,-0.4992592592592593],[0.3849999999999999,-0.4735185185185185],[0.34885416666666674,-0.4403703703703704],[0.33312499999999995,-0.46648148148148144],[0.2805208333333333,-0.4609259259259259],[0.2708333333333333,-0.4361111111111111],[0.2507291666666667,-0.42685185185185187],[0.23989583333333328,-0.4072222222222222],[0.23989583333333328,-0.4072222222222222],[0.21135416666666676,-0.3574074074074074],[0.18177083333333333,-0.337037037037037],[0.16458333333333333,-0.3140740740740741],[0.16458333333333333,-0.3140740740740741],[0.1788541666666667,-0.32388888888888884],[0.17895833333333327,-0.3314814814814815],[0.15958333333333338,-0.32333333333333336],[0.1638541666666666,-0.31555555555555553],[0.16208333333333325,-0.30888888888888894],[0.15979166666666675,-0.2946296296296297],[0.18302083333333338,-0.3531481481481481],[0.20625,-0.4116666666666667],[0.19635416666666666,-0.42481481481481476],[0.16593749999999996,-0.42888888888888893],[0.15072916666666672,-0.4177777777777778],[0.13354166666666673,-0.40240740740740744],[0.14385416666666656,-0.38851851851851854],[0.15343749999999995,-0.37833333333333335],[0.15812499999999996,-0.38203703703703706],[0.15812499999999996,-0.38203703703703706],[0.15958333333333338,-0.3977777777777778],[0.14270833333333333,-0.37759259259259254],[0.1326041666666666,-0.34148148148148144],[0.1474999999999999,-0.33370370370370367],[0.15437500000000004,-0.30703703703703705],[0.15437500000000004,-0.30703703703703705],[0.15177083333333338,-0.2892592592592592],[0.17927083333333324,-0.28425925925925927],[0.18885416666666663,-0.26888888888888884],[0.1984375,-0.2535185185185185],[0.2040625000000001,-0.225],[0.21343750000000009,-0.192037037037037],[0.1984375,-0.16129629629629633],[0.20270833333333324,-0.1557407407407408],[0.21395833333333342,-0.13703703703703704],[0.23322916666666677,-0.13722222222222227],[0.25187499999999996,-0.15129629629629626],[0.24583333333333332,-0.1559259259259259],[0.2513541666666666,-0.1905555555555555],[0.2568749999999999,-0.22518518518518524],[0.26281249999999995,-0.25203703703703706],[0.26114583333333335,-0.27740740740740744],[0.2930208333333333,-0.3007407407407407],[0.3011458333333332,-0.30925925925925923],[0.3271874999999999,-0.3362962962962963],[0.3532291666666666,-0.3633333333333333],[0.3733333333333334,-0.3831481481481481],[0.4039583333333333,-0.3918518518518519],[0.4314583333333334,-0.38351851851851854],[0.45895833333333325,-0.37518518518518523],[0.4900000000000001,-0.3731481481481482],[0.5239583333333333,-0.35851851851851857],[0.5239583333333333,-0.35851851851851857],[0.5558333333333333,-0.3542592592592593],[0.5862499999999999,-0.3685185185185185],[0.5921875,-0.3774074074074074],[0.5883333333333333,-0.3327777777777778],[0.5883333333333333,-0.3327777777777778],[0.5804166666666667,-0.3061111111111111],[0.5619791666666667,-0.2905555555555555],[0.5619791666666667,-0.2905555555555555],[0.5217708333333334,-0.27759259259259256],[0.4822916666666667,-0.2733333333333334],[0.4476041666666667,-0.267037037037037]]","[[0.3194791666666667,-0.11981481481481479,0.00019999998806952135],[0.3194791666666667,-0.11981481481481479,0.03939999997615473],[0.3277083333333332,-0.13333333333333333,0.05069999998806907],[0.3277083333333332,-0.13333333333333333,0.05849999999999511],[0.35489583333333335,-0.14666666666666664,0.07379999995231401],[0.396875,-0.16055555555555553,0.09309999996423812],[0.4469791666666666,-0.1935185185185185,0.11469999998807623],[0.4469791666666666,-0.1935185185185185,0.12819999998806964],[0.4495833333333332,-0.19944444444444442,0.14039999997615382],[0.4701041666666666,-0.20777777777777776,0.16049999999999898],[0.5164583333333332,-0.21777777777777782,0.17869999998806918],[0.5164583333333332,-0.21777777777777782,0.19029999995231606],[0.5662499999999999,-0.2735185185185185,0.20709999996422823],[0.61875,-0.3425925925925926,0.22499999999999432],[0.7186458333333334,-0.41629629629629633,0.24319999998807873],[0.7186458333333334,-0.41629629629629633,0.2570999999642254],[0.7662499999999999,-0.44055555555555553,0.27379999995231685],[0.8023958333333333,-0.4631481481481482,0.290599999964229],[0.8155208333333335,-0.48814814814814816,0.30779999995230867],[0.8404166666666666,-0.512962962962963,0.3243999999761513],[0.8721875,-0.5407407407407407,0.34259999996423574],[0.8604166666666667,-0.5501851851851852,0.36019999998806895],[0.8486458333333334,-0.5596296296296296,0.38049999999999784],[0.8486458333333334,-0.5596296296296296,0.3903999999761538],[0.8523958333333332,-0.5637037037037037,0.4070999999642311],[0.8372916666666667,-0.529074074074074,0.4263999999761552],[0.8066666666666668,-0.4957407407407407,0.4427999999523138],[0.8066666666666668,-0.4957407407407407,0.45699999999999363],[0.7814583333333334,-0.5064814814814815,0.4736999999880709],[0.7609375,-0.4905555555555555,0.4911999999880692],[0.7506249999999999,-0.47185185185185186,0.5083999999761488],[0.7064583333333334,-0.4596296296296296,0.5262999999523146],[0.6664583333333333,-0.44425925925925924,0.5436999999880783],[0.6203125,-0.4192592592592592,0.5613999999761461],[0.5741666666666667,-0.3942592592592592,0.5798999999761492],[0.5741666666666667,-0.3942592592592592,0.5902999999523075],[0.4969791666666666,-0.34018518518518515,0.6070999999642339],[0.4673958333333334,-0.3624074074074074,0.6289999999999907],[0.4673958333333334,-0.3624074074074074,0.6402999999523047],[0.38864583333333325,-0.32,0.6570999999642311],[0.3428124999999999,-0.27259259259259255,0.674099999964227],[0.2794791666666666,-0.2553703703703703,0.6935999999642348],[0.20947916666666658,-0.23055555555555557,0.7105999999642307],[0.20947916666666658,-0.23055555555555557,0.7236999999880709],[0.16135416666666677,-0.20018518518518522,0.7403999999761481],[0.10593750000000005,-0.1648148148148148,0.7574999999999932],[0.07531249999999995,-0.17092592592592595,0.7751999999880752],[0.03333333333333333,-0.1514814814814815,0.7955999999642245],[0.03333333333333333,-0.1514814814814815,0.806999999999988],[0.02781250000000005,-0.17740740740740743,0.8236999999880794],[0.0009374999999999763,-0.14629629629629629,0.8406999999880753],[0.0012500000000000473,-0.18462962962962962,0.8570999999642339],[-0.002708333333333357,-0.21185185185185182,0.8787999999523066],[-0.010104166666666714,-0.23703703703703705,0.8948999999761469],[-0.01083333333333331,-0.2698148148148148,0.9111999999880709],[-0.001145833333333357,-0.3109259259259259,0.9305999999642296],[-0.001145833333333357,-0.3109259259259259,0.9402999999523161],[0.028958333333333287,-0.3309259259259259,0.9570999999642282],[0.05947916666666669,-0.3225925925925926,0.973599999964236],[0.10614583333333343,-0.3296296296296296,0.9941999999880693],[0.14635416666666667,-0.32166666666666666,1.010699999988077],[0.17718749999999991,-0.32166666666666666,1.02829999995231],[0.21291666666666675,-0.3012962962962963,1.0447999999523034],[0.24864583333333337,-0.2809259259259259,1.0615999999642298],[0.24864583333333337,-0.2809259259259259,1.0736999999880794],[0.29375,-0.2566666666666667,1.0903999999761567],[0.3408333333333334,-0.25870370370370366,1.1104999999999876],[0.37770833333333326,-0.25166666666666665,1.1293999999761581],[0.37770833333333326,-0.25166666666666665,1.1403999999761538],[0.3997916666666666,-0.2711111111111111,1.1569999999999965],[0.40770833333333345,-0.2833333333333333,1.1743999999761456],[0.4196875000000001,-0.2837037037037037,1.1937999999523043],[0.43166666666666675,-0.28407407407407403,1.211199999988068],[0.44500000000000006,-0.27814814814814814,1.2263999999761523],[0.44375,-0.26777777777777784,1.2426999999880763],[0.4488541666666668,-0.25037037037037035,1.257699999988077],[0.4488541666666668,-0.25037037037037035,1.273699999988068],[0.45333333333333337,-0.23722222222222225,1.2902999999523104],[0.4413541666666667,-0.20055555555555557,1.3096999999880694],[0.40677083333333336,-0.18129629629629626,1.3266999999880795],[0.3696875000000001,-0.1648148148148148,1.345499999999987],[0.3349999999999999,-0.1522222222222222,1.3612999999523083],[0.29145833333333326,-0.16166666666666668,1.379499999999993],[0.29145833333333326,-0.16166666666666668,1.3903999999761538],[0.2569791666666667,-0.16277777777777774,1.407099999964231],[0.22218749999999995,-0.14166666666666666,1.4236999999880737],[0.19260416666666677,-0.11851851851851852,1.440399999976151],[0.1508333333333333,-0.12981481481481486,1.4569999999999936],[0.10906250000000005,-0.1411111111111111,1.4805999999642268],[0.10906250000000005,-0.1411111111111111,1.4903999999761481],[0.08552083333333324,-0.15129629629629626,1.5070999999642254],[0.07041666666666657,-0.13907407407407413,1.5237999999523169],[0.05687500000000002,-0.1359259259259259,1.5433999999761454],[0.05687500000000002,-0.1359259259259259,1.556999999999988],[0.05385416666666672,-0.11777777777777781,1.5736999999880794],[0.04593750000000003,-0.09870370370370372,1.5936999999880754],[0.027604166666666666,-0.08407407407407404,1.6114999999999924],[-0.002499999999999976,-0.10388888888888893,1.6276999999880672],[-0.03260416666666662,-0.12370370370370372,1.6434999999999889],[-0.036562500000000026,-0.11685185185185189,1.6594999999999942],[-0.04500000000000005,-0.11351851851851855,1.6776999999880786],[-0.051145833333333356,-0.11925925925925922,1.6946999999880745],[-0.043124999999999976,-0.12999999999999998,1.712099999964238],[-0.03208333333333328,-0.13203703703703706,1.728099999964229],[-0.021875,-0.15037037037037035,1.7459999999999951],[-0.021875,-0.15037037037037035,1.7568999999761559],[-0.011458333333333333,-0.19277777777777783,1.773699999988068],[0.00927083333333331,-0.20277777777777778,1.7917999999523033],[0.03999999999999997,-0.205,1.8094999999999999],[0.10677083333333333,-0.2035185185185185,1.8283999999761562],[0.10677083333333333,-0.2035185185185185,1.8402999999523075],[0.16208333333333325,-0.19685185185185186,1.8569999999999993],[0.22583333333333327,-0.18481481481481485,1.8740999999642298],[0.22583333333333327,-0.18481481481481485,1.8902999999523047],[0.2820833333333333,-0.17259259259259258,1.907099999964231],[0.33125,-0.15796296296296297,1.9241999999880761],[0.3758333333333333,-0.14296296296296293,1.9423999999761463],[0.3758333333333333,-0.14296296296296293,1.9569999999999936],[0.4150000000000001,-0.11148148148148146,1.9736999999880709],[0.4630208333333333,-0.08129629629629626,1.993699999988067],[0.5020833333333333,-0.08740740740740739,2.010699999988077],[0.5020833333333333,-0.08740740740740739,2.023699999988068],[0.5395833333333333,-0.08722222222222227,2.0403999999761453],[0.5458333333333333,-0.05722222222222218,2.057699999988074],[0.5420833333333335,-0.07833333333333335,2.0743999999761513],[0.5420833333333335,-0.07833333333333335,2.0902999999523075],[0.5401041666666667,-0.09462962962962967,2.1069999999999993],[0.5279166666666666,-0.06611111111111109,2.127899999976151],[0.5279166666666666,-0.06611111111111109,2.140399999976154],[0.5239583333333333,-0.05129629629629638,2.1569999999999965],[0.5196875000000001,-0.06796296296296295,2.1736999999880737],[0.5212500000000001,-0.1,2.1931999999880674],[0.51875,-0.1081481481481481,2.2100999999642283],[0.5201041666666666,-0.11888888888888886,2.227399999976157],[0.5352083333333333,-0.13703703703703704,2.2448999999761554],[0.5439583333333334,-0.1905555555555555,2.2601999999880746],[0.5609375,-0.20092592592592592,2.277499999999989],[0.5721875,-0.21796296296296294,2.2962999999523106],[0.5721875,-0.21796296296296294,2.306999999999988],[0.58125,-0.26592592592592595,2.3236999999880794],[0.5891666666666666,-0.3025925925925925,2.344699999988066],[0.5891666666666666,-0.3025925925925925,2.357199999988069],[0.5801041666666668,-0.3116666666666667,2.3736999999880766],[0.5352083333333333,-0.3224074074074075,2.3924999999999983],[0.4809375000000001,-0.32333333333333336,2.409499999999994],[0.42687499999999995,-0.32703703703703707,2.427499999999995],[0.36062500000000003,-0.3296296296296296,2.444399999976156],[0.3068749999999999,-0.34296296296296297,2.460399999976147],[0.24604166666666671,-0.3527777777777778,2.4800999999642244],[0.24604166666666671,-0.3527777777777778,2.490299999952313],[0.17666666666666658,-0.36148148148148146,2.5070999999642254],[0.12197916666666657,-0.3603703703703704,2.524399999976154],[0.06729166666666657,-0.3592592592592593,2.5416999999880687],[0.03270833333333331,-0.3581481481481481,2.559199999988067],[0.03354166666666671,-0.35648148148148145,2.5780999999642376],[0.03354166666666671,-0.35648148148148145,2.5902999999523075],[0.04614583333333329,-0.3557407407407408,2.607099999964234],[0.06906249999999996,-0.37518518518518523,2.626099999964225],[0.06906249999999996,-0.37518518518518523,2.6402999999523047],[0.08166666666666676,-0.3785185185185185,2.6569999999999965],[0.08770833333333337,-0.36370370370370364,2.6735999999642246],[0.08760416666666657,-0.36796296296296294,2.691899999976158],[0.08760416666666657,-0.36796296296296294,2.7070999999642282],[0.1068749999999999,-0.35759259259259263,2.723699999988071],[0.10927083333333343,-0.35777777777777775,2.7408999999761505],[0.1273958333333333,-0.36796296296296294,2.757299999952309],[0.14270833333333333,-0.3742592592592593,2.7789999999999964],[0.14270833333333333,-0.3742592592592593,2.790599999964229],[0.13958333333333334,-0.387037037037037,2.816199999988072],[0.13958333333333334,-0.387037037037037,2.825499999999991],[0.14322916666666666,-0.4059259259259259,2.847599999964231],[0.14322916666666666,-0.4059259259259259,2.8569999999999993],[0.13354166666666673,-0.4003703703703704,2.8736999999880766],[0.13354166666666673,-0.4003703703703704,2.8902999999523047],[0.1478125000000001,-0.4101851851851852,2.9069999999999965],[0.16020833333333329,-0.395,2.9235999999642246],[0.19197916666666662,-0.38796296296296295,2.940299999952316],[0.22083333333333333,-0.3925925925925926,2.9569999999999936],[0.22083333333333333,-0.3925925925925926,2.973699999988071],[0.26572916666666657,-0.3998148148148148,2.990299999952313],[0.29635416666666664,-0.3957407407407407,3.006999999999991],[0.31708333333333344,-0.3801851851851852,3.023699999988068],[0.35625,-0.3581481481481481,3.0436999999880783],[0.3875,-0.3512962962962963,3.057599999964225],[0.41770833333333335,-0.34333333333333327,3.0735999999642303],[0.4445833333333333,-0.3351851851851852,3.0902999999523075],[0.46895833333333337,-0.35759259259259263,3.1075999999642363],[0.46895833333333337,-0.35759259259259263,3.1236999999880766],[0.4710416666666667,-0.33351851851851855,3.1402999999523047],[0.47208333333333335,-0.29685185185185187,3.1569999999999965],[0.4731250000000001,-0.2601851851851852,3.1783999999761505],[0.4743750000000001,-0.23277777777777775,3.19259999996423],[0.48552083333333323,-0.2168518518518519,3.2069999999999936],[0.49375,-0.18759259259259262,3.223599999964236],[0.5029166666666666,-0.14351851851851852,3.240299999952313],[0.5195833333333333,-0.14537037037037037,3.259799999952307],[0.5195833333333333,-0.14537037037037037,3.273599999964233],[0.521875,-0.12759259259259256,3.2902999999523104],[0.521875,-0.12759259259259256,3.306999999999988],[0.4964583333333332,-0.1096296296296296,3.3236999999880794],[0.45979166666666677,-0.09962962962962965,3.3402999999523075],[0.4178124999999999,-0.1272222222222222,3.3569999999999993],[0.3811458333333334,-0.13444444444444448,3.3736999999880766],[0.35697916666666674,-0.17018518518518513,3.391599999964228],[0.3162499999999999,-0.15685185185185183,3.4068999999761473],[0.2724999999999999,-0.18111111111111114,3.4237999999523083],[0.22395833333333334,-0.21777777777777782,3.440299999952316],[0.22395833333333334,-0.21777777777777782,3.4568999999761587],[0.16062500000000005,-0.18481481481481485,3.473699999988071],[0.10708333333333328,-0.19296296296296295,3.4916999999880716],[0.07583333333333328,-0.19796296296296292,3.5070999999642254],[0.06489583333333329,-0.21425925925925923,3.5273999999761543],[0.05239583333333329,-0.2096296296296296,3.5417999999523033],[0.05239583333333329,-0.2096296296296296,3.556999999999988],[0.04052083333333331,-0.20722222222222217,3.5736999999880794],[0.04052083333333331,-0.20722222222222217,3.590199999988073],[0.013750000000000047,-0.17185185185185187,3.6069999999999993],[-0.010104166666666714,-0.18462962962962962,3.6235999999642274],[-0.02802083333333331,-0.17314814814814813,3.6402999999523047],[-0.04479166666666667,-0.13907407407407413,3.6599999999999966],[-0.05427083333333336,-0.1287037037037037,3.6751999999880667],[-0.05583333333333336,-0.1272222222222222,3.691999999999993],[-0.051979166666666646,-0.12907407407407406,3.7069999999999936],[-0.051979166666666646,-0.12907407407407406,3.723599999964236],[-0.050520833333333334,-0.13277777777777774,3.740399999976148],[-0.04010416666666667,-0.14222222222222225,3.756999999999991],[-0.03708333333333336,-0.14740740740740746,3.7765999999642332],[-0.03708333333333336,-0.14740740740740746,3.7907999999523128],[0.0016666666666666904,-0.18833333333333332,3.8071999999880717],[0.07989583333333337,-0.23499999999999996,3.826999999999998],[0.15479166666666658,-0.2922222222222222,3.843099999964238],[0.15479166666666658,-0.2922222222222222,3.857099999964234],[0.2115624999999999,-0.3162962962962963,3.8773999999761486],[0.28229166666666666,-0.36796296296296294,3.894099999964226],[0.3026041666666667,-0.4111111111111111,3.909599999964229],[0.3333333333333333,-0.43870370370370365,3.9276999999880786],[0.3536458333333333,-0.4374074074074074,3.942799999952314],[0.38270833333333343,-0.46055555555555555,3.957299999952312],[0.42239583333333336,-0.49370370370370376,3.9738999999761546],[0.4352083333333333,-0.4992592592592593,3.995899999976146],[0.4352083333333333,-0.4992592592592593,4.007299999952309],[0.3849999999999999,-0.4735185185185185,4.023899999976152],[0.34885416666666674,-0.4403703703703704,4.040599999964229],[0.33312499999999995,-0.46648148148148144,4.060099999964237],[0.2805208333333333,-0.4609259259259259,4.077399999976151],[0.2708333333333333,-0.4361111111111111,4.093699999988075],[0.2507291666666667,-0.42685185185185187,4.110599999964236],[0.23989583333333328,-0.4072222222222222,4.126099999964225],[0.23989583333333328,-0.4072222222222222,4.140299999952305],[0.21135416666666676,-0.3574074074074074,4.156899999976147],[0.18177083333333333,-0.337037037037037,4.173599999964225],[0.16458333333333333,-0.3140740740740741,4.190299999952316],[0.16458333333333333,-0.3140740740740741,4.206899999976159],[0.1788541666666667,-0.32388888888888884,4.223599999964236],[0.17895833333333327,-0.3314814814814815,4.240199999988079],[0.15958333333333338,-0.32333333333333336,4.256899999976156],[0.1638541666666666,-0.31555555555555553,4.273899999976152],[0.16208333333333325,-0.30888888888888894,4.29029999995231],[0.15979166666666675,-0.2946296296296297,4.306999999999988],[0.18302083333333338,-0.3531481481481481,4.323899999976149],[0.20625,-0.4116666666666667,4.3402999999523075],[0.19635416666666666,-0.42481481481481476,4.357099999964234],[0.16593749999999996,-0.42888888888888893,4.373599999964227],[0.15072916666666672,-0.4177777777777778,4.391599999964228],[0.13354166666666673,-0.40240740740740744,4.4069999999999965],[0.14385416666666656,-0.38851851851851854,4.423599999964225],[0.15343749999999995,-0.37833333333333335,4.440299999952316],[0.15812499999999996,-0.38203703703703706,4.458299999952317],[0.15812499999999996,-0.38203703703703706,4.473699999988071],[0.15958333333333338,-0.3977777777777778,4.490299999952313],[0.14270833333333333,-0.37759259259259254,4.506899999976156],[0.1326041666666666,-0.34148148148148144,4.523599999964233],[0.1474999999999999,-0.33370370370370367,4.544899999976153],[0.15437500000000004,-0.30703703703703705,4.558499999999995],[0.15437500000000004,-0.30703703703703705,4.57359999996423],[0.15177083333333338,-0.2892592592592592,4.5902999999523075],[0.17927083333333324,-0.28425925925925927,4.6080999999642245],[0.18885416666666663,-0.26888888888888884,4.623599999964227],[0.1984375,-0.2535185185185185,4.64019999998807],[0.2040625000000001,-0.225,4.656899999976147],[0.21343750000000009,-0.192037037037037,4.673799999952308],[0.1984375,-0.16129629629629633,4.690299999952316],[0.20270833333333324,-0.1557407407407408,4.708199999988068],[0.21395833333333342,-0.13703703703703704,4.723599999964236],[0.23322916666666677,-0.13722222222222227,4.741699999988072],[0.25187499999999996,-0.15129629629629626,4.7571999999880745],[0.24583333333333332,-0.1559259259259259,4.773599999964233],[0.2513541666666666,-0.1905555555555555,4.790199999988076],[0.2568749999999999,-0.22518518518518524,4.809399999976151],[0.26281249999999995,-0.25203703703703706,4.824999999999989],[0.26114583333333335,-0.27740740740740744,4.8402999999523075],[0.2930208333333333,-0.3007407407407407,4.85689999997615],[0.3011458333333332,-0.30925925925925923,4.873699999988077],[0.3271874999999999,-0.3362962962962963,4.892599999964233],[0.3532291666666666,-0.3633333333333333,4.906899999976147],[0.3733333333333334,-0.3831481481481481,4.923599999964225],[0.4039583333333333,-0.3918518518518519,4.940199999988067],[0.4314583333333334,-0.38351851851851854,4.956899999976159],[0.45895833333333325,-0.37518518518518523,4.973599999964236],[0.4900000000000001,-0.3731481481481482,4.990299999952313],[0.5239583333333333,-0.35851851851851857,5.006899999976156],[0.5239583333333333,-0.35851851851851857,5.023599999964233],[0.5558333333333333,-0.3542592592592593,5.04029999995231],[0.5862499999999999,-0.3685185185185185,5.056999999999988],[0.5921875,-0.3774074074074074,5.07359999996423],[0.5883333333333333,-0.3327777777777778,5.093199999988073],[0.5883333333333333,-0.3327777777777778,5.106999999999999],[0.5804166666666667,-0.3061111111111111,5.123599999964227],[0.5619791666666667,-0.2905555555555555,5.141699999988077],[0.5619791666666667,-0.2905555555555555,5.156899999976147],[0.5217708333333334,-0.27759259259259256,5.173699999988074],[0.4822916666666667,-0.2733333333333334,5.190199999988067],[0.4476041666666667,-0.267037037037037,5.208500000000001]]","[0.00019999998806952135,0.03939999997615473,0.05069999998806907,0.05849999999999511,0.07379999995231401,0.09309999996423812,0.11469999998807623,0.12819999998806964,0.14039999997615382,0.16049999999999898,0.17869999998806918,0.19029999995231606,0.20709999996422823,0.22499999999999432,0.24319999998807873,0.2570999999642254,0.27379999995231685,0.290599999964229,0.30779999995230867,0.3243999999761513,0.34259999996423574,0.36019999998806895,0.38049999999999784,0.3903999999761538,0.4070999999642311,0.4263999999761552,0.4427999999523138,0.45699999999999363,0.4736999999880709,0.4911999999880692,0.5083999999761488,0.5262999999523146,0.5436999999880783,0.5613999999761461,0.5798999999761492,0.5902999999523075,0.6070999999642339,0.6289999999999907,0.6402999999523047,0.6570999999642311,0.674099999964227,0.6935999999642348,0.7105999999642307,0.7236999999880709,0.7403999999761481,0.7574999999999932,0.7751999999880752,0.7955999999642245,0.806999999999988,0.8236999999880794,0.8406999999880753,0.8570999999642339,0.8787999999523066,0.8948999999761469,0.9111999999880709,0.9305999999642296,0.9402999999523161,0.9570999999642282,0.973599999964236,0.9941999999880693,1.010699999988077,1.02829999995231,1.0447999999523034,1.0615999999642298,1.0736999999880794,1.0903999999761567,1.1104999999999876,1.1293999999761581,1.1403999999761538,1.1569999999999965,1.1743999999761456,1.1937999999523043,1.211199999988068,1.2263999999761523,1.2426999999880763,1.257699999988077,1.273699999988068,1.2902999999523104,1.3096999999880694,1.3266999999880795,1.345499999999987,1.3612999999523083,1.379499999999993,1.3903999999761538,1.407099999964231,1.4236999999880737,1.440399999976151,1.4569999999999936,1.4805999999642268,1.4903999999761481,1.5070999999642254,1.5237999999523169,1.5433999999761454,1.556999999999988,1.5736999999880794,1.5936999999880754,1.6114999999999924,1.6276999999880672,1.6434999999999889,1.6594999999999942,1.6776999999880786,1.6946999999880745,1.712099999964238,1.728099999964229,1.7459999999999951,1.7568999999761559,1.773699999988068,1.7917999999523033,1.8094999999999999,1.8283999999761562,1.8402999999523075,1.8569999999999993,1.8740999999642298,1.8902999999523047,1.907099999964231,1.9241999999880761,1.9423999999761463,1.9569999999999936,1.9736999999880709,1.993699999988067,2.010699999988077,2.023699999988068,2.0403999999761453,2.057699999988074,2.0743999999761513,2.0902999999523075,2.1069999999999993,2.127899999976151,2.140399999976154,2.1569999999999965,2.1736999999880737,2.1931999999880674,2.2100999999642283,2.227399999976157,2.2448999999761554,2.2601999999880746,2.277499999999989,2.2962999999523106,2.306999999999988,2.3236999999880794,2.344699999988066,2.357199999988069,2.3736999999880766,2.3924999999999983,2.409499999999994,2.427499999999995,2.444399999976156,2.460399999976147,2.4800999999642244,2.490299999952313,2.5070999999642254,2.524399999976154,2.5416999999880687,2.559199999988067,2.5780999999642376,2.5902999999523075,2.607099999964234,2.626099999964225,2.6402999999523047,2.6569999999999965,2.6735999999642246,2.691899999976158,2.7070999999642282,2.723699999988071,2.7408999999761505,2.757299999952309,2.7789999999999964,2.790599999964229,2.816199999988072,2.825499999999991,2.847599999964231,2.8569999999999993,2.8736999999880766,2.8902999999523047,2.9069999999999965,2.9235999999642246,2.940299999952316,2.9569999999999936,2.973699999988071,2.990299999952313,3.006999999999991,3.023699999988068,3.0436999999880783,3.057599999964225,3.0735999999642303,3.0902999999523075,3.1075999999642363,3.1236999999880766,3.1402999999523047,3.1569999999999965,3.1783999999761505,3.19259999996423,3.2069999999999936,3.223599999964236,3.240299999952313,3.259799999952307,3.273599999964233,3.2902999999523104,3.306999999999988,3.3236999999880794,3.3402999999523075,3.3569999999999993,3.3736999999880766,3.391599999964228,3.4068999999761473,3.4237999999523083,3.440299999952316,3.4568999999761587,3.473699999988071,3.4916999999880716,3.5070999999642254,3.5273999999761543,3.5417999999523033,3.556999999999988,3.5736999999880794,3.590199999988073,3.6069999999999993,3.6235999999642274,3.6402999999523047,3.6599999999999966,3.6751999999880667,3.691999999999993,3.7069999999999936,3.723599999964236,3.740399999976148,3.756999999999991,3.7765999999642332,3.7907999999523128,3.8071999999880717,3.826999999999998,3.843099999964238,3.857099999964234,3.8773999999761486,3.894099999964226,3.909599999964229,3.9276999999880786,3.942799999952314,3.957299999952312,3.9738999999761546,3.995899999976146,4.007299999952309,4.023899999976152,4.040599999964229,4.060099999964237,4.077399999976151,4.093699999988075,4.110599999964236,4.126099999964225,4.140299999952305,4.156899999976147,4.173599999964225,4.190299999952316,4.206899999976159,4.223599999964236,4.240199999988079,4.256899999976156,4.273899999976152,4.29029999995231,4.306999999999988,4.323899999976149,4.3402999999523075,4.357099999964234,4.373599999964227,4.391599999964228,4.4069999999999965,4.423599999964225,4.440299999952316,4.458299999952317,4.473699999988071,4.490299999952313,4.506899999976156,4.523599999964233,4.544899999976153,4.558499999999995,4.57359999996423,4.5902999999523075,4.6080999999642245,4.623599999964227,4.64019999998807,4.656899999976147,4.673799999952308,4.690299999952316,4.708199999988068,4.723599999964236,4.741699999988072,4.7571999999880745,4.773599999964233,4.790199999988076,4.809399999976151,4.824999999999989,4.8402999999523075,4.85689999997615,4.873699999988077,4.892599999964233,4.906899999976147,4.923599999964225,4.940199999988067,4.956899999976159,4.973599999964236,4.990299999952313,5.006899999976156,5.023599999964233,5.04029999995231,5.056999999999988,5.07359999996423,5.093199999988073,5.106999999999999,5.123599999964227,5.141699999988077,5.156899999976147,5.173699999988074,5.190199999988067,5.208500000000001]","[1732937993283,1732937993315,1732937993326,1732937993334,1732937993349,1732937993368,1732937993390,1732937993403,1732937993416,1732937993436,1732937993454,1732937993465,1732937993482,1732937993500,1732937993518,1732937993532,1732937993549,1732937993566,1732937993583,1732937993600,1732937993618,1732937993635,1732937993656,1732937993665,1732937993682,1732937993702,1732937993718,1732937993732,1732937993749,1732937993766,1732937993784,1732937993801,1732937993819,1732937993836,1732937993855,1732937993865,1732937993882,1732937993904,1732937993915,1732937993932,1732937993949,1732937993969,1732937993986,1732937993999,1732937994015,1732937994033,1732937994050,1732937994071,1732937994082,1732937994099,1732937994116,1732937994132,1732937994154,1732937994170,1732937994186,1732937994206,1732937994215,1732937994232,1732937994249,1732937994269,1732937994286,1732937994303,1732937994320,1732937994337,1732937994349,1732937994365,1732937994386,1732937994405,1732937994416,1732937994432,1732937994449,1732937994469,1732937994486,1732937994502,1732937994518,1732937994533,1732937994549,1732937994565,1732937994585,1732937994602,1732937994621,1732937994636,1732937994655,1732937994665,1732937994682,1732937994699,1732937994715,1732937994732,1732937994756,1732937994766,1732937994782,1732937994799,1732937994818,1732937994832,1732937994849,1732937994869,1732937994887,1732937994903,1732937994919,1732937994935,1732937994953,1732937994970,1732937994987,1732937995003,1732937995021,1732937995032,1732937995049,1732937995067,1732937995085,1732937995104,1732937995115,1732937995132,1732937995149,1732937995165,1732937995182,1732937995199,1732937995218,1732937995232,1732937995249,1732937995269,1732937995286,1732937995299,1732937995315,1732937995333,1732937995350,1732937995365,1732937995382,1732937995403,1732937995415,1732937995432,1732937995449,1732937995468,1732937995485,1732937995503,1732937995520,1732937995535,1732937995553,1732937995571,1732937995582,1732937995599,1732937995620,1732937995632,1732937995649,1732937995668,1732937995685,1732937995703,1732937995719,1732937995735,1732937995755,1732937995765,1732937995782,1732937995800,1732937995817,1732937995834,1732937995853,1732937995865,1732937995882,1732937995901,1732937995915,1732937995932,1732937995949,1732937995967,1732937995982,1732937995999,1732937996016,1732937996032,1732937996054,1732937996066,1732937996091,1732937996101,1732937996123,1732937996132,1732937996149,1732937996165,1732937996182,1732937996199,1732937996216,1732937996232,1732937996249,1732937996265,1732937996282,1732937996299,1732937996319,1732937996333,1732937996349,1732937996365,1732937996383,1732937996399,1732937996415,1732937996432,1732937996453,1732937996468,1732937996482,1732937996499,1732937996515,1732937996535,1732937996549,1732937996565,1732937996582,1732937996599,1732937996615,1732937996632,1732937996649,1732937996667,1732937996682,1732937996699,1732937996715,1732937996732,1732937996749,1732937996767,1732937996782,1732937996803,1732937996817,1732937996832,1732937996849,1732937996865,1732937996882,1732937996899,1732937996915,1732937996935,1732937996950,1732937996967,1732937996982,1732937996999,1732937997015,1732937997032,1732937997052,1732937997066,1732937997082,1732937997102,1732937997118,1732937997132,1732937997152,1732937997169,1732937997185,1732937997203,1732937997218,1732937997232,1732937997249,1732937997271,1732937997282,1732937997299,1732937997316,1732937997335,1732937997353,1732937997369,1732937997386,1732937997401,1732937997415,1732937997432,1732937997449,1732937997466,1732937997482,1732937997499,1732937997515,1732937997532,1732937997549,1732937997565,1732937997582,1732937997599,1732937997615,1732937997632,1732937997649,1732937997667,1732937997682,1732937997699,1732937997715,1732937997733,1732937997749,1732937997765,1732937997782,1732937997799,1732937997820,1732937997834,1732937997849,1732937997865,1732937997883,1732937997899,1732937997915,1732937997932,1732937997949,1732937997965,1732937997983,1732937997999,1732937998017,1732937998032,1732937998049,1732937998065,1732937998085,1732937998100,1732937998115,1732937998132,1732937998149,1732937998168,1732937998182,1732937998199,1732937998215,1732937998232,1732937998249,1732937998265,1732937998282,1732937998299,1732937998315,1732937998332,1732937998349,1732937998368,1732937998382,1732937998399,1732937998417,1732937998432,1732937998449,1732937998465,1732937998484]","[[1266.7,475.3],[1266.7,475.3],[1274.6,468],[1274.6,468],[1300.7,460.8],[1341,453.3],[1389.1,435.5],[1389.1,435.5],[1391.6,432.3],[1411.3,427.8],[1455.8,422.4],[1455.8,422.4],[1503.6,392.3],[1554,355],[1649.9,315.2],[1649.9,315.2],[1695.6,302.1],[1730.3,289.9],[1742.9,276.4],[1766.8,263],[1797.3,248],[1786,242.9],[1774.7,237.8],[1774.7,237.8],[1778.3,235.6],[1763.8,254.3],[1734.4,272.3],[1734.4,272.3],[1710.2,266.5],[1690.5,275.1],[1680.6,285.2],[1638.2,291.8],[1599.8,300.1],[1555.5,313.6],[1511.2,327.1],[1511.2,327.1],[1437.1,356.3],[1408.7,344.3],[1408.7,344.3],[1333.1,367.2],[1289.1,392.8],[1228.3,402.1],[1161.1,415.5],[1161.1,415.5],[1114.9,431.9],[1061.7,451],[1032.3,447.7],[992,458.2],[992,458.2],[986.7,444.2],[960.9,461],[961.2,440.3],[957.4,425.6],[950.3,412],[949.6,394.3],[958.9,372.1],[958.9,372.1],[987.8,361.3],[1017.1,365.8],[1061.9,362],[1100.5,366.3],[1130.1,366.3],[1164.4,377.3],[1198.7,388.3],[1198.7,388.3],[1242,401.4],[1287.2,400.3],[1322.6,404.1],[1322.6,404.1],[1343.8,393.6],[1351.4,387],[1362.9,386.8],[1374.4,386.6],[1387.2,389.8],[1386,395.4],[1390.9,404.8],[1390.9,404.8],[1395.2,411.9],[1383.7,431.7],[1350.5,442.1],[1314.9,451],[1281.6,457.8],[1239.8,452.7],[1239.8,452.7],[1206.7,452.1],[1173.3,463.5],[1144.9,476],[1104.8,469.9],[1064.7,463.8],[1064.7,463.8],[1042.1,458.3],[1027.6,464.9],[1014.6,466.6],[1014.6,466.6],[1011.7,476.4],[1004.1,486.7],[986.5,494.6],[957.6,483.9],[928.7,473.2],[924.9,476.9],[916.8,478.7],[910.9,475.6],[918.6,469.8],[929.2,468.7],[939,458.8],[939,458.8],[949,435.9],[968.9,430.5],[998.4,429.3],[1062.5,430.1],[1062.5,430.1],[1115.6,433.7],[1176.8,440.2],[1176.8,440.2],[1230.8,446.8],[1278,454.7],[1320.8,462.8],[1320.8,462.8],[1358.4,479.8],[1404.5,496.1],[1442,492.8],[1442,492.8],[1478,492.9],[1484,509.1],[1480.4,497.7],[1480.4,497.7],[1478.5,488.9],[1466.8,504.3],[1466.8,504.3],[1463,512.3],[1458.9,503.3],[1460.4,486],[1458,481.6],[1459.3,475.8],[1473.8,466],[1482.2,437.1],[1498.5,431.5],[1509.3,422.3],[1509.3,422.3],[1518,396.4],[1525.6,376.6],[1525.6,376.6],[1516.9,371.7],[1473.8,365.9],[1421.7,365.4],[1369.8,363.4],[1306.2,362],[1254.6,354.8],[1196.2,349.5],[1196.2,349.5],[1129.6,344.8],[1077.1,345.4],[1024.6,346],[991.4,346.6],[992.2,347.5],[992.2,347.5],[1004.3,347.9],[1026.3,337.4],[1026.3,337.4],[1038.4,335.6],[1044.2,343.6],[1044.1,341.3],[1044.1,341.3],[1062.6,346.9],[1064.9,346.8],[1082.3,341.3],[1097,337.9],[1097,337.9],[1094,331],[1094,331],[1097.5,320.8],[1097.5,320.8],[1088.2,323.8],[1088.2,323.8],[1101.9,318.5],[1113.8,326.7],[1144.3,330.5],[1172,328],[1172,328],[1215.1,324.1],[1244.5,326.3],[1264.4,334.7],[1302,346.6],[1332,350.3],[1361,354.6],[1386.8,359],[1410.2,346.9],[1410.2,346.9],[1412.2,359.9],[1413.2,379.7],[1414.2,399.5],[1415.4,414.3],[1426.1,422.9],[1434,438.7],[1442.8,462.5],[1458.8,461.5],[1458.8,461.5],[1461,471.1],[1461,471.1],[1436.6,480.8],[1401.4,486.2],[1361.1,471.3],[1325.9,467.4],[1302.7,448.1],[1263.6,455.3],[1221.6,442.2],[1175,422.4],[1175,422.4],[1114.2,440.2],[1062.8,435.8],[1032.8,433.1],[1022.3,424.3],[1010.3,426.8],[1010.3,426.8],[998.9,428.1],[998.9,428.1],[973.2,447.2],[950.3,440.3],[933.1,446.5],[917,464.9],[907.9,470.5],[906.4,471.3],[910.1,470.3],[910.1,470.3],[911.5,468.3],[921.5,463.2],[924.4,460.4],[924.4,460.4],[961.6,438.3],[1036.7,413.1],[1108.6,382.2],[1108.6,382.2],[1163.1,369.2],[1231,341.3],[1250.5,318],[1280,303.1],[1299.5,303.8],[1327.4,291.3],[1365.5,273.4],[1377.8,270.4],[1377.8,270.4],[1329.6,284.3],[1294.9,302.2],[1279.8,288.1],[1229.3,291.1],[1220,304.5],[1200.7,309.5],[1190.3,320.1],[1190.3,320.1],[1162.9,347],[1134.5,358],[1118,370.4],[1118,370.4],[1131.7,365.1],[1131.8,361],[1113.2,365.4],[1117.3,369.6],[1115.6,373.2],[1113.4,380.9],[1135.7,349.3],[1158,317.7],[1148.5,310.6],[1119.3,308.4],[1104.7,314.4],[1088.2,322.7],[1098.1,330.2],[1107.3,335.7],[1111.8,333.7],[1111.8,333.7],[1113.2,325.2],[1097,336.1],[1087.3,355.6],[1101.6,359.8],[1108.2,374.2],[1108.2,374.2],[1105.7,383.8],[1132.1,386.5],[1141.3,394.8],[1150.5,403.1],[1155.9,418.5],[1164.9,436.3],[1150.5,452.9],[1154.6,455.9],[1165.4,466],[1183.9,465.9],[1201.8,458.3],[1196,455.8],[1201.3,437.1],[1206.6,418.4],[1212.3,403.9],[1210.7,390.2],[1241.3,377.6],[1249.1,373],[1274.1,358.4],[1299.1,343.8],[1318.4,333.1],[1347.8,328.4],[1374.2,332.9],[1400.6,337.4],[1430.4,338.5],[1463,346.4],[1463,346.4],[1493.6,348.7],[1522.8,341],[1528.5,336.2],[1524.8,360.3],[1524.8,360.3],[1517.2,374.7],[1499.5,383.1],[1499.5,383.1],[1460.9,390.1],[1423,392.4],[1389.7,395.8]]","[0,0.37864299999999995]","[0.37864299999999995,0.37864299999999995]","[-0.37864299999999995,-0.37864299999999995]","[-0.37864299999999995,0]","[0,-0.37864299999999995]","[0.37864299999999995,-0.37864299999999995]","[0,0]","[0.37864299999999995,0]",0,0,0,0,1,3,Laptop,11,9,9,1
