inst1_resp.keys,inst1_resp.rt,calibrationMouse.x,calibrationMouse.y,calibrationMouse.leftButton,calibrationMouse.midButton,calibrationMouse.rightButton,calibrationClick.x,calibrationClick.y,calibrationClick.leftButton,calibrationClick.midButton,calibrationClick.rightButton,calibrationClick.clicked_name,trialsc.thisRepN,trialsc.thisTrialN,trialsc.thisN,trialsc.thisIndex,trialsc.ran,calibration_x,calibration_y,participant,session,date,expName,psychopyVersion,OS,frameRate,ScreenRes_pixels,mouse_2.x,mouse_2.y,mouse_2.leftButton,mouse_2.midButton,mouse_2.rightButton,mouse_2.time,mouse_2.clicked_name,Camera_pixels,mouse.x,mouse.y,mouse.leftButton,mouse.midButton,mouse.rightButton,mouse.time,mouse.clicked_name,Choice,Trial,TrialDuration,MOUSE_GAZE,ET_GAZE,ET_GAZE_x_T,time,unixTime,ET_GAZE_NF,Loc_Option1_label,Loc_Option2_label,Loc_Cost_label,Loc_Qual_label,Loc_Option1_cost,Loc_Option2_cost,Loc_Option1_quality,Loc_Option2_quality,trials.thisRepN,trials.thisTrialN,trials.thisN,trials.thisIndex,trials.ran,Block,Device,cost1,qual1,cost2,qual2
space,1.0244,-0.45,-0.312962963,1,0,0,-0.003125,0.327777778,1,0,0,calibration_square,0,0,0,12,1,0,0.33,34,001,2024-12-01_14h16.30.254,Attention_exp_legacy,2023.1.0,Win32,59.88023952,,,,,,,,,,,,,,,,,,,,,,,,,,,,,,,,,,,,,,,,,,,,
,,,,,,,-0.3375,-0.674074074,1,0,0,calibration_square,0,1,1,4,1,-0.33,-0.67,34,001,2024-12-01_14h16.30.254,Attention_exp_legacy,2023.1.0,Win32,59.88023952,,,,,,,,,,,,,,,,,,,,,,,,,,,,,,,,,,,,,,,,,,,,
,,,,,,,-0.325,0.335185185,1,0,0,calibration_square,0,2,2,7,1,-0.33,0.33,34,001,2024-12-01_14h16.30.254,Attention_exp_legacy,2023.1.0,Win32,59.88023952,,,,,,,,,,,,,,,,,,,,,,,,,,,,,,,,,,,,,,,,,,,,
,,,,,,,0.332291667,-0.327777778,1,0,0,calibration_square,0,3,3,15,1,0.33,-0.33,34,001,2024-12-01_14h16.30.254,Attention_exp_legacy,2023.1.0,Win32,59.88023952,,,,,,,,,,,,,,,,,,,,,,,,,,,,,,,,,,,,,,,,,,,,
,,,,,,,-0.6625,-0.681481481,1,0,0,,0,4,4,0,1,-0.67,-0.67,34,001,2024-12-01_14h16.30.254,Attention_exp_legacy,2023.1.0,Win32,59.88023952,,,,,,,,,,,,,,,,,,,,,,,,,,,,,,,,,,,,,,,,,,,,
,,,,,,,-0.671875,0.325925926,1,0,0,calibration_square,0,5,5,3,1,-0.67,0.33,34,001,2024-12-01_14h16.30.254,Attention_exp_legacy,2023.1.0,Win32,59.88023952,,,,,,,,,,,,,,,,,,,,,,,,,,,,,,,,,,,,,,,,,,,,
,,,,,,,0.669791667,-0.664814815,1,0,0,calibration_square,0,6,6,20,1,0.67,-0.67,34,001,2024-12-01_14h16.30.254,Attention_exp_legacy,2023.1.0,Win32,59.88023952,,,,,,,,,,,,,,,,,,,,,,,,,,,,,,,,,,,,,,,,,,,,
,,,,,,,-0.326041667,-0.333333333,1,0,0,calibration_square,0,7,7,5,1,-0.33,-0.33,34,001,2024-12-01_14h16.30.254,Attention_exp_legacy,2023.1.0,Win32,59.88023952,,,,,,,,,,,,,,,,,,,,,,,,,,,,,,,,,,,,,,,,,,,,
,,,,,,,-0.002083333,0.672222222,1,0,0,calibration_square,0,8,8,13,1,0,0.67,34,001,2024-12-01_14h16.30.254,Attention_exp_legacy,2023.1.0,Win32,59.88023952,,,,,,,,,,,,,,,,,,,,,,,,,,,,,,,,,,,,,,,,,,,,
,,,,,,,-0.004166667,0.003703704,1,0,0,calibration_square,0,9,9,11,1,0,0,34,001,2024-12-01_14h16.30.254,Attention_exp_legacy,2023.1.0,Win32,59.88023952,,,,,,,,,,,,,,,,,,,,,,,,,,,,,,,,,,,,,,,,,,,,
,,,,,,,0.33125,-0.011111111,1,0,0,,0,10,10,16,1,0.33,0,34,001,2024-12-01_14h16.30.254,Attention_exp_legacy,2023.1.0,Win32,59.88023952,,,,,,,,,,,,,,,,,,,,,,,,,,,,,,,,,,,,,,,,,,,,
,,,,,,,0.301041667,-0.075925926,1,0,0,,0,11,11,9,1,0,-0.67,34,001,2024-12-01_14h16.30.254,Attention_exp_legacy,2023.1.0,Win32,59.88023952,,,,,,,,,,,,,,,,,,,,,,,,,,,,,,,,,,,,,,,,,,,,
,,,,,,,0.004166667,-0.333333333,1,0,0,calibration_square,0,12,12,10,1,0,-0.33,34,001,2024-12-01_14h16.30.254,Attention_exp_legacy,2023.1.0,Win32,59.88023952,,,,,,,,,,,,,,,,,,,,,,,,,,,,,,,,,,,,,,,,,,,,
,,,,,,,-0.665625,-0.014814815,1,0,0,,0,13,13,2,1,-0.67,0,34,001,2024-12-01_14h16.30.254,Attention_exp_legacy,2023.1.0,Win32,59.88023952,,,,,,,,,,,,,,,,,,,,,,,,,,,,,,,,,,,,,,,,,,,,
,,,,,,,-0.666666667,-0.357407407,1,0,0,,0,14,14,1,1,-0.67,-0.33,34,001,2024-12-01_14h16.30.254,Attention_exp_legacy,2023.1.0,Win32,59.88023952,,,,,,,,,,,,,,,,,,,,,,,,,,,,,,,,,,,,,,,,,,,,
,,,,,,,0.671875,0.668518519,1,0,0,calibration_square,0,15,15,19,1,0.67,0.67,34,001,2024-12-01_14h16.30.254,Attention_exp_legacy,2023.1.0,Win32,59.88023952,,,,,,,,,,,,,,,,,,,,,,,,,,,,,,,,,,,,,,,,,,,,
,,,,,,,0.329166667,-0.67037037,1,0,0,calibration_square,0,16,16,14,1,0.33,-0.67,34,001,2024-12-01_14h16.30.254,Attention_exp_legacy,2023.1.0,Win32,59.88023952,,,,,,,,,,,,,,,,,,,,,,,,,,,,,,,,,,,,,,,,,,,,
,,,,,,,-0.332291667,0.67962963,1,0,0,calibration_square,0,17,17,8,1,-0.33,0.67,34,001,2024-12-01_14h16.30.254,Attention_exp_legacy,2023.1.0,Win32,59.88023952,,,,,,,,,,,,,,,,,,,,,,,,,,,,,,,,,,,,,,,,,,,,
,,,,,,,0.334375,0.327777778,1,0,0,calibration_square,0,18,18,17,1,0.33,0.33,34,001,2024-12-01_14h16.30.254,Attention_exp_legacy,2023.1.0,Win32,59.88023952,,,,,,,,,,,,,,,,,,,,,,,,,,,,,,,,,,,,,,,,,,,,
,,,,,,,0.338541667,0.668518519,1,0,0,calibration_square,0,19,19,18,1,0.33,0.67,34,001,2024-12-01_14h16.30.254,Attention_exp_legacy,2023.1.0,Win32,59.88023952,,,,,,,,,,,,,,,,,,,,,,,,,,,,,,,,,,,,,,,,,,,,
,,,,,,,-0.344791667,0.007407407,1,0,0,,0,20,20,6,1,-0.33,0,34,001,2024-12-01_14h16.30.254,Attention_exp_legacy,2023.1.0,Win32,59.88023952,,,,,,,,,,,,,,,,,,,,,,,,,,,,,,,,,,,,,,,,,,,,
,,,,,,,,,,,,,,,,,,,,34,001,2024-12-01_14h16.30.254,Attention_exp_legacy,2023.1.0,Win32,59.88023952,"[1920,1080]",[-0.071875],[-0.4740740740740741],[1],[0],[0],[0.864199999988081],"[""StartButton""]","[640,480]",[0.0125],[0.32037037037037036],[1],[0],[0],[3.7718999999761635],"[""Option1_label""]",Option1_label,1,4.7834,"[[0.011458333333333333,-0.12962962962962962],[0.011458333333333333,-0.12962962962962962],[0.011458333333333333,-0.12962962962962962],[0.011458333333333333,-0.12962962962962962],[0.011458333333333333,-0.12962962962962962],[0.011458333333333333,-0.12962962962962962],[0.011458333333333333,-0.12962962962962962],[0.011458333333333333,-0.12962962962962962],[0.011458333333333333,-0.12962962962962962],[0.011458333333333333,-0.12962962962962962],[0.011458333333333333,-0.12962962962962962],[0.011458333333333333,-0.12962962962962962],[0.011458333333333333,-0.12962962962962962],[0.011458333333333333,-0.12962962962962962],[0.011458333333333333,-0.12962962962962962],[0.011458333333333333,-0.12962962962962962],[0.011458333333333333,-0.12962962962962962],[0.011458333333333333,-0.12962962962962962],[0.011458333333333333,-0.12962962962962962],[0.011458333333333333,-0.12962962962962962],[0.011458333333333333,-0.12962962962962962],[0.011458333333333333,-0.12962962962962962],[0.011458333333333333,-0.12962962962962962],[0.011458333333333333,-0.12962962962962962],[0.011458333333333333,-0.12962962962962962],[0.011458333333333333,-0.12962962962962962],[0.011458333333333333,-0.12962962962962962],[0.011458333333333333,-0.12962962962962962],[0.011458333333333333,-0.12962962962962962],[0.011458333333333333,-0.12962962962962962],[0.011458333333333333,-0.12962962962962962],[0.011458333333333333,-0.12962962962962962],[0.011458333333333333,-0.12962962962962962],[0.011458333333333333,-0.12962962962962962],[0.011458333333333333,-0.12962962962962962],[0.011458333333333333,-0.12962962962962962],[0.011458333333333333,-0.12962962962962962],[0.011458333333333333,-0.12962962962962962],[0.011458333333333333,-0.12962962962962962],[0.011458333333333333,-0.12962962962962962],[0.011458333333333333,-0.12962962962962962],[0.011458333333333333,-0.12962962962962962],[0.011458333333333333,-0.12962962962962962],[0.011458333333333333,-0.12962962962962962],[0.011458333333333333,-0.12962962962962962],[0.011458333333333333,-0.12962962962962962],[0.011458333333333333,-0.12962962962962962],[0.011458333333333333,-0.12962962962962962],[0.011458333333333333,-0.12962962962962962],[0.011458333333333333,-0.12962962962962962],[0.011458333333333333,-0.12962962962962962],[0.011458333333333333,-0.12962962962962962],[0.011458333333333333,-0.12962962962962962],[0.011458333333333333,-0.12962962962962962],[0.011458333333333333,-0.12962962962962962],[0.011458333333333333,-0.12962962962962962],[0.011458333333333333,-0.12962962962962962],[0.011458333333333333,-0.12962962962962962],[0.011458333333333333,-0.12962962962962962],[0.011458333333333333,-0.12962962962962962],[0.011458333333333333,-0.12962962962962962],[0.011458333333333333,-0.12962962962962962],[0.011458333333333333,-0.12962962962962962],[0.011458333333333333,-0.12962962962962962],[0.011458333333333333,-0.12962962962962962],[0.011458333333333333,-0.12962962962962962],[0.011458333333333333,-0.12962962962962962],[0.011458333333333333,-0.12962962962962962],[0.011458333333333333,-0.12962962962962962],[0.011458333333333333,-0.12962962962962962],[0.011458333333333333,-0.12962962962962962],[0.011458333333333333,-0.12962962962962962],[0.011458333333333333,-0.12962962962962962],[0.011458333333333333,-0.12962962962962962],[0.011458333333333333,-0.12962962962962962],[0.011458333333333333,-0.12962962962962962],[0.011458333333333333,-0.12962962962962962],[0.011458333333333333,-0.12962962962962962],[0.011458333333333333,-0.12962962962962962],[0.011458333333333333,-0.12962962962962962],[0.011458333333333333,-0.12962962962962962],[0.011458333333333333,-0.12962962962962962],[0.011458333333333333,-0.12962962962962962],[0.011458333333333333,-0.12962962962962962],[0.011458333333333333,-0.12962962962962962],[0.011458333333333333,-0.12962962962962962],[0.011458333333333333,-0.12962962962962962],[0.011458333333333333,-0.12962962962962962],[0.011458333333333333,-0.12962962962962962],[0.011458333333333333,-0.12962962962962962],[0.011458333333333333,-0.12962962962962962],[0.011458333333333333,-0.12962962962962962],[0.0125,-0.12962962962962962],[0.0125,-0.12962962962962962],[0.0125,-0.12962962962962962],[0.0125,-0.12962962962962962],[0.0125,-0.12962962962962962],[0.0125,-0.12962962962962962],[0.0125,-0.12962962962962962],[0.0125,-0.1259259259259259],[0.0125,-0.1259259259259259],[0.0125,-0.1259259259259259],[0.0125,-0.1259259259259259],[0.0125,-0.1259259259259259],[0.0125,-0.1259259259259259],[0.0125,-0.1259259259259259],[0.0125,-0.1259259259259259],[0.0125,-0.1259259259259259],[0.0125,-0.1259259259259259],[0.0125,-0.1259259259259259],[0.0125,-0.1259259259259259],[0.0125,-0.1259259259259259],[0.0125,-0.1259259259259259],[0.0125,-0.1259259259259259],[0.0125,-0.1259259259259259],[0.0125,-0.1259259259259259],[0.0125,-0.1259259259259259],[0.0125,-0.1259259259259259],[0.0125,-0.1259259259259259],[0.0125,-0.1259259259259259],[0.0125,-0.1259259259259259],[0.0125,-0.1259259259259259],[0.0125,-0.1259259259259259],[0.0125,-0.1259259259259259],[0.0125,-0.1259259259259259],[0.0125,-0.1259259259259259],[0.0125,-0.1259259259259259],[0.0125,-0.1259259259259259],[0.0125,-0.1259259259259259],[0.0125,-0.1259259259259259],[0.0125,-0.1259259259259259],[0.0125,-0.1259259259259259],[0.0125,-0.1259259259259259],[0.0125,-0.1259259259259259],[0.0125,-0.1259259259259259],[0.0125,-0.1259259259259259],[0.0125,-0.1259259259259259],[0.0125,-0.1259259259259259],[0.0125,-0.1259259259259259],[0.0125,-0.1259259259259259],[0.0125,-0.1259259259259259],[0.0125,-0.1259259259259259],[0.0125,-0.1259259259259259],[0.0125,-0.1259259259259259],[0.0125,-0.1259259259259259],[0.0125,-0.1259259259259259],[0.0125,-0.1259259259259259],[0.0125,-0.1259259259259259],[0.0125,-0.1259259259259259],[0.0125,-0.1259259259259259],[0.0125,-0.1259259259259259],[0.0125,-0.1259259259259259],[0.0125,-0.1259259259259259],[0.0125,-0.1259259259259259],[0.0125,-0.1259259259259259],[0.0125,-0.1259259259259259],[0.0125,-0.1259259259259259],[0.0125,-0.1259259259259259],[0.0125,-0.1259259259259259],[0.0125,-0.1259259259259259],[0.0125,-0.1259259259259259],[0.0125,-0.1259259259259259],[0.0125,-0.1259259259259259],[0.0125,-0.1259259259259259],[0.0125,-0.1259259259259259],[0.0125,-0.1259259259259259],[0.0125,-0.1259259259259259],[0.0125,-0.1259259259259259],[0.0125,-0.1259259259259259],[0.0125,-0.1259259259259259],[0.0125,-0.1259259259259259],[0.0125,-0.1259259259259259],[0.0125,-0.1259259259259259],[0.0125,-0.1259259259259259],[0.0125,-0.1259259259259259],[0.0125,-0.1259259259259259],[0.0125,-0.1259259259259259],[0.0125,-0.1259259259259259],[0.0125,-0.1259259259259259],[0.0125,-0.1259259259259259],[0.0125,-0.1259259259259259],[0.0125,-0.1259259259259259],[0.0125,-0.1259259259259259],[0.0125,-0.1259259259259259],[0.0125,-0.1259259259259259],[0.0125,-0.1259259259259259],[0.0125,-0.1259259259259259],[0.0125,-0.1259259259259259],[0.0125,-0.1259259259259259],[0.0125,-0.1259259259259259],[0.0125,-0.1259259259259259],[0.0125,-0.1259259259259259],[0.0125,-0.1259259259259259],[0.013541666666666667,-0.12407407407407407],[0.013541666666666667,-0.12407407407407407],[0.013541666666666667,-0.12407407407407407],[0.013541666666666667,-0.12407407407407407],[0.013541666666666667,-0.12407407407407407],[0.013541666666666667,-0.12407407407407407],[0.013541666666666667,-0.12407407407407407],[0.013541666666666667,-0.12407407407407407],[0.013541666666666667,-0.12407407407407407],[0.013541666666666667,-0.12407407407407407],[0.004166666666666667,-0.11851851851851852],[-0.014583333333333334,-0.10925925925925926],[-0.036458333333333336,-0.09444444444444444],[-0.06666666666666667,-0.05740740740740741],[-0.09375,0.001851851851851852],[-0.11354166666666667,0.06481481481481481],[-0.12604166666666666,0.1037037037037037],[-0.1375,0.15185185185185185],[-0.13958333333333334,0.15925925925925927],[-0.13958333333333334,0.17962962962962964],[-0.11458333333333333,0.2351851851851852],[-0.09895833333333333,0.2518518518518518],[-0.05520833333333333,0.28703703703703703],[-0.030208333333333334,0.3],[-0.008333333333333333,0.30925925925925923],[0.004166666666666667,0.31666666666666665],[0.010416666666666666,0.32037037037037036],[0.011458333333333333,0.32037037037037036],[0.011458333333333333,0.32037037037037036],[0.0125,0.32037037037037036],[0.0125,0.32037037037037036],[0.0125,0.32037037037037036],[0.0125,0.32037037037037036],[0.0125,0.32037037037037036],[0.0125,0.32037037037037036],[0.0125,0.32037037037037036],[0.0125,0.32037037037037036],[0.0125,0.32037037037037036],[0.0125,0.32037037037037036],[0.0125,0.32037037037037036],[0.0125,0.32037037037037036],[0.0125,0.32037037037037036],[0.0125,0.32037037037037036],[0.0125,0.32037037037037036],[0.0125,0.32037037037037036],[0.0125,0.32037037037037036],[0.0125,0.32037037037037036],[0.0125,0.32037037037037036],[0.013541666666666667,0.3148148148148148],[0.013541666666666667,0.30185185185185187],[0.013541666666666667,0.29074074074074074],[0.013541666666666667,0.2796296296296296],[0.013541666666666667,0.26666666666666666],[0.013541666666666667,0.2537037037037037],[0.013541666666666667,0.24074074074074073],[0.013541666666666667,0.23703703703703705],[0.013541666666666667,0.23148148148148148],[0.013541666666666667,0.22592592592592592],[0.013541666666666667,0.2222222222222222],[0.013541666666666667,0.2222222222222222],[0.013541666666666667,0.22037037037037038],[0.014583333333333334,0.22037037037037038],[0.014583333333333334,0.22037037037037038],[0.014583333333333334,0.22037037037037038],[0.014583333333333334,0.22037037037037038],[0.014583333333333334,0.22037037037037038],[0.014583333333333334,0.22037037037037038],[0.014583333333333334,0.22037037037037038],[0.014583333333333334,0.22037037037037038],[0.014583333333333334,0.22037037037037038],[0.014583333333333334,0.22037037037037038],[0.014583333333333334,0.22037037037037038],[0.014583333333333334,0.22037037037037038],[0.014583333333333334,0.22037037037037038],[0.014583333333333334,0.22037037037037038],[0.014583333333333334,0.22037037037037038],[0.014583333333333334,0.22037037037037038],[0.014583333333333334,0.22037037037037038],[0.014583333333333334,0.22037037037037038],[0.014583333333333334,0.22037037037037038],[0.014583333333333334,0.22037037037037038],[0.014583333333333334,0.22037037037037038],[0.014583333333333334,0.22037037037037038],[0.014583333333333334,0.22037037037037038],[0.014583333333333334,0.22037037037037038],[0.014583333333333334,0.22037037037037038],[0.014583333333333334,0.22037037037037038],[0.014583333333333334,0.22037037037037038],[0.014583333333333334,0.22037037037037038],[0.014583333333333334,0.22037037037037038],[0.014583333333333334,0.22037037037037038],[0.014583333333333334,0.22037037037037038],[0.014583333333333334,0.22037037037037038],[0.014583333333333334,0.22037037037037038]]","[[0.09635416666666667,-0.03481481481481473],[0.09635416666666667,-0.03481481481481473],[0.09322916666666667,-0.03888888888888889],[0.09937500000000009,-0.03944444444444436],[0.07020833333333343,-0.014074074074074116],[0.04635416666666667,0.01722222222222214],[0.04635416666666667,0.01722222222222214],[0.022500000000000023,0.0485185185185186],[0.03291666666666669,0.03370370370370379],[0.023958333333333335,0.010370370370370412],[0.036666666666666715,-0.018518518518518517],[0.04635416666666667,-0.03129629629629625],[0.065625,-0.04259259259259259],[0.04750000000000002,-0.05129629629629638],[0.06364583333333336,-0.04055555555555551],[0.06364583333333336,-0.04055555555555551],[0.06333333333333328,-0.06648148148148143],[0.08093750000000005,-0.0787037037037037],[0.0974999999999999,-0.07888888888888893],[0.09281249999999991,-0.05851851851851856],[0.07822916666666657,-0.06425925925925924],[0.06364583333333336,-0.07000000000000002],[0.0671875,-0.08407407407407404],[0.0678124999999999,-0.075],[0.09645833333333324,-0.09500000000000001],[0.09354166666666662,-0.12370370370370372],[0.0912499999999999,-0.13055555555555556],[0.0912499999999999,-0.13055555555555556],[0.07104166666666671,-0.15111111111111114],[0.06208333333333336,-0.16648148148148145],[0.06916666666666677,-0.18333333333333332],[0.07364583333333338,-0.14685185185185187],[0.1099999999999999,-0.10907407407407403],[0.12041666666666657,-0.07999999999999997],[0.12041666666666657,-0.07999999999999997],[0.10843749999999991,-0.04000000000000004],[0.11166666666666672,0.013703703703703662],[0.058645833333333286,0.036481481481481566],[0.019791666666666666,0.06314814814814819],[0.019791666666666666,0.06314814814814819],[0.004270833333333357,0.10407407407407415],[-0.02781250000000005,0.11185185185185181],[-0.06666666666666667,0.15611111111111103],[-0.09604166666666672,0.1742592592592593],[-0.15187499999999995,0.17444444444444454],[-0.196875,0.17555555555555546],[-0.196875,0.17555555555555546],[-0.21354166666666666,0.13537037037037042],[-0.21354166666666666,0.13537037037037042],[-0.2869791666666667,0.1242592592592593],[-0.2773958333333333,0.11962962962962967],[-0.2773958333333333,0.11962962962962967],[-0.2678125,0.11500000000000005],[-0.31489583333333326,0.07037037037037037],[-0.35562499999999997,0.041666666666666664],[-0.3497916666666666,0.020185185185185143],[-0.3497916666666666,0.020185185185185143],[-0.349375,0],[-0.3307291666666667,-0.003703703703703704],[-0.2891666666666667,-0.017592592592592594],[-0.25354166666666667,-0.0011111111111111532],[-0.19395833333333337,-0.01722222222222214],[-0.17843749999999994,-0.013518518518518435],[-0.16291666666666665,-0.009814814814814731],[-0.16291666666666665,-0.009814814814814731],[-0.07687499999999996,0.04055555555555551],[0.0234375,0.058703703703703786],[0.08395833333333323,0.03314814814814811],[0.08395833333333323,0.03314814814814811],[0.15343749999999995,0.01777777777777782],[0.19947916666666668,0.006296296296296254],[0.19791666666666666,0.014074074074074116],[0.20208333333333334,0.03166666666666671],[0.23510416666666673,0.04055555555555551],[0.2759375000000001,0.04462962962962967],[0.3178124999999999,0.046481481481481526],[0.32447916666666665,0.04333333333333329],[0.32156250000000003,0.07148148148148152],[0.3186458333333334,0.09962962962962954],[0.2742708333333333,0.11925925925925922],[0.2742708333333333,0.11925925925925922],[0.2296875,0.13518518518518519],[0.19989583333333344,0.1557407407407408],[0.15489583333333337,0.1418518518518519],[0.15489583333333337,0.1418518518518519],[0.10166666666666657,0.11537037037037029],[0.058229166666666644,0.1007407407407407],[-0.021979166666666692,0.10907407407407403],[-0.021979166666666692,0.10907407407407403],[-0.10416666666666667,0.1014814814814814],[-0.18999999999999997,0.09722222222222222],[-0.23406250000000003,0.11629629629629622],[-0.23406250000000003,0.11629629629629622],[-0.23083333333333336,0.12222222222222222],[-0.24375,0.12777777777777777],[-0.2467708333333333,0.11962962962962967],[-0.2467708333333333,0.11962962962962967],[-0.22062499999999996,0.10129629629629638],[-0.20729166666666668,0.16870370370370374],[-0.1998958333333333,0.1948148148148149],[-0.1998958333333333,0.1948148148148149],[-0.16656249999999997,0.18055555555555555],[-0.13322916666666665,0.16629629629629622],[-0.10864583333333329,0.18611111111111112],[-0.10864583333333329,0.18611111111111112],[-0.1258333333333333,0.18259259259259264],[-0.1258333333333333,0.18259259259259264],[-0.1530208333333333,0.16574074074074074],[-0.1530208333333333,0.16574074074074074],[-0.1498958333333333,0.11629629629629622],[-0.1326041666666666,0.08499999999999996],[-0.146875,0.1124074074074075],[-0.13406250000000006,0.0698148148148149],[-0.15135416666666662,0.07148148148148152],[-0.11124999999999995,0.12462962962962955],[-0.08093750000000005,0.18055555555555555],[0.0013541666666666192,0.1838888888888888],[0.08166666666666676,0.17185185185185176],[0.15968749999999995,0.18703703703703703],[0.22385416666666677,0.25500000000000006],[0.25812499999999994,0.3103703703703704],[0.25812499999999994,0.3103703703703704],[0.3030208333333334,0.33851851851851844],[0.34229166666666655,0.34981481481481475],[0.40385416666666674,0.3911111111111112],[0.40385416666666674,0.3911111111111112],[0.4178124999999999,0.4005555555555555],[0.44510416666666663,0.4024074074074073],[0.43947916666666675,0.43074074074074076],[0.43947916666666675,0.43074074074074076],[0.4118750000000001,0.45129629629629636],[0.4118750000000001,0.45129629629629636],[0.4178124999999999,0.4762962962962964],[0.41302083333333334,0.4777777777777778],[0.42249999999999993,0.4837037037037038],[0.4234375,0.4722222222222222],[0.42291666666666666,0.4853703703703704],[0.4359375,0.4514814814814814],[0.4319791666666667,0.44351851851851853],[0.4045833333333334,0.4300000000000001],[0.38937499999999997,0.3838888888888888],[0.39812500000000006,0.3609259259259259],[0.3502083333333334,0.3303703703703703],[0.3412499999999999,0.3122222222222223],[0.3011458333333332,0.28055555555555556],[0.2712500000000001,0.26370370370370366],[0.2712500000000001,0.26370370370370366],[0.2321875000000001,0.26796296296296307],[0.18166666666666675,0.27259259259259266],[0.1646874999999999,0.2579629629629629],[0.16760416666666675,0.2537037037037037],[0.1336458333333333,0.22555555555555548],[0.09208333333333343,0.2],[0.06229166666666662,0.18370370370370379],[0.04208333333333331,0.20259259259259255],[0.058958333333333356,0.20259259259259255],[0.06302083333333333,0.21999999999999992],[0.06302083333333333,0.21999999999999992],[0.09635416666666667,0.19499999999999992],[0.09270833333333334,0.13555555555555565],[0.06614583333333333,0.05907407407407403],[0.036666666666666715,-0.01055555555555564],[0.03302083333333338,0.008888888888888804],[0.03697916666666667,0.0257407407407407],[0.050416666666666644,0.03851851851851843],[0.011458333333333333,0.004814814814814857],[0.011458333333333333,0.004814814814814857],[-0.009062500000000048,-0.018703703703703747],[-0.04802083333333336,-0.07759259259259255],[-0.10656249999999995,-0.10018518518518522],[-0.12447916666666667,-0.08555555555555554],[-0.14343750000000005,-0.0492592592592593],[-0.15958333333333338,-0.03518518518518519],[-0.18822916666666673,-0.06407407407407412],[-0.18822916666666673,-0.06407407407407412],[-0.21687500000000004,-0.09296296296296294],[-0.2127083333333334,-0.14148148148148143],[-0.23083333333333336,-0.1757407407407407],[-0.23083333333333336,-0.1757407407407407],[-0.271875,-0.1977777777777778],[-0.2557291666666667,-0.18462962962962962],[-0.25843750000000004,-0.20333333333333337],[-0.25843750000000004,-0.20333333333333337],[-0.2534374999999999,-0.21351851851851855],[-0.20572916666666666,-0.19944444444444442],[-0.16000000000000003,-0.15555555555555556],[-0.11677083333333335,-0.11648148148148144],[-0.06343749999999998,-0.08129629629629626],[-0.06343749999999998,-0.08129629629629626],[-0.015312500000000047,-0.04351851851851852],[-0.015312500000000047,-0.04351851851851852],[0.034687499999999954,-0.0003703703703704546],[0.0821875000000001,0.04722222222222222],[0.10333333333333337,0.08351851851851856],[0.12979166666666658,0.10055555555555547],[0.12979166666666658,0.10055555555555547],[0.15625,0.1175925925925926],[0.15791666666666657,0.1316666666666667],[0.1616666666666667,0.13129629629629624],[0.1929166666666667,0.09888888888888885],[0.22083333333333333,0.08888888888888889],[0.19114583333333332,0.10444444444444441],[0.19281249999999991,0.09037037037037028],[0.190625,0.07833333333333325],[0.17979166666666657,0.07833333333333325],[0.17354166666666657,0.08851851851851844],[0.16729166666666656,0.09870370370370361],[0.14406249999999995,0.06962962962962967],[0.12302083333333323,0.07333333333333338],[0.09145833333333328,0.11833333333333329],[0.03958333333333333,0.08259259259259263],[0.03958333333333333,0.08259259259259263],[0.019687499999999976,0.05481481481481486],[0.017916666666666713,0.02759259259259255],[0.010625000000000048,-0.015555555555555513],[0.003333333333333381,-0.06555555555555552],[0.013229166666666714,-0.08185185185185183],[0.005104166666666643,-0.09518518518518514],[0.022708333333333285,-0.1190740740740741],[0.022708333333333285,-0.1190740740740741],[0.0037500000000000237,-0.17370370370370372],[0.0012500000000000473,-0.22333333333333338],[0.01229166666666662,-0.21074074074074076],[0.01229166666666662,-0.21074074074074076],[0.010520833333333358,-0.19222222222222224],[-0.0016666666666666904,-0.1794444444444444],[-0.0016666666666666904,-0.1794444444444444],[-0.002812500000000047,-0.14833333333333337],[-0.007395833333333357,-0.13037037037037033],[-0.02354166666666669,-0.13444444444444448],[-0.02166666666666662,-0.14148148148148143],[-0.02166666666666662,-0.14148148148148143],[-0.09302083333333329,-0.13425925925925927],[-0.11552083333333331,-0.07592592592592592],[-0.15291666666666662,-0.11388888888888889],[-0.15291666666666662,-0.11388888888888889],[-0.19031250000000005,-0.15185185185185185],[-0.16510416666666666,-0.23555555555555555],[-0.15354166666666663,-0.2803703703703703],[-0.14114583333333333,-0.334074074074074],[-0.14874999999999997,-0.357962962962963],[-0.16656249999999997,-0.36925925925925923],[-0.16656249999999997,-0.36925925925925923],[-0.1788541666666667,-0.3866666666666667],[-0.10281250000000004,-0.42685185185185187],[-0.04125000000000002,-0.5201851851851852],[-0.012187500000000047,-0.4903703703703704],[0.007708333333333309,-0.4766666666666666],[0.007708333333333309,-0.4766666666666666],[0.009583333333333381,-0.40907407407407403],[0.000833333333333286,-0.3888888888888889],[-0.00791666666666669,-0.3405555555555555],[-0.00791666666666669,-0.3405555555555555],[0.00791666666666669,-0.33796296296296297],[0.02374999999999995,-0.33537037037037043],[0.02354166666666669,-0.33907407407407414],[0.021354166666666667,-0.25833333333333336],[0.01906249999999995,-0.1933333333333333],[0.034687499999999954,-0.16592592592592598],[0.08395833333333323,-0.13629629629629633],[0.08395833333333323,-0.13629629629629633],[0.07791666666666662,-0.11351851851851855],[0.0818749999999999,-0.06777777777777783],[0.11833333333333323,-0.06944444444444445],[0.1258333333333333,-0.04981481481481477],[0.134375,-0.03222222222222218],[0.18260416666666662,-0.004444444444444402],[0.1984375,-0.03537037037037041],[0.15979166666666675,-0.004814814814814857],[0.16739583333333338,-0.0001851851851852273],[0.1265625,0.040370370370370286],[0.12822916666666656,0.0198148148148149],[0.12822916666666656,0.0198148148148149],[0.12729166666666672,-0.03462962962962971],[0.12312500000000005,-0.04759259259259268],[0.14833333333333343,-0.0198148148148149],[0.17760416666666667,0.012592592592592508],[0.15656249999999997,0.04796296296296292],[0.13552083333333323,0.08333333333333333],[0.1853125000000001,0.08037037037037033],[0.17927083333333324,0.11333333333333341],[0.18270833333333342,0.11148148148148157],[0.18114583333333342,0.1257407407407407],[0.17000000000000004,0.19666666666666674],[0.17000000000000004,0.19666666666666674],[0.19093749999999995,0.22870370370370371],[0.21906249999999997,0.23351851851851857]]","[[0.09635416666666667,-0.03481481481481473,0.00019999998807662678],[0.09635416666666667,-0.03481481481481473,0.03869999998808282],[0.09322916666666667,-0.03888888888888889,0.048500000000004206],[0.09937500000000009,-0.03944444444444436,0.06630000001192116],[0.07020833333333343,-0.014074074074074116,0.08339999997615877],[0.04635416666666667,0.01722222222222214,0.09969999998808277],[0.04635416666666667,0.01722222222222214,0.11200000000000188],[0.022500000000000023,0.0485185185185186,0.12869999998807913],[0.03291666666666669,0.03370370370370379,0.14889999997615888],[0.023958333333333335,0.010370370370370412,0.1658000000119202],[0.036666666666666715,-0.018518518518518517,0.18319999998808356],[0.04635416666666667,-0.03129629629629625,0.19969999998807708],[0.065625,-0.04259259259259259,0.21589999997615905],[0.04750000000000002,-0.05129629629629638,0.23209999996424102],[0.06364583333333336,-0.04055555555555551,0.25080000001192104],[0.06364583333333336,-0.04055555555555551,0.26200000000000045],[0.06333333333333328,-0.06648148148148143,0.2785999999642357],[0.08093750000000005,-0.0787037037037037,0.2961999999880831],[0.0974999999999999,-0.07888888888888893,0.3136999999880814],[0.09281249999999991,-0.05851851851851856,0.3328999999761564],[0.07822916666666657,-0.06425925925925924,0.3500000000000014],[0.06364583333333336,-0.07000000000000002,0.3650999999642366],[0.0671875,-0.08407407407407404,0.38219999998808163],[0.0678124999999999,-0.075,0.3984999999999985],[0.09645833333333324,-0.09500000000000001,0.41509999996424085],[0.09354166666666662,-0.12370370370370372,0.43130000001192315],[0.0912499999999999,-0.13055555555555556,0.45069999998808186],[0.0912499999999999,-0.13055555555555556,0.46189999997616127],[0.07104166666666671,-0.15111111111111114,0.47869999998808055],[0.06208333333333336,-0.16648148148148145,0.4953999999761578],[0.06916666666666677,-0.18333333333333332,0.5123999999761608],[0.07364583333333338,-0.14685185185185187,0.5320999999642382],[0.1099999999999999,-0.10907407407407403,0.5500999999642389],[0.12041666666666657,-0.07999999999999997,0.5664999999999978],[0.12041666666666657,-0.07999999999999997,0.578699999988082],[0.10843749999999991,-0.04000000000000004,0.5953000000119246],[0.11166666666666672,0.013703703703703662,0.6118999999761598],[0.058645833333333286,0.036481481481481566,0.6285999999642371],[0.019791666666666666,0.06314814814814819,0.6456999999880821],[0.019791666666666666,0.06314814814814819,0.661999999999999],[0.004270833333333357,0.10407407407407415,0.6785999999642414],[-0.02781250000000005,0.11185185185185181,0.6963000000119237],[-0.06666666666666667,0.15611111111111103,0.7158000000119245],[-0.09604166666666672,0.1742592592592593,0.7333000000119227],[-0.15187499999999995,0.17444444444444454,0.7498000000119234],[-0.196875,0.17555555555555546,0.766899999976161],[-0.196875,0.17555555555555546,0.7786999999880777],[-0.21354166666666666,0.13537037037037042,0.7953999999761621],[-0.21354166666666666,0.13537037037037042,0.8118999999761627],[-0.2869791666666667,0.1242592592592593,0.8290999999642352],[-0.2773958333333333,0.11962962962962967,0.8473999999761617],[-0.2773958333333333,0.11962962962962967,0.8620000000000019],[-0.2678125,0.11500000000000005,0.8785999999642371],[-0.31489583333333326,0.07037037037037037,0.8951999999880798],[-0.35562499999999997,0.041666666666666664,0.911999999999999],[-0.3497916666666666,0.020185185185185143,0.9298999999761577],[-0.3497916666666666,0.020185185185185143,0.9453000000119189],[-0.349375,0,0.9620000000000033],[-0.3307291666666667,-0.003703703703703704,0.9785999999642385],[-0.2891666666666667,-0.017592592592592594,0.999300000011921],[-0.25354166666666667,-0.0011111111111111532,1.0156999999880796],[-0.19395833333333337,-0.01722222222222214,1.0328000000119246],[-0.17843749999999994,-0.013518518518518435,1.0495999999642365],[-0.16291666666666665,-0.009814814814814731,1.0663999999761558],[-0.16291666666666665,-0.009814814814814731,1.078699999988082],[-0.07687499999999996,0.04055555555555551,1.0953000000119246],[0.0234375,0.058703703703703786,1.1123000000119205],[0.08395833333333323,0.03314814814814811,1.1305999999642395],[0.08395833333333323,0.03314814814814811,1.1451999999880798],[0.15343749999999995,0.01777777777777782,1.161999999999999],[0.19947916666666668,0.006296296296296254,1.1790999999642366],[0.19791666666666666,0.014074074074074116,1.196800000011919],[0.20208333333333334,0.03166666666666671,1.2163000000119197],[0.23510416666666673,0.04055555555555551,1.232300000011925],[0.2759375000000001,0.04462962962962967,1.249899999976158],[0.3178124999999999,0.046481481481481526,1.2673000000119217],[0.32447916666666665,0.04333333333333329,1.2830000000000013],[0.32156250000000003,0.07148148148148152,1.2980999999642364],[0.3186458333333334,0.09962962962962954,1.313899999976158],[0.2742708333333333,0.11925925925925922,1.3329999999999984],[0.2742708333333333,0.11925925925925922,1.3453000000119246],[0.2296875,0.13518518518518519,1.3620000000000019],[0.19989583333333344,0.1557407407407408,1.378599999964237],[0.15489583333333337,0.1418518518518519,1.3961999999880774],[0.15489583333333337,0.1418518518518519,1.411899999976157],[0.10166666666666657,0.11537037037037029,1.4285999999642414],[0.058229166666666644,0.1007407407407407,1.4455999999642373],[-0.021979166666666692,0.10907407407407403,1.4620000000000033],[-0.021979166666666692,0.10907407407407403,1.4785999999642385],[-0.10416666666666667,0.1014814814814814,1.4953999999761578],[-0.18999999999999997,0.09722222222222222,1.5118999999761584],[-0.23406250000000003,0.11629629629629622,1.5309999999999988],[-0.23406250000000003,0.11629629629629622,1.5488999999761575],[-0.23083333333333336,0.12222222222222222,1.5618999999761627],[-0.24375,0.12777777777777777,1.5793000000119193],[-0.2467708333333333,0.11962962962962967,1.5960000000000036],[-0.2467708333333333,0.11962962962962967,1.6120000000000019],[-0.22062499999999996,0.10129629629629638,1.628599999964237],[-0.20729166666666668,0.16870370370370374,1.6461999999880774],[-0.1998958333333333,0.1948148148148149,1.665899999976162],[-0.1998958333333333,0.1948148148148149,1.6786999999880834],[-0.16656249999999997,0.18055555555555555,1.695300000011919],[-0.13322916666666665,0.16629629629629622,1.7120000000000033],[-0.10864583333333329,0.18611111111111112,1.7315999999642386],[-0.10864583333333329,0.18611111111111112,1.7540999999642395],[-0.1258333333333333,0.18259259259259264,1.7713000000119195],[-0.1258333333333333,0.18259259259259264,1.7815000000000012],[-0.1530208333333333,0.16574074074074074,1.795399999976162],[-0.1530208333333333,0.16574074074074074,1.8119999999999976],[-0.1498958333333333,0.11629629629629622,1.828800000011924],[-0.1326041666666666,0.08499999999999996,1.8451999999880826],[-0.146875,0.1124074074074075,1.8620999999642365],[-0.13406250000000006,0.0698148148148149,1.878599999964237],[-0.15135416666666662,0.07148148148148152,1.8981999999880799],[-0.11124999999999995,0.12462962962962955,1.911999999999999],[-0.08093750000000005,0.18055555555555555,1.92889999997616],[0.0013541666666666192,0.1838888888888888,1.9456999999880793],[0.08166666666666676,0.17185185185185176,1.9623999999761566],[0.15968749999999995,0.18703703703703703,1.9785999999642385],[0.22385416666666677,0.25500000000000006,1.9951999999880812],[0.25812499999999994,0.3103703703703704,2.0118999999761584],[0.25812499999999994,0.3103703703703704,2.0285999999642357],[0.3030208333333334,0.33851851851851844,2.0453000000119204],[0.34229166666666655,0.34981481481481475,2.0618999999761627],[0.40385416666666674,0.3911111111111112,2.07859999996424],[0.40385416666666674,0.3911111111111112,2.0953000000119246],[0.4178124999999999,0.4005555555555555,2.11189999997616],[0.44510416666666663,0.4024074074074073,2.128599999964237],[0.43947916666666675,0.43074074074074076,2.145300000011922],[0.43947916666666675,0.43074074074074076,2.161999999999999],[0.4118750000000001,0.45129629629629636,2.1785999999642414],[0.4118750000000001,0.45129629629629636,2.195300000011919],[0.4178124999999999,0.4762962962962964,2.2120000000000033],[0.41302083333333334,0.4777777777777778,2.228500000000004],[0.42249999999999993,0.4837037037037038,2.2463999999761626],[0.4234375,0.4722222222222222,2.2618999999761584],[0.42291666666666666,0.4853703703703704,2.2785999999642357],[0.4359375,0.4514814814814814,2.2953000000119204],[0.4319791666666667,0.44351851851851853,2.3128999999761604],[0.4045833333333334,0.4300000000000001,2.328699999988082],[0.38937499999999997,0.3838888888888888,2.3451999999880826],[0.39812500000000006,0.3609259259259259,2.362800000011923],[0.3502083333333334,0.3303703703703703,2.3795999999642348],[0.3412499999999999,0.3122222222222223,2.395300000011922],[0.3011458333333332,0.28055555555555556,2.411899999976157],[0.2712500000000001,0.26370370370370366,2.4346999999880836],[0.2712500000000001,0.26370370370370366,2.445199999988077],[0.2321875000000001,0.26796296296296307,2.4618999999761613],[0.18166666666666675,0.27259259259259266,2.4785999999642385],[0.1646874999999999,0.2579629629629629,2.495300000011923],[0.16760416666666675,0.2537037037037037,2.5118999999761584],[0.1336458333333333,0.22555555555555548,2.5285999999642357],[0.09208333333333343,0.2,2.545399999976162],[0.06229166666666662,0.18370370370370379,2.566899999976158],[0.04208333333333331,0.20259259259259255,2.582399999976161],[0.058958333333333356,0.20259259259259255,2.5975999999642383],[0.06302083333333333,0.21999999999999992,2.61189999997616],[0.06302083333333333,0.21999999999999992,2.628599999964237],[0.09635416666666667,0.19499999999999992,2.645300000011922],[0.09270833333333334,0.13555555555555565,2.661899999976157],[0.06614583333333333,0.05907407407407403,2.6785999999642414],[0.036666666666666715,-0.01055555555555564,2.6955000000000027],[0.03302083333333338,0.008888888888888804,2.7140999999642403],[0.03697916666666667,0.0257407407407407,2.7285999999642385],[0.050416666666666644,0.03851851851851843,2.745300000011923],[0.011458333333333333,0.004814814814814857,2.762399999976161],[0.011458333333333333,0.004814814814814857,2.7785999999642357],[-0.009062500000000048,-0.018703703703703747,2.7953000000119204],[-0.04802083333333336,-0.07759259259259255,2.816199999988079],[-0.10656249999999995,-0.10018518518518522,2.8318999999761587],[-0.12447916666666667,-0.08555555555555554,2.847999999999999],[-0.14343750000000005,-0.0492592592592593,2.862000000000002],[-0.15958333333333338,-0.03518518518518519,2.878599999964237],[-0.18822916666666673,-0.06407407407407412,2.895300000011922],[-0.18822916666666673,-0.06407407407407412,2.911899999976157],[-0.21687500000000004,-0.09296296296296294,2.9286999999880834],[-0.2127083333333334,-0.14148148148148143,2.945199999988077],[-0.23083333333333336,-0.1757407407407407,2.9618999999761613],[-0.23083333333333336,-0.1757407407407407,2.9785999999642385],[-0.271875,-0.1977777777777778,2.995300000011923],[-0.2557291666666667,-0.18462962962962962,3.0120000000000005],[-0.25843750000000004,-0.20333333333333337,3.0285999999642357],[-0.25843750000000004,-0.20333333333333337,3.0453000000119204],[-0.2534374999999999,-0.21351851851851855,3.0618999999761627],[-0.20572916666666666,-0.19944444444444442,3.078699999988082],[-0.16000000000000003,-0.15555555555555556,3.0953000000119246],[-0.11677083333333335,-0.11648148148148144,3.116500000000002],[-0.06343749999999998,-0.08129629629629626,3.1315000000000026],[-0.06343749999999998,-0.08129629629629626,3.1453999999761564],[-0.015312500000000047,-0.04351851851851852,3.161999999999999],[-0.015312500000000047,-0.04351851851851852,3.1785999999642414],[0.034687499999999954,-0.0003703703703704546,3.195300000011919],[0.0821875000000001,0.04722222222222222,3.212300000011922],[0.10333333333333337,0.08351851851851856,3.2319999999999993],[0.12979166666666658,0.10055555555555547,3.2503000000119187],[0.12979166666666658,0.10055555555555547,3.2620000000000005],[0.15625,0.1175925925925926,3.2785999999642357],[0.15791666666666657,0.1316666666666667,3.2951999999880783],[0.1616666666666667,0.13129629629629624,3.3125],[0.1929166666666667,0.09888888888888885,3.3298000000119217],[0.22083333333333333,0.08888888888888889,3.3473999999761617],[0.19114583333333332,0.10444444444444441,3.3620999999642365],[0.19281249999999991,0.09037037037037028,3.378599999964237],[0.190625,0.07833333333333325,3.3995000000000033],[0.17979166666666657,0.07833333333333325,3.414999999999999],[0.17354166666666657,0.08851851851851844,3.4298999999761577],[0.16729166666666656,0.09870370370370361,3.4458000000119213],[0.14406249999999995,0.06962962962962967,3.4663999999761614],[0.12302083333333323,0.07333333333333338,3.4833000000119227],[0.09145833333333328,0.11833333333333329,3.4994999999999976],[0.03958333333333333,0.08259259259259263,3.5211999999880774],[0.03958333333333333,0.08259259259259263,3.5288000000119197],[0.019687499999999976,0.05481481481481486,3.545500000000004],[0.017916666666666713,0.02759259259259255,3.564699999988079],[0.010625000000000048,-0.015555555555555513,3.5829999999999984],[0.003333333333333381,-0.06555555555555552,3.598699999988078],[0.013229166666666714,-0.08185185185185183,3.612800000011923],[0.005104166666666643,-0.09518518518518514,3.628699999988079],[0.022708333333333285,-0.1190740740740741,3.6505999999642356],[0.022708333333333285,-0.1190740740740741,3.6620999999642407],[0.0037500000000000237,-0.17370370370370372,3.6786999999880834],[0.0012500000000000473,-0.22333333333333338,3.695300000011919],[0.01229166666666662,-0.21074074074074076,3.7154999999999987],[0.01229166666666662,-0.21074074074074076,3.728500000000004],[0.010520833333333358,-0.19222222222222224,3.745300000011923],[-0.0016666666666666904,-0.1794444444444444,3.763199999988082],[-0.0016666666666666904,-0.1794444444444444,3.7785999999642357],[-0.002812500000000047,-0.14833333333333337,3.7953000000119204],[-0.007395833333333357,-0.13037037037037033,3.8155],[-0.02354166666666669,-0.13444444444444448,3.83159999996424],[-0.02166666666666662,-0.14148148148148143,3.8493000000119224],[-0.02166666666666662,-0.14148148148148143,3.8620999999642365],[-0.09302083333333329,-0.13425925925925927,3.8785000000000025],[-0.11552083333333331,-0.07592592592592592,3.89969999998808],[-0.15291666666666662,-0.11388888888888889,3.914500000000004],[-0.15291666666666662,-0.11388888888888889,3.9285999999642414],[-0.19031250000000005,-0.15185185185185185,3.945300000011919],[-0.16510416666666666,-0.23555555555555555,3.9626999999880823],[-0.15354166666666663,-0.2803703703703703,3.9785999999642385],[-0.14114583333333333,-0.334074074074074,4.000599999964237],[-0.14874999999999997,-0.357962962962963,4.016199999988082],[-0.16656249999999997,-0.36925925925925923,4.03519999998808],[-0.16656249999999997,-0.36925925925925923,4.045399999976162],[-0.1788541666666667,-0.3866666666666667,4.062099999964239],[-0.10281250000000004,-0.42685185185185187,4.079599999964238],[-0.04125000000000002,-0.5201851851851852,4.098300000011925],[-0.012187500000000047,-0.4903703703703704,4.1128999999761575],[0.007708333333333309,-0.4766666666666666,4.134399999976161],[0.007708333333333309,-0.4766666666666666,4.149500000000003],[0.009583333333333381,-0.40907407407407403,4.162099999964241],[0.000833333333333286,-0.3888888888888889,4.178699999988083],[-0.00791666666666669,-0.3405555555555555,4.202599999964235],[-0.00791666666666669,-0.3405555555555555,4.212000000000003],[0.00791666666666669,-0.33796296296296297,4.228800000011923],[0.02374999999999995,-0.33537037037037043,4.246199999988079],[0.02354166666666669,-0.33907407407407414,4.263199999988082],[0.021354166666666667,-0.25833333333333336,4.283599999964238],[0.01906249999999995,-0.1933333333333333,4.2996999999880785],[0.034687499999999954,-0.16592592592592598,4.316499999999998],[0.08395833333333323,-0.13629629629629633,4.33569999998808],[0.08395833333333323,-0.13629629629629633,4.345300000011925],[0.07791666666666662,-0.11351851851851855,4.36189999997616],[0.0818749999999999,-0.06777777777777783,4.378599999964237],[0.11833333333333323,-0.06944444444444445,4.395300000011922],[0.1258333333333333,-0.04981481481481477,4.411999999999999],[0.134375,-0.03222222222222218,4.4285],[0.18260416666666662,-0.004444444444444402,4.445399999976161],[0.1984375,-0.03537037037037041,4.461899999976161],[0.15979166666666675,-0.004814814814814857,4.4785999999642385],[0.16739583333333338,-0.0001851851851852273,4.495199999988081],[0.1265625,0.040370370370370286,4.511899999976158],[0.12822916666666656,0.0198148148148149,4.528599999964236],[0.12822916666666656,0.0198148148148149,4.545199999988078],[0.12729166666666672,-0.03462962962962971,4.561899999976163],[0.12312500000000005,-0.04759259259259268,4.57859999996424],[0.14833333333333343,-0.0198148148148149,4.595599999964236],[0.17760416666666667,0.012592592592592508,4.6123000000119205],[0.15656249999999997,0.04796296296296292,4.628599999964237],[0.13552083333333323,0.08333333333333333,4.64519999998808],[0.1853125000000001,0.08037037037037033,4.661999999999999],[0.17927083333333324,0.11333333333333341,4.68339999997616],[0.18270833333333342,0.11148148148148157,4.700000000000003],[0.18114583333333342,0.1257407407407407,4.716199999988078],[0.17000000000000004,0.19666666666666674,4.731500000000004],[0.17000000000000004,0.19666666666666674,4.745300000011923],[0.19093749999999995,0.22870370370370371,4.7620000000000005],[0.21906249999999997,0.23351851851851857,4.783399999976162]]","[0.00019999998807662678,0.03869999998808282,0.048500000000004206,0.06630000001192116,0.08339999997615877,0.09969999998808277,0.11200000000000188,0.12869999998807913,0.14889999997615888,0.1658000000119202,0.18319999998808356,0.19969999998807708,0.21589999997615905,0.23209999996424102,0.25080000001192104,0.26200000000000045,0.2785999999642357,0.2961999999880831,0.3136999999880814,0.3328999999761564,0.3500000000000014,0.3650999999642366,0.38219999998808163,0.3984999999999985,0.41509999996424085,0.43130000001192315,0.45069999998808186,0.46189999997616127,0.47869999998808055,0.4953999999761578,0.5123999999761608,0.5320999999642382,0.5500999999642389,0.5664999999999978,0.578699999988082,0.5953000000119246,0.6118999999761598,0.6285999999642371,0.6456999999880821,0.661999999999999,0.6785999999642414,0.6963000000119237,0.7158000000119245,0.7333000000119227,0.7498000000119234,0.766899999976161,0.7786999999880777,0.7953999999761621,0.8118999999761627,0.8290999999642352,0.8473999999761617,0.8620000000000019,0.8785999999642371,0.8951999999880798,0.911999999999999,0.9298999999761577,0.9453000000119189,0.9620000000000033,0.9785999999642385,0.999300000011921,1.0156999999880796,1.0328000000119246,1.0495999999642365,1.0663999999761558,1.078699999988082,1.0953000000119246,1.1123000000119205,1.1305999999642395,1.1451999999880798,1.161999999999999,1.1790999999642366,1.196800000011919,1.2163000000119197,1.232300000011925,1.249899999976158,1.2673000000119217,1.2830000000000013,1.2980999999642364,1.313899999976158,1.3329999999999984,1.3453000000119246,1.3620000000000019,1.378599999964237,1.3961999999880774,1.411899999976157,1.4285999999642414,1.4455999999642373,1.4620000000000033,1.4785999999642385,1.4953999999761578,1.5118999999761584,1.5309999999999988,1.5488999999761575,1.5618999999761627,1.5793000000119193,1.5960000000000036,1.6120000000000019,1.628599999964237,1.6461999999880774,1.665899999976162,1.6786999999880834,1.695300000011919,1.7120000000000033,1.7315999999642386,1.7540999999642395,1.7713000000119195,1.7815000000000012,1.795399999976162,1.8119999999999976,1.828800000011924,1.8451999999880826,1.8620999999642365,1.878599999964237,1.8981999999880799,1.911999999999999,1.92889999997616,1.9456999999880793,1.9623999999761566,1.9785999999642385,1.9951999999880812,2.0118999999761584,2.0285999999642357,2.0453000000119204,2.0618999999761627,2.07859999996424,2.0953000000119246,2.11189999997616,2.128599999964237,2.145300000011922,2.161999999999999,2.1785999999642414,2.195300000011919,2.2120000000000033,2.228500000000004,2.2463999999761626,2.2618999999761584,2.2785999999642357,2.2953000000119204,2.3128999999761604,2.328699999988082,2.3451999999880826,2.362800000011923,2.3795999999642348,2.395300000011922,2.411899999976157,2.4346999999880836,2.445199999988077,2.4618999999761613,2.4785999999642385,2.495300000011923,2.5118999999761584,2.5285999999642357,2.545399999976162,2.566899999976158,2.582399999976161,2.5975999999642383,2.61189999997616,2.628599999964237,2.645300000011922,2.661899999976157,2.6785999999642414,2.6955000000000027,2.7140999999642403,2.7285999999642385,2.745300000011923,2.762399999976161,2.7785999999642357,2.7953000000119204,2.816199999988079,2.8318999999761587,2.847999999999999,2.862000000000002,2.878599999964237,2.895300000011922,2.911899999976157,2.9286999999880834,2.945199999988077,2.9618999999761613,2.9785999999642385,2.995300000011923,3.0120000000000005,3.0285999999642357,3.0453000000119204,3.0618999999761627,3.078699999988082,3.0953000000119246,3.116500000000002,3.1315000000000026,3.1453999999761564,3.161999999999999,3.1785999999642414,3.195300000011919,3.212300000011922,3.2319999999999993,3.2503000000119187,3.2620000000000005,3.2785999999642357,3.2951999999880783,3.3125,3.3298000000119217,3.3473999999761617,3.3620999999642365,3.378599999964237,3.3995000000000033,3.414999999999999,3.4298999999761577,3.4458000000119213,3.4663999999761614,3.4833000000119227,3.4994999999999976,3.5211999999880774,3.5288000000119197,3.545500000000004,3.564699999988079,3.5829999999999984,3.598699999988078,3.612800000011923,3.628699999988079,3.6505999999642356,3.6620999999642407,3.6786999999880834,3.695300000011919,3.7154999999999987,3.728500000000004,3.745300000011923,3.763199999988082,3.7785999999642357,3.7953000000119204,3.8155,3.83159999996424,3.8493000000119224,3.8620999999642365,3.8785000000000025,3.89969999998808,3.914500000000004,3.9285999999642414,3.945300000011919,3.9626999999880823,3.9785999999642385,4.000599999964237,4.016199999988082,4.03519999998808,4.045399999976162,4.062099999964239,4.079599999964238,4.098300000011925,4.1128999999761575,4.134399999976161,4.149500000000003,4.162099999964241,4.178699999988083,4.202599999964235,4.212000000000003,4.228800000011923,4.246199999988079,4.263199999988082,4.283599999964238,4.2996999999880785,4.316499999999998,4.33569999998808,4.345300000011925,4.36189999997616,4.378599999964237,4.395300000011922,4.411999999999999,4.4285,4.445399999976161,4.461899999976161,4.4785999999642385,4.495199999988081,4.511899999976158,4.528599999964236,4.545199999988078,4.561899999976163,4.57859999996424,4.595599999964236,4.6123000000119205,4.628599999964237,4.64519999998808,4.661999999999999,4.68339999997616,4.700000000000003,4.716199999988078,4.731500000000004,4.745300000011923,4.7620000000000005,4.783399999976162]","[1733033830531,1733033830563,1733033830572,1733033830590,1733033830607,1733033830624,1733033830636,1733033830652,1733033830673,1733033830690,1733033830707,1733033830723,1733033830740,1733033830756,1733033830775,1733033830786,1733033830802,1733033830820,1733033830837,1733033830857,1733033830874,1733033830889,1733033830906,1733033830922,1733033830939,1733033830955,1733033830975,1733033830986,1733033831003,1733033831019,1733033831036,1733033831056,1733033831074,1733033831090,1733033831103,1733033831119,1733033831136,1733033831152,1733033831170,1733033831186,1733033831202,1733033831220,1733033831240,1733033831257,1733033831274,1733033831291,1733033831302,1733033831319,1733033831339,1733033831356,1733033831374,1733033831389,1733033831405,1733033831422,1733033831439,1733033831457,1733033831472,1733033831489,1733033831505,1733033831526,1733033831542,1733033831560,1733033831576,1733033831593,1733033831605,1733033831622,1733033831639,1733033831657,1733033831672,1733033831689,1733033831706,1733033831724,1733033831743,1733033831759,1733033831777,1733033831794,1733033831810,1733033831825,1733033831841,1733033831860,1733033831872,1733033831889,1733033831905,1733033831923,1733033831939,1733033831955,1733033831972,1733033831989,1733033832005,1733033832022,1733033832039,1733033832058,1733033832076,1733033832089,1733033832106,1733033832123,1733033832139,1733033832155,1733033832173,1733033832193,1733033832205,1733033832222,1733033832239,1733033832258,1733033832281,1733033832298,1733033832308,1733033832322,1733033832339,1733033832356,1733033832372,1733033832389,1733033832405,1733033832425,1733033832439,1733033832456,1733033832473,1733033832489,1733033832505,1733033832522,1733033832539,1733033832555,1733033832572,1733033832589,1733033832605,1733033832622,1733033832639,1733033832655,1733033832672,1733033832689,1733033832705,1733033832722,1733033832739,1733033832755,1733033832773,1733033832789,1733033832805,1733033832822,1733033832840,1733033832855,1733033832872,1733033832890,1733033832906,1733033832922,1733033832939,1733033832961,1733033832972,1733033832989,1733033833005,1733033833022,1733033833039,1733033833055,1733033833072,1733033833094,1733033833109,1733033833124,1733033833139,1733033833155,1733033833172,1733033833189,1733033833205,1733033833222,1733033833241,1733033833255,1733033833272,1733033833289,1733033833305,1733033833322,1733033833343,1733033833359,1733033833375,1733033833389,1733033833405,1733033833422,1733033833439,1733033833455,1733033833472,1733033833489,1733033833505,1733033833522,1733033833539,1733033833555,1733033833572,1733033833589,1733033833605,1733033833622,1733033833643,1733033833658,1733033833672,1733033833689,1733033833705,1733033833722,1733033833739,1733033833759,1733033833777,1733033833789,1733033833805,1733033833822,1733033833839,1733033833857,1733033833874,1733033833889,1733033833905,1733033833926,1733033833942,1733033833957,1733033833973,1733033833993,1733033834010,1733033834026,1733033834048,1733033834056,1733033834072,1733033834091,1733033834110,1733033834125,1733033834139,1733033834155,1733033834177,1733033834189,1733033834205,1733033834222,1733033834242,1733033834255,1733033834272,1733033834290,1733033834306,1733033834322,1733033834342,1733033834358,1733033834376,1733033834389,1733033834405,1733033834426,1733033834441,1733033834455,1733033834472,1733033834489,1733033834505,1733033834527,1733033834543,1733033834562,1733033834572,1733033834589,1733033834606,1733033834625,1733033834640,1733033834661,1733033834676,1733033834689,1733033834705,1733033834729,1733033834739,1733033834756,1733033834773,1733033834790,1733033834810,1733033834827,1733033834843,1733033834862,1733033834872,1733033834889,1733033834905,1733033834922,1733033834939,1733033834955,1733033834972,1733033834989,1733033835005,1733033835022,1733033835039,1733033835055,1733033835072,1733033835089,1733033835105,1733033835122,1733033835139,1733033835155,1733033835172,1733033835189,1733033835210,1733033835227,1733033835243,1733033835258,1733033835272,1733033835289,1733033835310]","[[1052.5,521.2],[1052.5,521.2],[1049.5,519],[1055.4,518.7],[1027.4,532.4],[1004.5,549.3],[1004.5,549.3],[981.6,566.2],[991.6,558.2],[983,545.6],[995.2,530],[1004.5,523.1],[1023,517],[1005.6,512.3],[1021.1,518.1],[1021.1,518.1],[1020.8,504.1],[1037.7,497.5],[1053.6,497.4],[1049.1,508.4],[1035.1,505.3],[1021.1,502.2],[1024.5,494.6],[1025.1,499.5],[1052.6,488.7],[1049.8,473.2],[1047.6,469.5],[1047.6,469.5],[1028.2,458.4],[1019.6,450.1],[1026.4,441],[1030.7,460.7],[1065.6,481.1],[1075.6,496.8],[1075.6,496.8],[1064.1,518.4],[1067.2,547.4],[1016.3,559.7],[979,574.1],[979,574.1],[964.1,596.2],[933.3,600.4],[896,624.3],[867.8,634.1],[814.2,634.2],[771,634.8],[771,634.8],[755,613.1],[755,613.1],[684.5,607.1],[693.7,604.6],[693.7,604.6],[702.9,602.1],[657.7,578],[618.6,562.5],[624.2,550.9],[624.2,550.9],[624.6,540],[642.5,538],[682.4,530.5],[716.6,539.4],[773.8,530.7],[788.7,532.7],[803.6,534.7],[803.6,534.7],[886.2,561.9],[982.5,571.7],[1040.6,557.9],[1040.6,557.9],[1107.3,549.6],[1151.5,543.4],[1150,547.6],[1154,557.1],[1185.7,561.9],[1224.9,564.1],[1265.1,565.1],[1271.5,563.4],[1268.7,578.6],[1265.9,593.8],[1223.3,604.4],[1223.3,604.4],[1180.5,613],[1151.9,624.1],[1108.7,616.6],[1108.7,616.6],[1057.6,602.3],[1015.9,594.4],[938.9,598.9],[938.9,598.9],[860,594.8],[777.6,592.5],[735.3,602.8],[735.3,602.8],[738.4,606],[726,609],[723.1,604.6],[723.1,604.6],[748.2,594.7],[761,631.1],[768.1,645.2],[768.1,645.2],[800.1,637.5],[832.1,629.8],[855.7,640.5],[855.7,640.5],[839.2,638.6],[839.2,638.6],[813.1,629.5],[813.1,629.5],[816.1,602.8],[832.7,585.9],[819,600.7],[831.3,577.7],[814.7,578.6],[853.2,607.3],[882.3,637.5],[961.3,639.3],[1038.4,632.8],[1113.3,641],[1174.9,677.7],[1207.8,707.6],[1207.8,707.6],[1250.9,722.8],[1288.6,728.9],[1347.7,751.2],[1347.7,751.2],[1361.1,756.3],[1387.3,757.3],[1381.9,772.6],[1381.9,772.6],[1355.4,783.7],[1355.4,783.7],[1361.1,797.2],[1356.5,798],[1365.6,801.2],[1366.5,795],[1366,802.1],[1378.5,783.8],[1374.7,779.5],[1348.4,772.2],[1333.8,747.3],[1342.2,734.9],[1296.2,718.4],[1287.6,708.6],[1249.1,691.5],[1220.4,682.4],[1220.4,682.4],[1182.9,684.7],[1134.4,687.2],[1118.1,679.3],[1120.9,677],[1088.3,661.8],[1048.4,648],[1019.8,639.2],[1000.4,649.4],[1016.6,649.4],[1020.5,658.8],[1020.5,658.8],[1052.5,645.3],[1049,613.2],[1023.5,571.9],[995.2,534.3],[991.7,544.8],[995.5,553.9],[1008.4,560.8],[971,542.6],[971,542.6],[951.3,529.9],[913.9,498.1],[857.7,485.9],[840.5,493.8],[822.3,513.4],[806.8,521],[779.3,505.4],[779.3,505.4],[751.8,489.8],[755.8,463.6],[738.4,445.1],[738.4,445.1],[699,433.2],[714.5,440.3],[711.9,430.2],[711.9,430.2],[716.7,424.7],[762.5,432.3],[806.4,456],[847.9,477.1],[899.1,496.1],[899.1,496.1],[945.3,516.5],[945.3,516.5],[993.3,539.8],[1038.9,565.5],[1059.2,585.1],[1084.6,594.3],[1084.6,594.3],[1110,603.5],[1111.6,611.1],[1115.2,610.9],[1145.2,593.4],[1172,588],[1143.5,596.4],[1145.1,588.8],[1143,582.3],[1132.6,582.3],[1126.6,587.8],[1120.6,593.3],[1098.3,577.6],[1078.1,579.6],[1047.8,603.9],[998,584.6],[998,584.6],[978.9,569.6],[977.2,554.9],[970.2,531.6],[963.2,504.6],[972.7,495.8],[964.9,488.6],[981.8,475.7],[981.8,475.7],[963.6,446.2],[961.2,419.4],[971.8,426.2],[971.8,426.2],[970.1,436.2],[958.4,443.1],[958.4,443.1],[957.3,459.9],[952.9,469.6],[937.4,467.4],[939.2,463.6],[939.2,463.6],[870.7,467.5],[849.1,499],[813.2,478.5],[813.2,478.5],[777.3,458],[801.5,412.8],[812.6,388.6],[824.5,359.6],[817.2,346.7],[800.1,340.6],[800.1,340.6],[788.3,331.2],[861.3,309.5],[920.4,259.1],[948.3,275.2],[967.4,282.6],[967.4,282.6],[969.2,319.1],[960.8,330],[952.4,356.1],[952.4,356.1],[967.6,357.5],[982.8,358.9],[982.6,356.9],[980.5,400.5],[978.3,435.6],[993.3,450.4],[1040.6,466.4],[1040.6,466.4],[1034.8,478.7],[1038.6,503.4],[1073.6,502.5],[1080.8,513.1],[1089,522.6],[1135.3,537.6],[1150.5,520.9],[1113.4,537.4],[1120.7,539.9],[1081.5,561.8],[1083.1,550.7],[1083.1,550.7],[1082.2,521.3],[1078.2,514.3],[1102.4,529.3],[1130.5,546.8],[1110.3,565.9],[1090.1,585],[1137.9,583.4],[1132.1,601.2],[1135.4,600.2],[1133.9,607.9],[1123.2,646.2],[1123.2,646.2],[1143.3,663.5],[1170.3,666.1]]","[0,0.37864299999999995]","[0.37864299999999995,0.37864299999999995]","[-0.37864299999999995,-0.37864299999999995]","[-0.37864299999999995,0]","[0,-0.37864299999999995]","[0.37864299999999995,-0.37864299999999995]","[0,0]","[0.37864299999999995,0]",0,0,0,0,1,3,Laptop,11,9,9,1
,,,,,,,,,,,,,,,,,,,,34,001,2024-12-01_14h16.30.254,Attention_exp_legacy,2023.1.0,Win32,59.88023952,,,,,,,,,,[0.022916666666666665],[0.3592592592592593],[1],[0],[0],[2.3786000000238374],"[""Option1_label""]",Option1_label,2,3.3829,"[[0.014583333333333334,0.22037037037037038],[0.014583333333333334,0.22037037037037038],[0.014583333333333334,0.22037037037037038],[0.014583333333333334,0.22037037037037038],[0.014583333333333334,0.22037037037037038],[0.014583333333333334,0.22037037037037038],[0.014583333333333334,0.22037037037037038],[0.014583333333333334,0.22037037037037038],[0.014583333333333334,0.22037037037037038],[0.014583333333333334,0.22037037037037038],[0.014583333333333334,0.22037037037037038],[0.014583333333333334,0.22037037037037038],[0.014583333333333334,0.22037037037037038],[0.014583333333333334,0.22037037037037038],[0.014583333333333334,0.22037037037037038],[0.014583333333333334,0.22037037037037038],[0.014583333333333334,0.22037037037037038],[0.014583333333333334,0.22037037037037038],[0.014583333333333334,0.22037037037037038],[0.014583333333333334,0.22037037037037038],[0.014583333333333334,0.22037037037037038],[0.014583333333333334,0.22037037037037038],[0.014583333333333334,0.22037037037037038],[0.014583333333333334,0.22037037037037038],[0.014583333333333334,0.22037037037037038],[0.014583333333333334,0.22037037037037038],[0.014583333333333334,0.22037037037037038],[0.014583333333333334,0.22037037037037038],[0.014583333333333334,0.22037037037037038],[0.014583333333333334,0.22037037037037038],[0.014583333333333334,0.22037037037037038],[0.014583333333333334,0.22037037037037038],[0.014583333333333334,0.22037037037037038],[0.014583333333333334,0.22037037037037038],[0.014583333333333334,0.22037037037037038],[0.014583333333333334,0.22037037037037038],[0.014583333333333334,0.22037037037037038],[0.014583333333333334,0.22037037037037038],[0.014583333333333334,0.22037037037037038],[0.014583333333333334,0.22037037037037038],[0.014583333333333334,0.22037037037037038],[0.014583333333333334,0.22037037037037038],[0.014583333333333334,0.22037037037037038],[0.014583333333333334,0.22037037037037038],[0.014583333333333334,0.22037037037037038],[0.014583333333333334,0.22037037037037038],[0.014583333333333334,0.22037037037037038],[0.014583333333333334,0.22037037037037038],[0.014583333333333334,0.22037037037037038],[0.014583333333333334,0.22037037037037038],[0.014583333333333334,0.22037037037037038],[0.014583333333333334,0.22037037037037038],[0.014583333333333334,0.22037037037037038],[0.014583333333333334,0.22037037037037038],[0.014583333333333334,0.22037037037037038],[0.014583333333333334,0.22037037037037038],[0.014583333333333334,0.22037037037037038],[0.014583333333333334,0.22037037037037038],[0.014583333333333334,0.22037037037037038],[0.014583333333333334,0.22037037037037038],[0.014583333333333334,0.22037037037037038],[0.014583333333333334,0.22037037037037038],[0.014583333333333334,0.22037037037037038],[0.014583333333333334,0.22037037037037038],[0.014583333333333334,0.22037037037037038],[0.014583333333333334,0.22037037037037038],[0.014583333333333334,0.22037037037037038],[0.014583333333333334,0.22037037037037038],[0.014583333333333334,0.22037037037037038],[0.014583333333333334,0.22037037037037038],[0.014583333333333334,0.22037037037037038],[0.014583333333333334,0.22037037037037038],[0.014583333333333334,0.22037037037037038],[0.014583333333333334,0.22037037037037038],[0.014583333333333334,0.22037037037037038],[0.014583333333333334,0.22037037037037038],[0.014583333333333334,0.22037037037037038],[0.014583333333333334,0.22037037037037038],[0.014583333333333334,0.22037037037037038],[0.014583333333333334,0.22037037037037038],[0.014583333333333334,0.22037037037037038],[0.014583333333333334,0.22037037037037038],[0.014583333333333334,0.22037037037037038],[0.014583333333333334,0.22037037037037038],[0.014583333333333334,0.22037037037037038],[0.014583333333333334,0.22037037037037038],[0.014583333333333334,0.22037037037037038],[0.014583333333333334,0.22037037037037038],[0.014583333333333334,0.22037037037037038],[0.011458333333333333,0.19814814814814816],[0.008333333333333333,0.1962962962962963],[0.008333333333333333,0.1962962962962963],[0.008333333333333333,0.1962962962962963],[0.008333333333333333,0.1962962962962963],[0.008333333333333333,0.1962962962962963],[0.008333333333333333,0.1962962962962963],[0.008333333333333333,0.1962962962962963],[0.008333333333333333,0.1962962962962963],[0.008333333333333333,0.1962962962962963],[0.008333333333333333,0.1962962962962963],[0.008333333333333333,0.1962962962962963],[0.008333333333333333,0.1962962962962963],[0.008333333333333333,0.1962962962962963],[0.008333333333333333,0.1962962962962963],[0.0010416666666666667,0.1962962962962963],[-0.020833333333333332,0.2074074074074074],[-0.020833333333333332,0.21296296296296297],[-0.020833333333333332,0.21296296296296297],[-0.020833333333333332,0.21296296296296297],[-0.020833333333333332,0.21481481481481482],[-0.020833333333333332,0.22037037037037038],[-0.01875,0.22962962962962963],[-0.017708333333333333,0.24074074074074073],[-0.015625,0.26666666666666666],[-0.013541666666666667,0.2962962962962963],[-0.010416666666666666,0.32222222222222224],[-0.008333333333333333,0.34814814814814815],[-0.005208333333333333,0.3685185185185185],[0.0010416666666666667,0.40185185185185185],[0.009375,0.44074074074074077],[0.014583333333333334,0.46111111111111114],[0.015625,0.4666666666666667],[0.016666666666666666,0.4685185185185185],[0.016666666666666666,0.4722222222222222],[0.016666666666666666,0.4722222222222222],[0.017708333333333333,0.4722222222222222],[0.017708333333333333,0.4722222222222222],[0.017708333333333333,0.4722222222222222],[0.017708333333333333,0.4722222222222222],[0.017708333333333333,0.4722222222222222],[0.01875,0.4722222222222222],[0.01875,0.4722222222222222],[0.01875,0.4703703703703704],[0.01875,0.4666666666666667],[0.01875,0.45740740740740743],[0.01875,0.4444444444444444],[0.019791666666666666,0.4222222222222222],[0.019791666666666666,0.40185185185185185],[0.020833333333333332,0.38333333333333336],[0.021875,0.37222222222222223],[0.021875,0.362962962962963],[0.022916666666666665,0.3592592592592593],[0.022916666666666665,0.3592592592592593],[0.022916666666666665,0.3592592592592593],[0.022916666666666665,0.3592592592592593],[0.022916666666666665,0.3592592592592593],[0.022916666666666665,0.3592592592592593],[0.022916666666666665,0.3592592592592593],[0.022916666666666665,0.3592592592592593],[0.022916666666666665,0.3592592592592593],[0.022916666666666665,0.3592592592592593],[0.022916666666666665,0.3592592592592593],[0.022916666666666665,0.3592592592592593],[0.022916666666666665,0.3592592592592593],[0.022916666666666665,0.3592592592592593],[0.022916666666666665,0.3592592592592593],[0.022916666666666665,0.3592592592592593],[0.022916666666666665,0.3592592592592593],[0.022916666666666665,0.3592592592592593],[0.022916666666666665,0.3592592592592593],[0.022916666666666665,0.3592592592592593],[0.022916666666666665,0.3592592592592593],[0.022916666666666665,0.3592592592592593],[0.022916666666666665,0.3592592592592593],[0.022916666666666665,0.3592592592592593],[0.022916666666666665,0.3592592592592593],[0.022916666666666665,0.3592592592592593],[0.022916666666666665,0.3592592592592593],[0.022916666666666665,0.3592592592592593],[0.022916666666666665,0.3592592592592593],[0.022916666666666665,0.3592592592592593],[0.022916666666666665,0.3592592592592593],[0.022916666666666665,0.3592592592592593],[0.022916666666666665,0.3592592592592593],[0.022916666666666665,0.3592592592592593],[0.022916666666666665,0.3592592592592593],[0.022916666666666665,0.3592592592592593],[0.022916666666666665,0.3592592592592593],[0.022916666666666665,0.3592592592592593],[0.022916666666666665,0.3592592592592593],[0.022916666666666665,0.3592592592592593],[0.022916666666666665,0.3592592592592593],[0.022916666666666665,0.3592592592592593],[0.022916666666666665,0.3592592592592593],[0.022916666666666665,0.3592592592592593],[0.022916666666666665,0.3592592592592593],[0.022916666666666665,0.3592592592592593],[0.022916666666666665,0.3592592592592593],[0.022916666666666665,0.3592592592592593],[0.022916666666666665,0.3592592592592593],[0.022916666666666665,0.3592592592592593],[0.022916666666666665,0.3592592592592593],[0.022916666666666665,0.3592592592592593],[0.022916666666666665,0.3592592592592593],[0.022916666666666665,0.3592592592592593],[0.022916666666666665,0.3592592592592593],[0.022916666666666665,0.3592592592592593],[0.022916666666666665,0.3592592592592593],[0.022916666666666665,0.3592592592592593],[0.022916666666666665,0.3592592592592593],[0.022916666666666665,0.3592592592592593],[0.022916666666666665,0.3592592592592593],[0.022916666666666665,0.3592592592592593],[0.022916666666666665,0.3592592592592593]]","[[0.1352083333333333,-0.08703703703703704],[0.1352083333333333,-0.08703703703703704],[0.12666666666666657,-0.14240740740740737],[0.12666666666666657,-0.14240740740740737],[0.12427083333333329,-0.15981481481481483],[0.12000000000000005,-0.17925925925925928],[0.11802083333333328,-0.1648148148148148],[0.12218749999999995,-0.17185185185185187],[0.10020833333333339,-0.1742592592592593],[0.10020833333333339,-0.1742592592592593],[0.14541666666666658,-0.19814814814814816],[0.14541666666666658,-0.19814814814814816],[0.16906249999999995,-0.18574074074074076],[0.17541666666666675,-0.17333333333333337],[0.16708333333333342,-0.14351851851851852],[0.16708333333333342,-0.14351851851851852],[0.18083333333333323,-0.11740740740740736],[0.18718750000000003,-0.10444444444444441],[0.18364583333333329,-0.10388888888888893],[0.17760416666666667,-0.11981481481481479],[0.17541666666666675,-0.11629629629629631],[0.20708333333333329,-0.11166666666666669],[0.19916666666666671,-0.09722222222222222],[0.2025000000000001,-0.1],[0.2150000000000001,-0.1014814814814815],[0.2228125000000001,-0.10129629629629627],[0.21052083333333324,-0.11703703703703702],[0.21052083333333324,-0.11703703703703702],[0.20562500000000009,-0.11962962962962967],[0.22489583333333343,-0.10888888888888891],[0.2365624999999999,-0.11888888888888886],[0.25,-0.1051851851851852],[0.2557291666666667,-0.09722222222222222],[0.2557291666666667,-0.09722222222222222],[0.27333333333333343,-0.08796296296296297],[0.25635416666666655,-0.10481481481481486],[0.2337500000000001,-0.10870370370370368],[0.2133333333333333,-0.09962962962962965],[0.21364583333333323,-0.0933333333333333],[0.18885416666666663,-0.09518518518518514],[0.1521874999999999,-0.10462962962962963],[0.11083333333333342,-0.08796296296296297],[0.08041666666666672,-0.1227777777777778],[0.027291666666666714,-0.12777777777777777],[-0.02822916666666669,-0.1698148148148148],[-0.04916666666666671,-0.18574074074074076],[-0.021145833333333287,-0.17407407407407408],[-0.0036458333333333334,-0.17685185185185184],[-0.04052083333333331,-0.19314814814814818],[-0.051041666666666666,-0.202962962962963],[-0.051770833333333384,-0.20685185185185184],[-0.02364583333333338,-0.20666666666666672],[0.013125000000000024,-0.1653703703703704],[0.07260416666666672,-0.15388888888888894],[0.07260416666666672,-0.15388888888888894],[0.12052083333333338,-0.09092592592592597],[0.12052083333333338,-0.09092592592592597],[0.18177083333333333,-0.036481481481481566],[0.16614583333333333,-0.028888888888888933],[0.16614583333333333,-0.028888888888888933],[0.15583333333333324,-0.01444444444444436],[0.15583333333333324,-0.01444444444444436],[0.20062499999999991,0.020185185185185143],[0.24927083333333327,0.05685185185185194],[0.2834374999999999,0.07814814814814823],[0.3234375,0.07074074074074083],[0.30531249999999993,0.0544444444444444],[0.28104166666666663,0.062037037037037036],[0.28104166666666663,0.062037037037037036],[0.28395833333333326,0.03333333333333333],[0.2569791666666667,0.04592592592592584],[0.2547916666666666,0.06555555555555552],[0.2591666666666666,0.07981481481481485],[0.24749999999999991,0.10740740740740741],[0.20187499999999994,0.10055555555555547],[0.16885416666666658,0.08981481481481482],[0.09052083333333343,0.1007407407407407],[0.04020833333333336,0.1307407407407408],[-0.0046875,0.12814814814814823],[-0.07854166666666665,0.14074074074074075],[-0.1358333333333333,0.1205555555555556],[-0.1358333333333333,0.1205555555555556],[-0.1632291666666667,0.05277777777777778],[-0.21531250000000005,0.09259259259259259],[-0.21531250000000005,0.09259259259259259],[-0.2361458333333334,0.0992592592592593],[-0.22322916666666662,0.15833333333333333],[-0.2295833333333333,0.17925925925925917],[-0.22531249999999994,0.19203703703703712],[-0.22854166666666664,0.20666666666666672],[-0.22854166666666664,0.20666666666666672],[-0.2029166666666666,0.17518518518518522],[-0.16843750000000005,0.22592592592592592],[-0.16843750000000005,0.22592592592592592],[-0.12135416666666667,0.2301851851851851],[-0.11489583333333328,0.3077777777777779],[-0.07947916666666661,0.2551851851851851],[-0.07666666666666669,0.20796296296296288],[-0.0640625,0.15481481481481485],[-0.04010416666666667,0.15314814814814823],[-0.036249999999999956,0.14444444444444443],[-0.036249999999999956,0.14444444444444443],[-0.024166666666666715,0.1235185185185186],[-0.0013541666666666192,0.12814814814814823],[0.04208333333333331,0.052407407407407326],[0.04208333333333331,0.052407407407407326],[0.03114583333333331,0.06796296296296304],[0.07510416666666657,0.1081481481481481],[0.11124999999999995,0.17092592592592584],[0.11124999999999995,0.17092592592592584],[0.13291666666666657,0.1603703703703704],[0.14729166666666677,0.19000000000000003],[0.12666666666666657,0.2294444444444444],[0.12666666666666657,0.2294444444444444],[0.1603125000000001,0.2272222222222223],[0.19197916666666662,0.21388888888888888],[0.19041666666666662,0.22592592592592592],[0.19041666666666662,0.22592592592592592],[0.17072916666666677,0.23759259259259252],[0.17072916666666677,0.23759259259259252],[0.1658333333333334,0.1866666666666666],[0.1658333333333334,0.1866666666666666],[0.11593749999999996,0.0772222222222223],[0.08520833333333329,-0.02240740740740745],[0.08562500000000005,-0.04092592592592597],[0.08562500000000005,-0.04092592592592597],[0.08708333333333323,-0.11500000000000005],[0.11864583333333342,-0.19962962962962966],[0.11604166666666677,-0.23555555555555555],[0.10593750000000005,-0.2903703703703704],[0.09020833333333324,-0.3412962962962963],[0.09020833333333324,-0.3412962962962963],[0.08614583333333338,-0.4374074074074074],[0.10583333333333324,-0.452962962962963],[0.12947916666666662,-0.44814814814814813],[0.12947916666666662,-0.44814814814814813],[0.14791666666666667,-0.4559259259259259],[0.13614583333333338,-0.5005555555555555],[0.10385416666666672,-0.5370370370370371],[0.06479166666666672,-0.5796296296296296],[0.06312500000000003,-0.5694444444444444],[0.07885416666666671,-0.5544444444444444],[0.07885416666666671,-0.5544444444444444],[0.10208333333333333,-0.6059259259259259],[0.0931250000000001,-0.5866666666666667],[0.08739583333333342,-0.6301851851851852],[0.07687499999999996,-0.6157407407407407],[0.05239583333333329,-0.5985185185185184],[0.051874999999999956,-0.5842592592592593],[0.06343749999999998,-0.5751851851851852],[0.06343749999999998,-0.5751851851851852],[0.09500000000000004,-0.5631481481481482],[0.1009375000000001,-0.5546296296296296],[0.06822916666666666,-0.595925925925926],[0.03114583333333331,-0.5674074074074074],[-0.02687499999999995,-0.5987037037037037],[-0.05333333333333338,-0.5687037037037037],[-0.05302083333333331,-0.582962962962963],[-0.05302083333333331,-0.582962962962963],[-0.05270833333333336,-0.5972222222222222],[-0.07229166666666664,-0.5851851851851851],[-0.12000000000000005,-0.529074074074074],[-0.12000000000000005,-0.529074074074074],[-0.17604166666666668,-0.4690740740740741],[-0.20104166666666667,-0.4948148148148148],[-0.22208333333333338,-0.43129629629629623],[-0.22208333333333338,-0.43129629629629623],[-0.23343750000000002,-0.3787037037037037],[-0.2,-0.32388888888888884],[-0.22749999999999998,-0.3677777777777778],[-0.2760416666666667,-0.41351851851851856],[-0.2760416666666667,-0.4264814814814815],[-0.27697916666666667,-0.42296296296296293],[-0.25,-0.46296296296296297],[-0.17781250000000004,-0.49166666666666664],[-0.15270833333333336,-0.4301851851851852],[-0.1265625,-0.4335185185185186],[-0.07447916666666667,-0.4301851851851852],[-0.059791666666666646,-0.36574074074074076],[-0.059791666666666646,-0.36574074074074076],[0.01072916666666662,-0.2831481481481481],[0.01072916666666662,-0.2831481481481481],[0.06729166666666657,-0.21055555555555552],[0.09291666666666672,-0.17925925925925928],[0.14562499999999995,-0.15092592592592594],[0.1772916666666667,-0.12388888888888884],[0.16375000000000003,-0.1081481481481481],[0.16375000000000003,-0.1081481481481481],[0.1544791666666666,-0.14611111111111108],[0.17916666666666667,-0.16648148148148145],[0.1556250000000001,-0.21129629629629634],[0.17843749999999994,-0.28648148148148145],[0.15354166666666677,-0.28833333333333333],[0.15,-0.31555555555555553],[0.11177083333333329,-0.3153703703703704],[0.11177083333333329,-0.3153703703703704],[0.11333333333333329,-0.30037037037037034],[0.13614583333333338,-0.2846296296296296],[0.13624999999999995,-0.28203703703703703],[0.13624999999999995,-0.27814814814814814],[0.12260416666666671,-0.2455555555555556],[0.12260416666666671,-0.2455555555555556],[0.13604166666666656,-0.22240740740740744],[0.13604166666666656,-0.22240740740740744]]","[[0.1352083333333333,-0.08703703703703704,0.00019999998807662678],[0.1352083333333333,-0.08703703703703704,0.019300000011917007],[0.12666666666666657,-0.14240740740740737,0.03289999997615922],[0.12666666666666657,-0.14240740740740737,0.049600000023843904],[0.12427083333333329,-0.15981481481481483,0.06610000002384453],[0.12000000000000005,-0.17925925925925928,0.08310000002384044],[0.11802083333333328,-0.1648148148148148,0.10060000002383873],[0.12218749999999995,-0.17185185185185187,0.12019999998808117],[0.10020833333333339,-0.1742592592592593,0.1548000000119174],[0.10020833333333339,-0.1742592592592593,0.1653000000119178],[0.14541666666666658,-0.19814814814814816,0.17300000000000182],[0.14541666666666658,-0.19814814814814816,0.1828000000119232],[0.16906249999999995,-0.18574074074074076,0.19950000000000045],[0.17541666666666675,-0.17333333333333337,0.21630000001191974],[0.16708333333333342,-0.14351851851851852,0.23289999997615496],[0.16708333333333342,-0.14351851851851852,0.24960000002383964],[0.18083333333333323,-0.11740740740740736,0.26610000002384027],[0.18718750000000003,-0.10444444444444441,0.2831000000238433],[0.18364583333333329,-0.10388888888888893,0.2995000000000019],[0.17760416666666667,-0.11981481481481479,0.3190000000000026],[0.17541666666666675,-0.11629629629629631,0.33389999997615405],[0.20708333333333329,-0.11166666666666669,0.3516999999880781],[0.19916666666666671,-0.09722222222222222,0.3673000000119231],[0.2025000000000001,-0.1,0.38289999997616064],[0.2150000000000001,-0.1014814814814815,0.3996000000238382],[0.2228125000000001,-0.10129629629629627,0.41610000002383885],[0.21052083333333324,-0.11703703703703702,0.4328999999761578],[0.21052083333333324,-0.11703703703703702,0.4496999999880771],[0.20562500000000009,-0.11962962962962967,0.46630000001191974],[0.22489583333333343,-0.10888888888888891,0.48289999997615496],[0.2365624999999999,-0.11888888888888886,0.49969999998808134],[0.25,-0.1051851851851852,0.5161000000238403],[0.2557291666666667,-0.09722222222222222,0.5331999999880779],[0.2557291666666667,-0.09722222222222222,0.5496000000238439],[0.27333333333333343,-0.08796296296296297,0.5661999999880791],[0.25635416666666655,-0.10481481481481486,0.5833000000119171],[0.2337500000000001,-0.10870370370370368,0.599499999999999],[0.2133333333333333,-0.09962962962962965,0.6163000000119183],[0.21364583333333323,-0.0933333333333333,0.6328999999761606],[0.18885416666666663,-0.09518518518518514,0.6501999999880752],[0.1521874999999999,-0.10462962962962963,0.6661999999880805],[0.11083333333333342,-0.08796296296296297,0.6829999999999998],[0.08041666666666672,-0.1227777777777778,0.6996000000238425],[0.027291666666666714,-0.12777777777777777,0.7166999999880801],[-0.02822916666666669,-0.1698148148148148,0.732999999999997],[-0.04916666666666671,-0.18574074074074076,0.7496000000238396],[-0.021145833333333287,-0.17407407407407408,0.7696999999880774],[-0.0036458333333333334,-0.17685185185185184,0.785600000023841],[-0.04052083333333331,-0.19314814814814818,0.8008000000119182],[-0.051041666666666666,-0.202962962962963,0.8163000000119212],[-0.051770833333333384,-0.20685185185185184,0.8329999999999984],[-0.02364583333333338,-0.20666666666666672,0.8496999999880757],[0.013125000000000024,-0.1653703703703704,0.8663000000119183],[0.07260416666666672,-0.15388888888888894,0.8828999999761606],[0.07260416666666672,-0.15388888888888894,0.8996999999880799],[0.12052083333333338,-0.09092592592592597,0.9161999999880805],[0.12052083333333338,-0.09092592592592597,0.9329999999999998],[0.18177083333333333,-0.036481481481481566,0.9496000000238425],[0.16614583333333333,-0.028888888888888933,0.9663999999761543],[0.16614583333333333,-0.028888888888888933,0.9831999999880807],[0.15583333333333324,-0.01444444444444436,0.9994999999999976],[0.15583333333333324,-0.01444444444444436,1.016300000011917],[0.20062499999999991,0.020185185185185143,1.0328999999761592],[0.24927083333333327,0.05685185185185194,1.0496999999880785],[0.2834374999999999,0.07814814814814823,1.0691999999880792],[0.3234375,0.07074074074074083,1.083199999988075],[0.30531249999999993,0.0544444444444444,1.099600000023841],[0.28104166666666663,0.062037037037037036,1.1161999999880763],[0.28104166666666663,0.062037037037037036,1.1330000000000027],[0.28395833333333326,0.03333333333333333,1.1496000000238382],[0.2569791666666667,0.04592592592592584,1.1696000000238413],[0.2547916666666666,0.06555555555555552,1.185300000011921],[0.2591666666666666,0.07981481481481485,1.2011999999880771],[0.24749999999999991,0.10740740740740741,1.2161999999880777],[0.20187499999999994,0.10055555555555547,1.232999999999997],[0.16885416666666658,0.08981481481481482,1.2496000000238396],[0.09052083333333343,0.1007407407407407,1.2668000000119193],[0.04020833333333336,0.1307407407407408,1.2851999999880803],[-0.0046875,0.12814814814814823,1.3021000000238416],[-0.07854166666666665,0.14074074074074075,1.3166999999880815],[-0.1358333333333333,0.1205555555555556,1.33869999998808],[-0.1358333333333333,0.1205555555555556,1.349499999999999],[-0.1632291666666667,0.05277777777777778,1.3661999999880763],[-0.21531250000000005,0.09259259259259259,1.3828999999761606],[-0.21531250000000005,0.09259259259259259,1.3996000000238382],[-0.2361458333333334,0.0992592592592593,1.4163000000119226],[-0.22322916666666662,0.15833333333333333,1.4328000000119232],[-0.2295833333333333,0.17925925925925917,1.449699999988077],[-0.22531249999999994,0.19203703703703712,1.4661999999880777],[-0.22854166666666664,0.20666666666666672,1.4881999999880762],[-0.22854166666666664,0.20666666666666672,1.499899999976158],[-0.2029166666666666,0.17518518518518522,1.516300000011917],[-0.16843750000000005,0.22592592592592592,1.539199999988078],[-0.16843750000000005,0.22592592592592592,1.5501000000238392],[-0.12135416666666667,0.2301851851851851,1.5663000000119212],[-0.11489583333333328,0.3077777777777779,1.5828999999761564],[-0.07947916666666661,0.2551851851851851,1.6003999999761547],[-0.07666666666666669,0.20796296296296288,1.6168000000119207],[-0.0640625,0.15481481481481485,1.6328999999761606],[-0.04010416666666667,0.15314814814814823,1.6494999999999962],[-0.036249999999999956,0.14444444444444443,1.6661999999880805],[-0.036249999999999956,0.14444444444444443,1.6828999999761578],[-0.024166666666666715,0.1235185185185186,1.699699999988077],[-0.0013541666666666192,0.12814814814814823,1.7163000000119197],[0.04208333333333331,0.052407407407407326,1.7363999999761575],[0.04208333333333331,0.052407407407407326,1.7496999999880813],[0.03114583333333331,0.06796296296296304,1.7663999999761586],[0.07510416666666657,0.1081481481481481,1.7830000000000013],[0.11124999999999995,0.17092592592592584,1.7995000000000019],[0.11124999999999995,0.17092592592592584,1.8191999999880792],[0.13291666666666657,0.1603703703703704,1.8329999999999984],[0.14729166666666677,0.19000000000000003,1.8500000000000014],[0.12666666666666657,0.2294444444444444,1.8689999999999998],[0.12666666666666657,0.2294444444444444,1.8831000000238447],[0.1603125000000001,0.2272222222222223,1.899800000011922],[0.19197916666666662,0.21388888888888888,1.9193000000119227],[0.19041666666666662,0.22592592592592592,1.9351000000238443],[0.19041666666666662,0.22592592592592592,1.9496000000238425],[0.17072916666666677,0.23759259259259252,1.972199999988078],[0.17072916666666677,0.23759259259259252,1.983100000023839],[0.1658333333333334,0.1866666666666666,1.9998000000119234],[0.1658333333333334,0.1866666666666666,2.0165000000000006],[0.11593749999999996,0.0772222222222223,2.0381999999880804],[0.08520833333333329,-0.02240740740740745,2.0536999999880763],[0.08562500000000005,-0.04092592592592597,2.0705000000000027],[0.08562500000000005,-0.04092592592592597,2.0828999999761564],[0.08708333333333323,-0.11500000000000005,2.0996999999880757],[0.11864583333333342,-0.19962962962962966,2.119600000023844],[0.11604166666666677,-0.23555555555555555,2.134899999976156],[0.10593750000000005,-0.2903703703703704,2.1541000000238384],[0.09020833333333324,-0.3412962962962963,2.1726000000238415],[0.09020833333333324,-0.3412962962962963,2.182899999976158],[0.08614583333333338,-0.4374074074074074,2.199699999988077],[0.10583333333333324,-0.452962962962963,2.216800000011922],[0.12947916666666662,-0.44814814814814813,2.238899999976155],[0.12947916666666662,-0.44814814814814813,2.2496999999880813],[0.14791666666666667,-0.4559259259259259,2.266300000011917],[0.13614583333333338,-0.5005555555555555,2.283199999988078],[0.10385416666666672,-0.5370370370370371,2.305500000000002],[0.06479166666666672,-0.5796296296296296,2.3198000000119237],[0.06312500000000003,-0.5694444444444444,2.3368000000119196],[0.07885416666666671,-0.5544444444444444,2.360500000000002],[0.07885416666666671,-0.5544444444444444,2.3681999999880787],[0.10208333333333333,-0.6059259259259259,2.382800000011919],[0.0931250000000001,-0.5866666666666667,2.4001000000238406],[0.08739583333333342,-0.6301851851851852,2.4163000000119226],[0.07687499999999996,-0.6157407407407407,2.434399999976158],[0.05239583333333329,-0.5985185185185184,2.449699999988077],[0.051874999999999956,-0.5842592592592593,2.4661999999880777],[0.06343749999999998,-0.5751851851851852,2.4896000000238416],[0.06343749999999998,-0.5751851851851852,2.4996000000238396],[0.09500000000000004,-0.5631481481481482,2.5161000000238403],[0.1009375000000001,-0.5546296296296296,2.533199999988078],[0.06822916666666666,-0.595925925925926,2.549999999999997],[0.03114583333333331,-0.5674074074074074,2.5683000000119236],[-0.02687499999999995,-0.5987037037037037,2.5829999999999984],[-0.05333333333333338,-0.5687037037037037,2.6006000000238387],[-0.05302083333333331,-0.582962962962963,2.618000000000002],[-0.05302083333333331,-0.582962962962963,2.632800000011919],[-0.05270833333333336,-0.5972222222222222,2.649600000023838],[-0.07229166666666664,-0.5851851851851851,2.6661999999880805],[-0.12000000000000005,-0.529074074074074,2.683],[-0.12000000000000005,-0.529074074074074,2.6996000000238425],[-0.17604166666666668,-0.4690740740740741,2.7161999999880777],[-0.20104166666666667,-0.4948148148148148,2.7336000000238414],[-0.22208333333333338,-0.43129629629629623,2.7503000000119187],[-0.22208333333333338,-0.43129629629629623,2.766300000011917],[-0.23343750000000002,-0.3787037037037037,2.7828000000119175],[-0.2,-0.32388888888888884,2.799600000023844],[-0.22749999999999998,-0.3677777777777778,2.8161000000238445],[-0.2760416666666667,-0.41351851851851856,2.833199999988075],[-0.2760416666666667,-0.4264814814814815,2.850199999988078],[-0.27697916666666667,-0.42296296296296293,2.866600000023844],[-0.25,-0.46296296296296297,2.8830000000000027],[-0.17781250000000004,-0.49166666666666664,2.9031999999880753],[-0.15270833333333336,-0.4301851851851852,2.9201000000238437],[-0.1265625,-0.4335185185185186,2.935899999976158],[-0.07447916666666667,-0.4301851851851852,2.9543000000119193],[-0.059791666666666646,-0.36574074074074076,2.9739999999999966],[-0.059791666666666646,-0.36574074074074076,2.98689999997616],[0.01072916666666662,-0.2831481481481481,3],[0.01072916666666662,-0.2831481481481481,3.016300000011917],[0.06729166666666657,-0.21055555555555552,3.0328999999761592],[0.09291666666666672,-0.17925925925925928,3.0534999999999997],[0.14562499999999995,-0.15092592592592594,3.0691999999880792],[0.1772916666666667,-0.12388888888888884,3.084899999976159],[0.16375000000000003,-0.1081481481481481,3.1013000000119177],[0.16375000000000003,-0.1081481481481481,3.1161000000238417],[0.1544791666666666,-0.14611111111111108,3.1330000000000027],[0.17916666666666667,-0.16648148148148145,3.152800000011922],[0.1556250000000001,-0.21129629629629634,3.1706999999880807],[0.17843749999999994,-0.28648148148148145,3.1871000000238396],[0.15354166666666677,-0.28833333333333333,3.2043000000119193],[0.15,-0.31555555555555553,3.2203000000119175],[0.11177083333333329,-0.3153703703703704,3.239300000011923],[0.11177083333333329,-0.3153703703703704,3.2494999999999976],[0.11333333333333329,-0.30037037037037034,3.2663999999761586],[0.13614583333333338,-0.2846296296296296,3.2828000000119175],[0.13624999999999995,-0.28203703703703703,3.299899999976155],[0.13624999999999995,-0.27814814814814814,3.3208000000119213],[0.12260416666666671,-0.2455555555555556,3.3373999999761566],[0.12260416666666671,-0.2455555555555556,3.349499999999999],[0.13604166666666656,-0.22240740740740744,3.3661999999880763],[0.13604166666666656,-0.22240740740740744,3.3828999999761606]]","[0.00019999998807662678,0.019300000011917007,0.03289999997615922,0.049600000023843904,0.06610000002384453,0.08310000002384044,0.10060000002383873,0.12019999998808117,0.1548000000119174,0.1653000000119178,0.17300000000000182,0.1828000000119232,0.19950000000000045,0.21630000001191974,0.23289999997615496,0.24960000002383964,0.26610000002384027,0.2831000000238433,0.2995000000000019,0.3190000000000026,0.33389999997615405,0.3516999999880781,0.3673000000119231,0.38289999997616064,0.3996000000238382,0.41610000002383885,0.4328999999761578,0.4496999999880771,0.46630000001191974,0.48289999997615496,0.49969999998808134,0.5161000000238403,0.5331999999880779,0.5496000000238439,0.5661999999880791,0.5833000000119171,0.599499999999999,0.6163000000119183,0.6328999999761606,0.6501999999880752,0.6661999999880805,0.6829999999999998,0.6996000000238425,0.7166999999880801,0.732999999999997,0.7496000000238396,0.7696999999880774,0.785600000023841,0.8008000000119182,0.8163000000119212,0.8329999999999984,0.8496999999880757,0.8663000000119183,0.8828999999761606,0.8996999999880799,0.9161999999880805,0.9329999999999998,0.9496000000238425,0.9663999999761543,0.9831999999880807,0.9994999999999976,1.016300000011917,1.0328999999761592,1.0496999999880785,1.0691999999880792,1.083199999988075,1.099600000023841,1.1161999999880763,1.1330000000000027,1.1496000000238382,1.1696000000238413,1.185300000011921,1.2011999999880771,1.2161999999880777,1.232999999999997,1.2496000000238396,1.2668000000119193,1.2851999999880803,1.3021000000238416,1.3166999999880815,1.33869999998808,1.349499999999999,1.3661999999880763,1.3828999999761606,1.3996000000238382,1.4163000000119226,1.4328000000119232,1.449699999988077,1.4661999999880777,1.4881999999880762,1.499899999976158,1.516300000011917,1.539199999988078,1.5501000000238392,1.5663000000119212,1.5828999999761564,1.6003999999761547,1.6168000000119207,1.6328999999761606,1.6494999999999962,1.6661999999880805,1.6828999999761578,1.699699999988077,1.7163000000119197,1.7363999999761575,1.7496999999880813,1.7663999999761586,1.7830000000000013,1.7995000000000019,1.8191999999880792,1.8329999999999984,1.8500000000000014,1.8689999999999998,1.8831000000238447,1.899800000011922,1.9193000000119227,1.9351000000238443,1.9496000000238425,1.972199999988078,1.983100000023839,1.9998000000119234,2.0165000000000006,2.0381999999880804,2.0536999999880763,2.0705000000000027,2.0828999999761564,2.0996999999880757,2.119600000023844,2.134899999976156,2.1541000000238384,2.1726000000238415,2.182899999976158,2.199699999988077,2.216800000011922,2.238899999976155,2.2496999999880813,2.266300000011917,2.283199999988078,2.305500000000002,2.3198000000119237,2.3368000000119196,2.360500000000002,2.3681999999880787,2.382800000011919,2.4001000000238406,2.4163000000119226,2.434399999976158,2.449699999988077,2.4661999999880777,2.4896000000238416,2.4996000000238396,2.5161000000238403,2.533199999988078,2.549999999999997,2.5683000000119236,2.5829999999999984,2.6006000000238387,2.618000000000002,2.632800000011919,2.649600000023838,2.6661999999880805,2.683,2.6996000000238425,2.7161999999880777,2.7336000000238414,2.7503000000119187,2.766300000011917,2.7828000000119175,2.799600000023844,2.8161000000238445,2.833199999988075,2.850199999988078,2.866600000023844,2.8830000000000027,2.9031999999880753,2.9201000000238437,2.935899999976158,2.9543000000119193,2.9739999999999966,2.98689999997616,3,3.016300000011917,3.0328999999761592,3.0534999999999997,3.0691999999880792,3.084899999976159,3.1013000000119177,3.1161000000238417,3.1330000000000027,3.152800000011922,3.1706999999880807,3.1871000000238396,3.2043000000119193,3.2203000000119175,3.239300000011923,3.2494999999999976,3.2663999999761586,3.2828000000119175,3.299899999976155,3.3208000000119213,3.3373999999761566,3.349499999999999,3.3661999999880763,3.3828999999761606]","[1733033836327,1733033836342,1733033836355,1733033836372,1733033836389,1733033836406,1733033836423,1733033836443,1733033836477,1733033836488,1733033836495,1733033836505,1733033836522,1733033836539,1733033836555,1733033836572,1733033836589,1733033836606,1733033836622,1733033836641,1733033836656,1733033836674,1733033836690,1733033836705,1733033836722,1733033836739,1733033836755,1733033836772,1733033836789,1733033836805,1733033836822,1733033836839,1733033836856,1733033836872,1733033836889,1733033836906,1733033836922,1733033836939,1733033836955,1733033836973,1733033836989,1733033837005,1733033837022,1733033837039,1733033837055,1733033837072,1733033837092,1733033837108,1733033837123,1733033837139,1733033837155,1733033837172,1733033837189,1733033837205,1733033837222,1733033837239,1733033837255,1733033837272,1733033837289,1733033837306,1733033837322,1733033837339,1733033837355,1733033837372,1733033837392,1733033837406,1733033837422,1733033837439,1733033837455,1733033837472,1733033837492,1733033837508,1733033837524,1733033837539,1733033837555,1733033837572,1733033837589,1733033837608,1733033837625,1733033837639,1733033837661,1733033837672,1733033837689,1733033837705,1733033837722,1733033837739,1733033837755,1733033837772,1733033837789,1733033837811,1733033837822,1733033837839,1733033837862,1733033837873,1733033837889,1733033837905,1733033837923,1733033837939,1733033837955,1733033837972,1733033837989,1733033838005,1733033838022,1733033838039,1733033838059,1733033838072,1733033838089,1733033838105,1733033838122,1733033838142,1733033838155,1733033838172,1733033838191,1733033838206,1733033838222,1733033838242,1733033838257,1733033838272,1733033838295,1733033838306,1733033838322,1733033838339,1733033838361,1733033838376,1733033838393,1733033838405,1733033838422,1733033838442,1733033838457,1733033838477,1733033838495,1733033838505,1733033838522,1733033838539,1733033838561,1733033838572,1733033838589,1733033838606,1733033838628,1733033838642,1733033838659,1733033838683,1733033838691,1733033838705,1733033838723,1733033838739,1733033838757,1733033838772,1733033838789,1733033838812,1733033838822,1733033838839,1733033838856,1733033838872,1733033838891,1733033838905,1733033838923,1733033838940,1733033838955,1733033838972,1733033838989,1733033839005,1733033839022,1733033839039,1733033839056,1733033839073,1733033839089,1733033839105,1733033839122,1733033839139,1733033839156,1733033839173,1733033839189,1733033839205,1733033839226,1733033839242,1733033839258,1733033839277,1733033839296,1733033839309,1733033839323,1733033839339,1733033839355,1733033839376,1733033839392,1733033839407,1733033839424,1733033839439,1733033839455,1733033839475,1733033839493,1733033839510,1733033839527,1733033839543,1733033839562,1733033839572,1733033839589,1733033839605,1733033839622,1733033839643,1733033839660,1733033839672,1733033839689,1733033839705]","[[1089.8,493],[1089.8,493],[1081.6,463.1],[1081.6,463.1],[1079.3,453.7],[1075.2,443.2],[1073.3,451],[1077.3,447.2],[1056.2,445.9],[1056.2,445.9],[1099.6,433],[1099.6,433],[1122.3,439.7],[1128.4,446.4],[1120.4,462.5],[1120.4,462.5],[1133.6,476.6],[1139.7,483.6],[1136.3,483.9],[1130.5,475.3],[1128.4,477.2],[1158.8,479.7],[1151.2,487.5],[1154.4,486],[1166.4,485.2],[1173.9,485.3],[1162.1,476.8],[1162.1,476.8],[1157.4,475.4],[1175.9,481.2],[1187.1,475.8],[1200,483.2],[1205.5,487.5],[1205.5,487.5],[1222.4,492.5],[1206.1,483.4],[1184.4,481.3],[1164.8,486.2],[1165.1,489.6],[1141.3,488.6],[1106.1,483.5],[1066.4,492.5],[1037.2,473.7],[986.2,471],[932.9,448.3],[912.8,439.7],[939.7,446],[956.5,444.5],[921.1,435.7],[911,430.4],[910.3,428.3],[937.3,428.4],[972.6,450.7],[1029.7,456.9],[1029.7,456.9],[1075.7,490.9],[1075.7,490.9],[1134.5,520.3],[1119.5,524.4],[1119.5,524.4],[1109.6,532.2],[1109.6,532.2],[1152.6,550.9],[1199.3,570.7],[1232.1,582.2],[1270.5,578.2],[1253.1,569.4],[1229.8,573.5],[1229.8,573.5],[1232.6,558],[1206.7,564.8],[1204.6,575.4],[1208.8,583.1],[1197.6,598],[1153.8,594.3],[1122.1,588.5],[1046.9,594.4],[998.6,610.6],[955.5,609.2],[884.6,616],[829.6,605.1],[829.6,605.1],[803.3,568.5],[753.3,590],[753.3,590],[733.3,593.6],[745.7,625.5],[739.6,636.8],[743.7,643.7],[740.6,651.6],[740.6,651.6],[765.2,634.6],[798.3,662],[798.3,662],[843.5,664.3],[849.7,706.2],[883.7,677.8],[886.4,652.3],[898.5,623.6],[921.5,622.7],[925.2,618],[925.2,618],[936.8,606.7],[958.7,609.2],[1000.4,568.3],[1000.4,568.3],[989.9,576.7],[1032.1,598.4],[1066.8,632.3],[1066.8,632.3],[1087.6,626.6],[1101.4,642.6],[1081.6,663.9],[1081.6,663.9],[1113.9,662.7],[1144.3,655.5],[1142.8,662],[1142.8,662],[1123.9,668.3],[1123.9,668.3],[1119.2,640.8],[1119.2,640.8],[1071.3,581.7],[1041.8,527.9],[1042.2,517.9],[1042.2,517.9],[1043.6,477.9],[1073.9,432.2],[1071.4,412.8],[1061.7,383.2],[1046.6,355.7],[1046.6,355.7],[1042.7,303.8],[1061.6,295.4],[1084.3,298],[1084.3,298],[1102,293.8],[1090.7,269.7],[1059.7,250],[1022.2,227],[1020.6,232.5],[1035.7,240.6],[1035.7,240.6],[1058,212.8],[1049.4,223.2],[1043.9,199.7],[1033.8,207.5],[1010.3,216.8],[1009.8,224.5],[1020.9,229.4],[1020.9,229.4],[1051.2,235.9],[1056.9,240.5],[1025.5,218.2],[989.9,233.6],[934.2,216.7],[908.8,232.9],[909.1,225.2],[909.1,225.2],[909.4,217.5],[890.6,224],[844.8,254.3],[844.8,254.3],[791,286.7],[767,272.8],[746.8,307.1],[746.8,307.1],[735.9,335.5],[768,365.1],[741.6,341.4],[695,316.7],[695,309.7],[694.1,311.6],[720,290],[789.3,274.5],[813.4,307.7],[838.5,305.9],[888.5,307.7],[902.6,342.5],[902.6,342.5],[970.3,387.1],[970.3,387.1],[1024.6,426.3],[1049.2,443.2],[1099.8,458.5],[1130.2,473.1],[1117.2,481.6],[1117.2,481.6],[1108.3,461.1],[1132,450.1],[1109.4,425.9],[1131.3,385.3],[1107.4,384.3],[1104,369.6],[1067.3,369.7],[1067.3,369.7],[1068.8,377.8],[1090.7,386.3],[1090.8,387.7],[1090.8,389.8],[1077.7,407.4],[1077.7,407.4],[1090.6,419.9],[1090.6,419.9]]","[0,0.37864299999999995]","[0.37864299999999995,0.37864299999999995]","[-0.37864299999999995,0]","[-0.37864299999999995,-0.37864299999999995]","[0,0]","[0.37864299999999995,0]","[0,-0.37864299999999995]","[0.37864299999999995,-0.37864299999999995]",0,1,1,1,1,3,Laptop,5,5,13,7
