inst1_resp.keys,inst1_resp.rt,calibrationMouse.x,calibrationMouse.y,calibrationMouse.leftButton,calibrationMouse.midButton,calibrationMouse.rightButton,calibrationClick.x,calibrationClick.y,calibrationClick.leftButton,calibrationClick.midButton,calibrationClick.rightButton,calibrationClick.clicked_name,trialsc.thisRepN,trialsc.thisTrialN,trialsc.thisN,trialsc.thisIndex,trialsc.ran,calibration_x,calibration_y,participant,session,date,expName,psychopyVersion,OS,frameRate,ScreenRes_pixels,Camera_pixels,mouse_2.x,mouse_2.y,mouse_2.leftButton,mouse_2.midButton,mouse_2.rightButton,mouse_2.time,mouse_2.clicked_name,mouse.x,mouse.y,mouse.leftButton,mouse.midButton,mouse.rightButton,mouse.time,mouse.clicked_name,Choice,Trial,TrialDuration,MOUSE_GAZE,ET_GAZE,ET_GAZE_x_T,time,unixTime,ET_GAZE_NF,Loc_Option1_label,Loc_Option2_label,Loc_Cost_label,Loc_Qual_label,Loc_Option1_cost,Loc_Option2_cost,Loc_Option1_quality,Loc_Option2_quality,trials.thisRepN,trials.thisTrialN,trials.thisN,trials.thisIndex,trials.ran,Block,Device,cost1,qual1,cost2,qual2
space,1.5365,-0.095833333,0.268518519,1,0,0,-0.665625,0.325925926,1,0,0,calibration_square,0,0,0,3,1,-0.67,0.33,05,001,2024-12-01_14h07.15.684,Attention_exp_legacy,2023.1.0,Win32,60.24096386,,,,,,,,,,,,,,,,,,,,,,,,,,,,,,,,,,,,,,,,,,,,
,,,,,,,0.334375,0.327777778,1,0,0,calibration_square,0,1,1,17,1,0.33,0.33,05,001,2024-12-01_14h07.15.684,Attention_exp_legacy,2023.1.0,Win32,60.24096386,,,,,,,,,,,,,,,,,,,,,,,,,,,,,,,,,,,,,,,,,,,,
,,,,,,,-0.330208333,-0.325925926,1,0,0,calibration_square,0,2,2,5,1,-0.33,-0.33,05,001,2024-12-01_14h07.15.684,Attention_exp_legacy,2023.1.0,Win32,60.24096386,,,,,,,,,,,,,,,,,,,,,,,,,,,,,,,,,,,,,,,,,,,,
,,,,,,,-0.326041667,0.324074074,1,0,0,calibration_square,0,3,3,7,1,-0.33,0.33,05,001,2024-12-01_14h07.15.684,Attention_exp_legacy,2023.1.0,Win32,60.24096386,,,,,,,,,,,,,,,,,,,,,,,,,,,,,,,,,,,,,,,,,,,,
,,,,,,,0.339583333,-0.672222222,1,0,0,calibration_square,0,4,4,14,1,0.33,-0.67,05,001,2024-12-01_14h07.15.684,Attention_exp_legacy,2023.1.0,Win32,60.24096386,,,,,,,,,,,,,,,,,,,,,,,,,,,,,,,,,,,,,,,,,,,,
,,,,,,,-0.002083333,-0.681481481,1,0,0,,0,5,5,9,1,0,-0.67,05,001,2024-12-01_14h07.15.684,Attention_exp_legacy,2023.1.0,Win32,60.24096386,,,,,,,,,,,,,,,,,,,,,,,,,,,,,,,,,,,,,,,,,,,,
,,,,,,,-0.339583333,0,1,0,0,calibration_square,0,6,6,6,1,-0.33,0,05,001,2024-12-01_14h07.15.684,Attention_exp_legacy,2023.1.0,Win32,60.24096386,,,,,,,,,,,,,,,,,,,,,,,,,,,,,,,,,,,,,,,,,,,,
,,,,,,,0.335416667,0.001851852,1,0,0,calibration_square,0,7,7,16,1,0.33,0,05,001,2024-12-01_14h07.15.684,Attention_exp_legacy,2023.1.0,Win32,60.24096386,,,,,,,,,,,,,,,,,,,,,,,,,,,,,,,,,,,,,,,,,,,,
,,,,,,,0.334375,0.666666667,1,0,0,calibration_square,0,8,8,18,1,0.33,0.67,05,001,2024-12-01_14h07.15.684,Attention_exp_legacy,2023.1.0,Win32,60.24096386,,,,,,,,,,,,,,,,,,,,,,,,,,,,,,,,,,,,,,,,,,,,
,,,,,,,0.677083333,-0.683333333,1,0,0,,0,9,9,20,1,0.67,-0.67,05,001,2024-12-01_14h07.15.684,Attention_exp_legacy,2023.1.0,Win32,60.24096386,,,,,,,,,,,,,,,,,,,,,,,,,,,,,,,,,,,,,,,,,,,,
,,,,,,,-0.325,-0.662962963,1,0,0,calibration_square,0,10,10,4,1,-0.33,-0.67,05,001,2024-12-01_14h07.15.684,Attention_exp_legacy,2023.1.0,Win32,60.24096386,,,,,,,,,,,,,,,,,,,,,,,,,,,,,,,,,,,,,,,,,,,,
,,,,,,,-0.678125,-0.664814815,1,0,0,calibration_square,0,11,11,0,1,-0.67,-0.67,05,001,2024-12-01_14h07.15.684,Attention_exp_legacy,2023.1.0,Win32,60.24096386,,,,,,,,,,,,,,,,,,,,,,,,,,,,,,,,,,,,,,,,,,,,
,,,,,,,0.00625,0.694444444,1,0,0,,0,12,12,13,1,0,0.67,05,001,2024-12-01_14h07.15.684,Attention_exp_legacy,2023.1.0,Win32,60.24096386,,,,,,,,,,,,,,,,,,,,,,,,,,,,,,,,,,,,,,,,,,,,
,,,,,,,-0.001041667,0.32037037,1,0,0,calibration_square,0,13,13,12,1,0,0.33,05,001,2024-12-01_14h07.15.684,Attention_exp_legacy,2023.1.0,Win32,60.24096386,,,,,,,,,,,,,,,,,,,,,,,,,,,,,,,,,,,,,,,,,,,,
,,,,,,,0.670833333,0.674074074,1,0,0,calibration_square,0,14,14,19,1,0.67,0.67,05,001,2024-12-01_14h07.15.684,Attention_exp_legacy,2023.1.0,Win32,60.24096386,,,,,,,,,,,,,,,,,,,,,,,,,,,,,,,,,,,,,,,,,,,,
,,,,,,,-0.320833333,0.672222222,1,0,0,calibration_square,0,15,15,8,1,-0.33,0.67,05,001,2024-12-01_14h07.15.684,Attention_exp_legacy,2023.1.0,Win32,60.24096386,,,,,,,,,,,,,,,,,,,,,,,,,,,,,,,,,,,,,,,,,,,,
,,,,,,,0.327083333,-0.327777778,1,0,0,calibration_square,0,16,16,15,1,0.33,-0.33,05,001,2024-12-01_14h07.15.684,Attention_exp_legacy,2023.1.0,Win32,60.24096386,,,,,,,,,,,,,,,,,,,,,,,,,,,,,,,,,,,,,,,,,,,,
,,,,,,,0,-0.338888889,1,0,0,calibration_square,0,17,17,10,1,0,-0.33,05,001,2024-12-01_14h07.15.684,Attention_exp_legacy,2023.1.0,Win32,60.24096386,,,,,,,,,,,,,,,,,,,,,,,,,,,,,,,,,,,,,,,,,,,,
,,,,,,,-0.682291667,-0.331481481,1,0,0,,0,18,18,1,1,-0.67,-0.33,05,001,2024-12-01_14h07.15.684,Attention_exp_legacy,2023.1.0,Win32,60.24096386,,,,,,,,,,,,,,,,,,,,,,,,,,,,,,,,,,,,,,,,,,,,
,,,,,,,0.003125,0,1,0,0,calibration_square,0,19,19,11,1,0,0,05,001,2024-12-01_14h07.15.684,Attention_exp_legacy,2023.1.0,Win32,60.24096386,,,,,,,,,,,,,,,,,,,,,,,,,,,,,,,,,,,,,,,,,,,,
,,,,,,,-0.663541667,-0.007407407,1,0,0,calibration_square,0,20,20,2,1,-0.67,0,05,001,2024-12-01_14h07.15.684,Attention_exp_legacy,2023.1.0,Win32,60.24096386,,,,,,,,,,,,,,,,,,,,,,,,,,,,,,,,,,,,,,,,,,,,
,,,,,,,,,,,,,,,,,,,,05,001,2024-12-01_14h07.15.684,Attention_exp_legacy,2023.1.0,Win32,60.24096386,"[1920,1080]","[640,480]",[0.07083333333333333],[-0.5111111111111111],[1],[0],[0],[1.747699999988079],"[""StartButton""]",[0.011458333333333333],[0.1425925925925926],[1],[0],[0],[6.6738999999761575],"[""Option1_label""]",Option1_label,1,7.6914,"[[0.071875,-0.47962962962962963],[0.071875,-0.47962962962962963],[0.071875,-0.47962962962962963],[0.071875,-0.47962962962962963],[0.071875,-0.47962962962962963],[0.071875,-0.47962962962962963],[0.071875,-0.47962962962962963],[0.071875,-0.47962962962962963],[0.071875,-0.47962962962962963],[0.071875,-0.47962962962962963],[0.071875,-0.47962962962962963],[0.071875,-0.47962962962962963],[0.071875,-0.47962962962962963],[0.071875,-0.47962962962962963],[0.071875,-0.47962962962962963],[0.071875,-0.47962962962962963],[0.071875,-0.47962962962962963],[0.071875,-0.47962962962962963],[0.071875,-0.47962962962962963],[0.071875,-0.47962962962962963],[0.071875,-0.47962962962962963],[0.071875,-0.47962962962962963],[0.071875,-0.47962962962962963],[0.071875,-0.47962962962962963],[0.071875,-0.47962962962962963],[0.071875,-0.47962962962962963],[0.071875,-0.47962962962962963],[0.071875,-0.47962962962962963],[0.071875,-0.47962962962962963],[0.071875,-0.47962962962962963],[0.071875,-0.47962962962962963],[0.071875,-0.4777777777777778],[0.071875,-0.4759259259259259],[0.071875,-0.4759259259259259],[0.071875,-0.4759259259259259],[0.071875,-0.4759259259259259],[0.071875,-0.4759259259259259],[0.071875,-0.4740740740740741],[0.071875,-0.4740740740740741],[0.071875,-0.4740740740740741],[0.071875,-0.4740740740740741],[0.071875,-0.4740740740740741],[0.071875,-0.4740740740740741],[0.071875,-0.4740740740740741],[0.071875,-0.4740740740740741],[0.071875,-0.4740740740740741],[0.071875,-0.4740740740740741],[0.071875,-0.4740740740740741],[0.071875,-0.4740740740740741],[0.071875,-0.4740740740740741],[0.071875,-0.4740740740740741],[0.071875,-0.4740740740740741],[0.071875,-0.4740740740740741],[0.071875,-0.4740740740740741],[0.071875,-0.4740740740740741],[0.071875,-0.4740740740740741],[0.071875,-0.4740740740740741],[0.071875,-0.4740740740740741],[0.071875,-0.4740740740740741],[0.071875,-0.4740740740740741],[0.071875,-0.4740740740740741],[0.071875,-0.4740740740740741],[0.071875,-0.4740740740740741],[0.071875,-0.4740740740740741],[0.071875,-0.4740740740740741],[0.071875,-0.4740740740740741],[0.071875,-0.4740740740740741],[0.071875,-0.4740740740740741],[0.071875,-0.4740740740740741],[0.071875,-0.4740740740740741],[0.071875,-0.4740740740740741],[0.071875,-0.4740740740740741],[0.071875,-0.4740740740740741],[0.071875,-0.4740740740740741],[0.071875,-0.4740740740740741],[0.071875,-0.4740740740740741],[0.071875,-0.4740740740740741],[0.071875,-0.4740740740740741],[0.071875,-0.4740740740740741],[0.071875,-0.4740740740740741],[0.071875,-0.4740740740740741],[0.071875,-0.4740740740740741],[0.071875,-0.4740740740740741],[0.071875,-0.4740740740740741],[0.071875,-0.4740740740740741],[0.071875,-0.4740740740740741],[0.071875,-0.4740740740740741],[0.071875,-0.4740740740740741],[0.071875,-0.4740740740740741],[0.071875,-0.4740740740740741],[0.071875,-0.4740740740740741],[0.071875,-0.4740740740740741],[0.071875,-0.4740740740740741],[0.071875,-0.4740740740740741],[0.071875,-0.4740740740740741],[0.071875,-0.4740740740740741],[0.071875,-0.4740740740740741],[0.071875,-0.4740740740740741],[0.071875,-0.4740740740740741],[0.071875,-0.4740740740740741],[0.071875,-0.4740740740740741],[0.071875,-0.4740740740740741],[0.071875,-0.4740740740740741],[0.071875,-0.4740740740740741],[0.071875,-0.4740740740740741],[0.071875,-0.4740740740740741],[0.071875,-0.4740740740740741],[0.071875,-0.4740740740740741],[0.071875,-0.4740740740740741],[0.071875,-0.4740740740740741],[0.071875,-0.4740740740740741],[0.071875,-0.4740740740740741],[0.071875,-0.4740740740740741],[0.071875,-0.4740740740740741],[0.071875,-0.4740740740740741],[0.071875,-0.4740740740740741],[0.071875,-0.4740740740740741],[0.071875,-0.4740740740740741],[0.071875,-0.4740740740740741],[0.071875,-0.4740740740740741],[0.071875,-0.4740740740740741],[0.071875,-0.4740740740740741],[0.071875,-0.4740740740740741],[0.071875,-0.4740740740740741],[0.071875,-0.4740740740740741],[0.071875,-0.4722222222222222],[0.071875,-0.4722222222222222],[0.071875,-0.4722222222222222],[0.071875,-0.4722222222222222],[0.071875,-0.4722222222222222],[0.071875,-0.4722222222222222],[0.071875,-0.4722222222222222],[0.071875,-0.4703703703703704],[0.071875,-0.4703703703703704],[0.071875,-0.4685185185185185],[0.071875,-0.4685185185185185],[0.071875,-0.4685185185185185],[0.071875,-0.4685185185185185],[0.071875,-0.4685185185185185],[0.071875,-0.4685185185185185],[0.071875,-0.4685185185185185],[0.071875,-0.4685185185185185],[0.071875,-0.4685185185185185],[0.071875,-0.4685185185185185],[0.071875,-0.4685185185185185],[0.071875,-0.4685185185185185],[0.071875,-0.4685185185185185],[0.071875,-0.4685185185185185],[0.071875,-0.4685185185185185],[0.071875,-0.4685185185185185],[0.071875,-0.4685185185185185],[0.071875,-0.4685185185185185],[0.071875,-0.4685185185185185],[0.071875,-0.4685185185185185],[0.071875,-0.4685185185185185],[0.071875,-0.4685185185185185],[0.071875,-0.4685185185185185],[0.071875,-0.4685185185185185],[0.071875,-0.4685185185185185],[0.071875,-0.4685185185185185],[0.071875,-0.4685185185185185],[0.071875,-0.4685185185185185],[0.071875,-0.4685185185185185],[0.071875,-0.4685185185185185],[0.071875,-0.4685185185185185],[0.071875,-0.4685185185185185],[0.071875,-0.4685185185185185],[0.071875,-0.4685185185185185],[0.071875,-0.4685185185185185],[0.071875,-0.4685185185185185],[0.071875,-0.4685185185185185],[0.071875,-0.4685185185185185],[0.071875,-0.4685185185185185],[0.071875,-0.4685185185185185],[0.071875,-0.4685185185185185],[0.071875,-0.4685185185185185],[0.071875,-0.4685185185185185],[0.071875,-0.4685185185185185],[0.071875,-0.4685185185185185],[0.071875,-0.4648148148148148],[0.071875,-0.46111111111111114],[0.071875,-0.45740740740740743],[0.071875,-0.45185185185185184],[0.071875,-0.44814814814814813],[0.071875,-0.44074074074074077],[0.07395833333333333,-0.43703703703703706],[0.075,-0.43333333333333335],[0.075,-0.42777777777777776],[0.075,-0.42592592592592593],[0.07604166666666666,-0.4222222222222222],[0.07604166666666666,-0.4203703703703704],[0.07708333333333334,-0.4166666666666667],[0.07708333333333334,-0.4166666666666667],[0.07708333333333334,-0.4148148148148148],[0.07708333333333334,-0.4148148148148148],[0.07708333333333334,-0.4148148148148148],[0.07708333333333334,-0.4148148148148148],[0.07708333333333334,-0.4148148148148148],[0.07708333333333334,-0.4148148148148148],[0.07708333333333334,-0.4148148148148148],[0.07708333333333334,-0.4148148148148148],[0.07708333333333334,-0.4148148148148148],[0.07708333333333334,-0.4148148148148148],[0.07708333333333334,-0.4148148148148148],[0.07708333333333334,-0.4148148148148148],[0.07708333333333334,-0.4148148148148148],[0.07708333333333334,-0.4148148148148148],[0.07708333333333334,-0.4148148148148148],[0.07708333333333334,-0.4148148148148148],[0.07708333333333334,-0.4148148148148148],[0.07708333333333334,-0.4148148148148148],[0.07708333333333334,-0.4148148148148148],[0.07708333333333334,-0.4148148148148148],[0.07708333333333334,-0.4148148148148148],[0.07708333333333334,-0.4148148148148148],[0.07708333333333334,-0.4148148148148148],[0.07708333333333334,-0.4148148148148148],[0.07708333333333334,-0.4148148148148148],[0.07708333333333334,-0.4148148148148148],[0.07708333333333334,-0.4148148148148148],[0.07708333333333334,-0.4148148148148148],[0.07708333333333334,-0.4148148148148148],[0.07708333333333334,-0.4148148148148148],[0.07708333333333334,-0.4148148148148148],[0.07708333333333334,-0.4148148148148148],[0.07708333333333334,-0.4148148148148148],[0.07708333333333334,-0.4148148148148148],[0.07708333333333334,-0.4148148148148148],[0.07708333333333334,-0.4148148148148148],[0.07708333333333334,-0.4148148148148148],[0.07708333333333334,-0.4148148148148148],[0.07708333333333334,-0.4148148148148148],[0.07708333333333334,-0.4148148148148148],[0.07708333333333334,-0.4148148148148148],[0.07708333333333334,-0.412962962962963],[0.07708333333333334,-0.412962962962963],[0.078125,-0.4111111111111111],[0.078125,-0.4111111111111111],[0.078125,-0.4111111111111111],[0.078125,-0.4111111111111111],[0.078125,-0.4111111111111111],[0.078125,-0.4111111111111111],[0.078125,-0.4111111111111111],[0.078125,-0.4111111111111111],[0.078125,-0.4111111111111111],[0.078125,-0.4111111111111111],[0.078125,-0.4111111111111111],[0.078125,-0.4111111111111111],[0.078125,-0.4111111111111111],[0.078125,-0.4111111111111111],[0.078125,-0.4111111111111111],[0.078125,-0.4111111111111111],[0.078125,-0.4111111111111111],[0.078125,-0.4111111111111111],[0.078125,-0.4111111111111111],[0.078125,-0.4111111111111111],[0.078125,-0.4111111111111111],[0.078125,-0.4111111111111111],[0.08020833333333334,-0.40555555555555556],[0.08125,-0.39814814814814814],[0.08541666666666667,-0.3888888888888889],[0.08958333333333333,-0.37407407407407406],[0.09375,-0.3592592592592593],[0.1,-0.337037037037037],[0.109375,-0.3148148148148148],[0.121875,-0.2851851851851852],[0.13958333333333334,-0.22592592592592592],[0.14375,-0.20555555555555555],[0.16145833333333334,-0.1425925925925926],[0.175,-0.11296296296296296],[0.190625,-0.08333333333333333],[0.215625,-0.05],[0.24791666666666667,-0.018518518518518517],[0.2864583333333333,0.020370370370370372],[0.3302083333333333,0.06481481481481481],[0.37083333333333335,0.11481481481481481],[0.4479166666666667,0.21296296296296297],[0.49895833333333334,0.2759259259259259],[0.5364583333333334,0.31851851851851853],[0.5458333333333333,0.3314814814814815],[0.5510416666666667,0.3388888888888889],[0.5520833333333334,0.34444444444444444],[0.5520833333333334,0.34444444444444444],[0.5520833333333334,0.34629629629629627],[0.5520833333333334,0.34629629629629627],[0.5520833333333334,0.34629629629629627],[0.5520833333333334,0.34814814814814815],[0.5510416666666667,0.35185185185185186],[0.534375,0.362962962962963],[0.49375,0.3851851851851852],[0.41770833333333335,0.42592592592592593],[0.34479166666666666,0.46111111111111114],[0.228125,0.55],[0.159375,0.6092592592592593],[0.128125,0.65],[0.10416666666666667,0.6981481481481482],[0.096875,0.7444444444444445],[0.09583333333333334,0.7981481481481482],[0.11041666666666666,0.9333333333333333],[0.11041666666666666,0.9333333333333333],[0.11041666666666666,0.9333333333333333],[0.11041666666666666,0.9333333333333333],[0.11041666666666666,0.9333333333333333],[0.11041666666666666,0.9333333333333333],[0.11041666666666666,0.9333333333333333],[0.11041666666666666,0.9333333333333333],[0.11041666666666666,0.9333333333333333],[0.11041666666666666,0.9333333333333333],[0.11041666666666666,0.9333333333333333],[0.11041666666666666,0.9333333333333333],[0.11041666666666666,0.9333333333333333],[0.38229166666666664,0.9722222222222222],[0.3875,0.9111111111111111],[0.4,0.8222222222222222],[0.4,0.8185185185185185],[0.4,0.8185185185185185],[0.4,0.8185185185185185],[0.4,0.8185185185185185],[0.4,0.8185185185185185],[0.4,0.8185185185185185],[0.4,0.8185185185185185],[0.4,0.8185185185185185],[0.4,0.8185185185185185],[0.4,0.8185185185185185],[0.4,0.8185185185185185],[0.4,0.8185185185185185],[0.4,0.8185185185185185],[0.4,0.8185185185185185],[0.4,0.8185185185185185],[0.4,0.8185185185185185],[0.4,0.8185185185185185],[0.4,0.8185185185185185],[0.38333333333333336,0.8203703703703704],[0.3729166666666667,0.8388888888888889],[0.37395833333333334,0.8425925925925926],[0.39166666666666666,0.8518518518518519],[0.434375,0.8648148148148148],[0.4479166666666667,0.8685185185185185],[0.48020833333333335,0.8722222222222222],[0.5177083333333333,0.8722222222222222],[0.5854166666666667,0.8518518518518519],[0.6260416666666667,0.8148148148148148],[0.6572916666666667,0.7685185185185185],[0.6760416666666667,0.7018518518518518],[0.6875,0.6129629629629629],[0.69375,0.512962962962963],[0.69375,0.40185185185185185],[0.6625,0.23333333333333334],[0.6427083333333333,0.16111111111111112],[0.596875,0.04814814814814815],[0.5385416666666667,-0.05740740740740741],[0.47604166666666664,-0.13703703703703704],[0.36875,-0.21851851851851853],[0.3125,-0.2462962962962963],[0.25625,-0.2537037037037037],[0.21041666666666667,-0.2537037037037037],[0.18333333333333332,-0.2537037037037037],[0.16458333333333333,-0.2388888888888889],[0.14895833333333333,-0.22037037037037038],[0.14166666666666666,-0.2037037037037037],[0.1375,-0.18703703703703703],[0.13333333333333333,-0.17222222222222222],[0.13020833333333334,-0.15555555555555556],[0.12916666666666668,-0.1425925925925926],[0.125,-0.12037037037037036],[0.11770833333333333,-0.09259259259259259],[0.109375,-0.06666666666666667],[0.09895833333333333,-0.03888888888888889],[0.090625,-0.014814814814814815],[0.08333333333333333,0.024074074074074074],[0.075,0.06481481481481481],[0.06145833333333333,0.1111111111111111],[0.057291666666666664,0.12222222222222222],[0.04791666666666667,0.14814814814814814],[0.03854166666666667,0.1648148148148148],[0.035416666666666666,0.17222222222222222],[0.034375,0.17777777777777778],[0.03229166666666667,0.1814814814814815],[0.029166666666666667,0.19074074074074074],[0.028125,0.19814814814814816],[0.027083333333333334,0.2],[0.027083333333333334,0.2037037037037037],[0.027083333333333334,0.2037037037037037],[0.026041666666666668,0.2037037037037037],[0.025,0.2037037037037037],[0.020833333333333332,0.19074074074074074],[0.01875,0.18333333333333332],[0.015625,0.1685185185185185],[0.013541666666666667,0.15185185185185185],[0.0125,0.14629629629629629],[0.011458333333333333,0.14444444444444443],[0.011458333333333333,0.14444444444444443],[0.011458333333333333,0.14444444444444443],[0.011458333333333333,0.14444444444444443],[0.011458333333333333,0.1425925925925926],[0.011458333333333333,0.1425925925925926],[0.011458333333333333,0.1425925925925926],[0.011458333333333333,0.1425925925925926],[0.011458333333333333,0.1425925925925926],[0.011458333333333333,0.1425925925925926],[0.011458333333333333,0.1425925925925926],[0.011458333333333333,0.1425925925925926],[0.011458333333333333,0.1425925925925926],[0.011458333333333333,0.1425925925925926],[0.011458333333333333,0.1425925925925926],[0.011458333333333333,0.1425925925925926],[0.011458333333333333,0.1425925925925926],[0.011458333333333333,0.1425925925925926],[0.011458333333333333,0.1425925925925926],[0.011458333333333333,0.1425925925925926],[0.011458333333333333,0.1425925925925926],[0.011458333333333333,0.1425925925925926],[0.011458333333333333,0.1425925925925926],[0.011458333333333333,0.1425925925925926],[0.011458333333333333,0.1425925925925926],[0.011458333333333333,0.1425925925925926],[0.011458333333333333,0.1425925925925926],[0.011458333333333333,0.1425925925925926],[0.011458333333333333,0.1425925925925926],[0.011458333333333333,0.1425925925925926],[0.011458333333333333,0.1425925925925926],[0.011458333333333333,0.1425925925925926],[0.011458333333333333,0.1425925925925926],[0.011458333333333333,0.1425925925925926],[0.011458333333333333,0.1425925925925926],[0.011458333333333333,0.1425925925925926],[0.011458333333333333,0.1425925925925926],[0.011458333333333333,0.1425925925925926],[0.011458333333333333,0.1425925925925926],[0.011458333333333333,0.1425925925925926],[0.011458333333333333,0.1425925925925926],[0.011458333333333333,0.1425925925925926],[0.011458333333333333,0.1425925925925926],[0.011458333333333333,0.1425925925925926],[0.011458333333333333,0.1425925925925926],[0.011458333333333333,0.1425925925925926],[0.011458333333333333,0.1425925925925926],[0.011458333333333333,0.1425925925925926],[0.011458333333333333,0.1425925925925926],[0.011458333333333333,0.1425925925925926],[0.011458333333333333,0.1425925925925926],[0.011458333333333333,0.1425925925925926],[0.011458333333333333,0.1425925925925926],[0.011458333333333333,0.1425925925925926],[0.011458333333333333,0.1425925925925926],[0.011458333333333333,0.1425925925925926],[0.011458333333333333,0.1425925925925926],[0.011458333333333333,0.1425925925925926],[0.011458333333333333,0.1425925925925926],[0.011458333333333333,0.1425925925925926],[0.011458333333333333,0.1425925925925926],[0.011458333333333333,0.1425925925925926],[0.011458333333333333,0.1425925925925926],[0.011458333333333333,0.1425925925925926],[0.011458333333333333,0.1425925925925926],[0.011458333333333333,0.1425925925925926],[0.011458333333333333,0.1425925925925926],[0.011458333333333333,0.1425925925925926],[0.011458333333333333,0.1425925925925926],[0.011458333333333333,0.1425925925925926],[0.011458333333333333,0.1425925925925926],[0.011458333333333333,0.1425925925925926]]","[[-0.010208333333333286,-0.16277777777777774],[-0.010208333333333286,-0.16277777777777774],[0.016666666666666666,-0.21703703703703703],[0.016666666666666666,-0.21703703703703703],[0.03875000000000005,-0.22759259259259254],[0.03875000000000005,-0.22759259259259254],[0.06677083333333324,-0.29685185185185187],[0.04562499999999995,-0.2831481481481481],[0.04562499999999995,-0.2831481481481481],[0.09145833333333328,-0.38203703703703706],[0.08645833333333333,-0.4425925925925926],[0.10729166666666666,-0.48499999999999993],[0.10729166666666666,-0.48499999999999993],[0.11510416666666666,-0.4962962962962963],[0.1196875000000001,-0.5096296296296297],[0.10697916666666671,-0.5048148148148148],[0.10135416666666662,-0.5114814814814814],[0.07666666666666658,-0.5520370370370371],[0.05302083333333331,-0.549074074074074],[0.051041666666666666,-0.571111111111111],[0.029791666666666692,-0.5561111111111111],[0.04614583333333329,-0.5072222222222221],[0.052187500000000026,-0.44296296296296295],[0.08624999999999995,-0.3866666666666667],[0.1046875,-0.35037037037037033],[0.1046875,-0.35037037037037033],[0.14874999999999997,-0.337037037037037],[0.14874999999999997,-0.337037037037037],[0.1453125,-0.34740740740740744],[0.1453125,-0.34740740740740744],[0.14562499999999995,-0.33481481481481484],[0.165625,-0.29203703703703704],[0.165625,-0.29203703703703704],[0.14739583333333334,-0.2264814814814815],[0.12947916666666662,-0.16944444444444445],[0.08927083333333338,-0.13259259259259262],[0.08020833333333334,-0.12518518518518523],[0.06156250000000003,-0.13277777777777774],[0.016250000000000025,-0.11685185185185189],[-0.03739583333333331,-0.09611111111111106],[-0.06656249999999998,-0.05462962962962963],[-0.06656249999999998,-0.05462962962962963],[-0.06843750000000005,0.023148148148148147],[-0.09552083333333337,0.046481481481481526],[-0.1094791666666667,0.04425925925925922],[-0.12541666666666665,0.04129629629629621],[-0.08760416666666669,0.016851851851851896],[-0.08406250000000005,-0.00722222222222218],[-0.1123958333333333,0.02962962962962963],[-0.10885416666666667,0.055000000000000084],[-0.0811458333333333,0.009074074074074031],[-0.05395833333333329,-0.022222222222222223],[-0.06416666666666669,-0.07092592592592595],[-0.07708333333333334,-0.07555555555555557],[-0.04020833333333336,-0.05],[-0.016770833333333356,-0.003703703703703704],[-0.008541666666666715,-0.032407407407407406],[-0.009895833333333333,-0.019999999999999917],[0.013854166666666619,-0.056296296296296254],[0.03760416666666669,-0.09259259259259259],[0.04458333333333329,-0.03037037037037033],[0.04500000000000005,0.027407407407407325],[0.07729166666666672,0.04796296296296292],[0.11104166666666657,0.05555555555555555],[0.08697916666666666,0.05277777777777778],[0.10833333333333334,0.02092592592592584],[0.121875,0.01722222222222214],[0.121875,0.01722222222222214],[0.13145833333333337,0.022592592592592678],[0.13145833333333337,0.022592592592592678],[0.13145833333333337,0.04981481481481477],[0.15135416666666662,0.03981481481481482],[0.15135416666666662,0.03981481481481482],[0.12895833333333329,0.025925925925925925],[0.1397916666666667,-0.010370370370370412],[0.14354166666666662,-0.036481481481481566],[0.1478125000000001,-0.06111111111111111],[0.1890625,-0.09518518518518514],[0.19343750000000004,-0.10981481481481484],[0.1818749999999999,-0.06555555555555552],[0.17697916666666677,0.006481481481481481],[0.18302083333333338,0.03629629629629634],[0.14312500000000009,0.09277777777777782],[0.13937499999999994,0.10388888888888893],[0.12999999999999995,0.08962962962962959],[0.1415625000000001,0.062037037037037036],[0.11416666666666657,0.09592592592592585],[0.11197916666666667,0.13333333333333333],[0.09770833333333329,0.17388888888888884],[0.10052083333333334,0.14907407407407408],[0.07718749999999991,0.12259259259259268],[0.051250000000000046,0.08944444444444435],[0.05447916666666662,0.06611111111111119],[0.05645833333333338,0.06481481481481481],[0.04354166666666662,0.08000000000000008],[0.009687499999999953,0.10851851851851856],[0.03343750000000002,0.07703703703703708],[0.026250000000000048,0.05],[0.02520833333333338,-0.036481481481481566],[0.019270833333333334,-0.07370370370370373],[0.02645833333333331,-0.102962962962963],[0.035520833333333356,-0.12185185185185188],[0.042916666666666714,-0.10555555555555556],[0.050312499999999954,-0.08925925925925923],[0.0743750000000001,-0.12074074074074072],[0.11739583333333338,-0.10740740740740741],[0.12770833333333323,-0.08666666666666668],[0.11218750000000005,-0.15037037037037035],[0.14552083333333338,-0.055185185185185205],[0.1734375,0.03592592592592588],[0.20041666666666677,0.09722222222222222],[0.20177083333333337,0.06537037037037029],[0.20083333333333328,0.0198148148148149],[0.22302083333333325,-0.005740740740740783],[0.19239583333333338,-0.020555555555555598],[0.1578125,-0.06314814814814819],[0.1252083333333334,-0.01648148148148144],[0.1453125,0.05462962962962963],[0.1321875000000001,0.04296296296296305],[0.12447916666666667,0.03537037037037041],[0.12333333333333343,-0.03777777777777774],[0.15052083333333333,-0.01314814814814819],[0.17197916666666657,-0.018148148148148063],[0.1681250000000001,-0.036481481481481566],[0.1853125000000001,0.053703703703703705],[0.1875,0.12685185185185185],[0.1875,0.12685185185185185],[0.19375,0.0712962962962963],[0.18854166666666666,0.07222222222222222],[0.18854166666666666,0.07222222222222222],[0.17531249999999995,0.11277777777777774],[0.16208333333333325,0.15333333333333324],[0.16302083333333334,0.22555555555555548],[0.1474999999999999,0.28425925925925927],[0.1368750000000001,0.32333333333333336],[0.1368750000000001,0.32333333333333336],[0.11677083333333324,0.36203703703703705],[0.12145833333333324,0.3351851851851852],[0.13291666666666657,0.2875925925925925],[0.15041666666666675,0.282037037037037],[0.15041666666666675,0.282037037037037],[0.1634375000000001,0.31796296296296306],[0.1734375,0.30629629629629623],[0.1734375,0.30629629629629623],[0.19302083333333328,0.2964814814814815],[0.1866666666666667,0.25703703703703695],[0.19104166666666675,0.22833333333333325],[0.20583333333333323,0.2588888888888888],[0.23854166666666668,0.24166666666666667],[0.24770833333333328,0.2574074074074074],[0.19697916666666657,0.2272222222222223],[0.15322916666666658,0.25037037037037047],[0.14010416666666667,0.21296296296296297],[0.12406249999999991,0.1588888888888888],[0.10416666666666667,0.1270370370370371],[0.10020833333333339,0.12240740740740745],[0.10020833333333339,0.12240740740740745],[0.06458333333333334,0.1388888888888889],[0.02020833333333331,0.12462962962962955],[-0.0016666666666666904,0.11185185185185181],[-0.015312500000000047,0.08129629629629626],[0.01270833333333338,0.10925925925925926],[0.03322916666666664,0.07388888888888885],[0.0140625,0.0455555555555556],[0.015312500000000047,0.01444444444444436],[0.013645833333333357,-0.002407407407407323],[0.01593749999999995,-0.012037037037037037],[0.05364583333333333,-0.048333333333333374],[0.058541666666666714,-0.07685185185185185],[0.02385416666666664,-0.056851851851851834],[0.01083333333333331,-0.07703703703703708],[0.00927083333333331,-0.08907407407407411],[-0.015104166666666667,-0.01962962962962967],[-0.03250000000000005,-0.006296296296296254],[-0.06677083333333336,0.026111111111111154],[-0.09885416666666665,0.030740740740740784],[-0.13374999999999998,0.06740740740740736],[-0.17916666666666667,0.11481481481481481],[-0.18031250000000001,0.14574074074074084],[-0.1609375,0.13277777777777786],[-0.16062500000000005,0.19537037037037036],[-0.16031249999999997,0.2579629629629629],[-0.11854166666666661,0.21481481481481482],[-0.11385416666666662,0.26500000000000007],[-0.11385416666666662,0.26500000000000007],[-0.11458333333333333,0.30240740740740735],[-0.08562500000000005,0.28462962962962973],[-0.08562500000000005,0.28462962962962973],[-0.07947916666666661,0.2996296296296295],[-0.06083333333333331,0.3290740740740742],[-0.06083333333333331,0.3290740740740742],[-0.034062500000000044,0.31962962962962965],[-0.022083333333333382,0.3603703703703704],[-0.001145833333333357,0.37833333333333324],[-0.001145833333333357,0.37833333333333324],[0.016145833333333335,0.38185185185185194],[0.022708333333333285,0.41759259259259257],[0.07114583333333328,0.45740740740740743],[0.12572916666666673,0.49962962962962953],[0.13697916666666668,0.5757407407407407],[0.15208333333333332,0.5851851851851851],[0.15208333333333332,0.5851851851851851],[0.15093750000000009,0.5798148148148149],[0.13479166666666675,0.5881481481481482],[0.12135416666666667,0.6070370370370369],[0.09635416666666667,0.6133333333333334],[0.10041666666666677,0.6242592592592593],[0.09708333333333338,0.6372222222222222],[0.06364583333333336,0.657037037037037],[0.027395833333333286,0.6388888888888888],[0.017812500000000023,0.6170370370370372],[0.0265625,0.6127777777777778],[0.05562499999999997,0.6201851851851852],[0.06218750000000005,0.6301851851851851],[0.05135416666666662,0.5894444444444443],[0.057187499999999974,0.562962962962963],[0.04375,0.5677777777777778],[0.01229166666666662,0.5712962962962963],[0.01270833333333338,0.5218518518518518],[0.01739583333333338,0.5024074074074073],[0.01895833333333338,0.5044444444444444],[0.01895833333333338,0.5044444444444444],[0.03239583333333336,0.5324074074074074],[0.025729166666666713,0.515925925925926],[0.04895833333333333,0.5322222222222222],[0.04895833333333333,0.5322222222222222],[0.0626041666666667,0.5872222222222223],[0.10250000000000009,0.6096296296296297],[0.12010416666666662,0.6122222222222222],[0.12010416666666662,0.6122222222222222],[0.12958333333333344,0.5968518518518517],[0.1412499999999999,0.6105555555555556],[0.1625,0.6203703703703703],[0.16885416666666658,0.6231481481481481],[0.1502083333333334,0.590925925925926],[0.1453125,0.5712962962962963],[0.14260416666666675,0.5446296296296297],[0.14260416666666675,0.5446296296296297],[0.16927083333333334,0.5046296296296297],[0.1408333333333334,0.46407407407407414],[0.1365624999999999,0.4068518518518519],[0.1584374999999999,0.368888888888889],[0.16458333333333333,0.325],[0.1515625,0.32166666666666677],[0.1609375,0.3088888888888888],[0.1609375,0.3088888888888888],[0.16875,0.3199999999999999],[0.16875,0.3199999999999999],[0.1779166666666666,0.3533333333333332],[0.1779166666666666,0.3533333333333332],[0.17572916666666671,0.3396296296296296],[0.1570833333333333,0.38129629629629624],[0.14260416666666675,0.4740740740740741],[0.10104166666666667,0.5511111111111111],[0.08958333333333333,0.644814814814815],[0.05166666666666669,0.7024074074074074],[0.02385416666666664,0.6933333333333332],[-0.003333333333333381,0.6831481481481481],[-0.003333333333333381,0.6831481481481481],[-0.06354166666666666,0.6418518518518519],[-0.06354166666666666,0.6418518518518519],[-0.09645833333333335,0.5661111111111112],[-0.11541666666666663,0.5612962962962963],[-0.11791666666666671,0.5011111111111112],[-0.10520833333333333,0.41500000000000004],[-0.07052083333333338,0.36740740740740735],[-0.04739583333333333,0.30944444444444447],[-0.005624999999999976,0.2657407407407407],[0.036249999999999956,0.227962962962963],[0.05510416666666664,0.2007407407407407],[0.05510416666666664,0.2007407407407407],[0.12489583333333343,0.24351851851851852],[0.16270833333333337,0.3277777777777778],[0.16333333333333327,0.35722222222222216],[0.16333333333333327,0.35722222222222216],[0.17333333333333342,0.38574074074074066],[0.21427083333333338,0.36148148148148157],[0.2522916666666667,0.32944444444444443],[0.24385416666666657,0.3651851851851853],[0.26375000000000004,0.38981481481481484],[0.26375000000000004,0.38981481481481484],[0.2598958333333333,0.38203703703703695],[0.2598958333333333,0.38203703703703695],[0.27458333333333323,0.41388888888888886],[0.28895833333333343,0.32166666666666677],[0.3108333333333334,0.2153703703703703],[0.3108333333333334,0.2153703703703703],[0.3689583333333334,0.15259259259259256],[0.39427083333333335,0.09685185185185177],[0.3650000000000001,0.09814814814814815],[0.3650000000000001,0.09814814814814815],[0.34958333333333325,0.054074074074074156],[0.3655208333333334,-0.06296296296296296],[0.3609375,-0.1653703703703704],[0.3609375,-0.1653703703703704],[0.38260416666666663,-0.1896296296296296],[0.38260416666666663,-0.1896296296296296],[0.36062500000000003,-0.27759259259259256],[0.3546875,-0.29314814814814816],[0.3546875,-0.29314814814814816],[0.3476041666666667,-0.3153703703703704],[0.3246875000000001,-0.3446296296296297],[0.33572916666666663,-0.3587037037037037],[0.31968750000000007,-0.36314814814814816],[0.3351041666666667,-0.30944444444444447],[0.3351041666666667,-0.30944444444444447],[0.34187500000000004,-0.259074074074074],[0.34187500000000004,-0.259074074074074],[0.3381249999999999,-0.21944444444444444],[0.3536458333333333,-0.175],[0.3828125,-0.15055555555555558],[0.3828125,-0.15055555555555558],[0.3871875000000001,-0.2037037037037037],[0.39052083333333343,-0.17388888888888884],[0.3803124999999999,-0.1537037037037037],[0.3803124999999999,-0.1537037037037037],[0.37312500000000004,-0.21148148148148146],[0.38729166666666665,-0.252962962962963],[0.3664583333333333,-0.33259259259259266],[0.3523958333333333,-0.3933333333333333],[0.3453125,-0.3205555555555556],[0.31583333333333335,-0.2742592592592593],[0.34395833333333337,-0.26055555555555554],[0.34395833333333337,-0.26055555555555554],[0.3779166666666666,-0.1712962962962963],[0.33010416666666675,-0.2044444444444444],[0.3146874999999999,-0.2309259259259259],[0.2698958333333332,-0.23018518518518521],[0.253125,-0.25037037037037035],[0.24333333333333323,-0.22833333333333336],[0.23093750000000005,-0.18574074074074076],[0.22208333333333338,-0.26592592592592595],[0.22208333333333338,-0.26592592592592595],[0.2335416666666667,-0.43925925925925924],[0.1857291666666666,-0.5237037037037037],[0.14770833333333327,-0.585],[0.24927083333333327,-0.5312962962962963],[0.2777083333333332,-0.552962962962963],[0.3267708333333334,-0.5957407407407407],[0.3701041666666666,-0.6533333333333333],[0.38947916666666677,-0.5833333333333334],[0.40989583333333335,-0.5505555555555556],[0.43208333333333326,-0.5990740740740741],[0.46156249999999993,-0.5537037037037037],[0.46156249999999993,-0.5537037037037037],[0.4977083333333333,-0.5727777777777778],[0.5204166666666665,-0.5805555555555556],[0.5145833333333333,-0.6301851851851852],[0.5145833333333333,-0.6301851851851852],[0.49104166666666677,-0.5851851851851851],[0.4891666666666666,-0.48],[0.5141666666666665,-0.4064814814814815],[0.5141666666666665,-0.4064814814814815],[0.5377083333333333,-0.4861111111111111],[0.5277083333333332,-0.5059259259259259],[0.5159374999999999,-0.4444444444444444],[0.4986458333333334,-0.39148148148148143],[0.45645833333333335,-0.2548148148148149],[0.44520833333333343,-0.1853703703703704],[0.40302083333333344,-0.14833333333333337],[0.40302083333333344,-0.14833333333333337],[0.4505208333333333,-0.17925925925925928],[0.4505208333333333,-0.17925925925925928],[0.44291666666666674,-0.1801851851851852],[0.44291666666666674,-0.1801851851851852],[0.39822916666666663,-0.1559259259259259],[0.3805208333333333,-0.19314814814814818],[0.3805208333333333,-0.19314814814814818],[0.36385416666666665,-0.1881481481481482],[0.36385416666666665,-0.1881481481481482],[0.35812499999999997,-0.16351851851851854],[0.32083333333333336,-0.17018518518518513],[0.32083333333333336,-0.17018518518518513],[0.3288541666666667,-0.19462962962962968],[0.29562499999999997,-0.2],[0.321875,-0.227962962962963],[0.321875,-0.227962962962963],[0.27395833333333336,-0.16370370370370366],[0.2271874999999999,-0.10351851851851848],[0.20541666666666672,-0.09722222222222222],[0.1544791666666666,-0.029259259259259176],[0.14791666666666667,-0.06388888888888888],[0.14791666666666667,-0.06388888888888888],[0.1430208333333333,-0.06833333333333329],[0.18010416666666676,-0.07814814814814813],[0.20322916666666657,-0.10166666666666663],[0.20322916666666657,-0.10166666666666663],[0.17927083333333324,-0.09703703703703699],[0.10229166666666671,-0.062407407407407384],[0.10229166666666671,-0.062407407407407384],[0.09697916666666657,-0.05870370370370368],[0.09197916666666663,-0.11925925925925922],[0.07416666666666671,-0.11222222222222226],[0.07416666666666671,-0.11222222222222226],[0.06645833333333329,-0.06962962962962967],[0.04864583333333338,-0.06314814814814819],[0.013229166666666714,-0.14814814814814814],[-0.049687500000000044,-0.147037037037037],[-0.10010416666666669,-0.1294444444444444],[-0.07989583333333337,-0.11018518518518519],[-0.096875,-0.12185185185185188],[-0.096875,-0.12185185185185188],[-0.11583333333333339,-0.10499999999999998],[-0.09416666666666665,-0.056851851851851834],[-0.06499999999999997,-0.05185185185185185],[-0.06499999999999997,-0.05185185185185185],[-0.035625000000000046,-0.07388888888888885],[0.004270833333333357,-0.05740740740740741],[0.04635416666666667,0.016666666666666666],[0.0834374999999999,0.049074074074074076],[0.10499999999999995,0.03796296296296296],[0.13791666666666677,0.06185185185185181],[0.15875000000000009,0.09962962962962954],[0.18583333333333343,0.1485185185185186],[0.20010416666666658,0.14166666666666666],[0.2179166666666667,0.20185185185185187],[0.21583333333333338,0.2757407407407407],[0.20145833333333343,0.3477777777777777],[0.184375,0.3538888888888889],[0.16197916666666667,0.3611111111111111],[0.14427083333333332,0.3509259259259259],[0.10541666666666671,0.2898148148148148],[0.08010416666666677,0.23129629629629625],[0.03343750000000002,0.1425925925925926],[0.000416666666666643,0.13907407407407413],[-0.05656249999999995,0.08666666666666659],[-0.05656249999999995,0.08666666666666659],[-0.07177083333333331,0.03537037037037041],[-0.09020833333333336,-0.036481481481481566],[-0.09020833333333336,-0.036481481481481566],[-0.09510416666666661,-0.07796296296296301],[-0.09291666666666672,-0.10925925925925926],[-0.08572916666666662,-0.12222222222222222],[-0.07833333333333338,-0.13537037037037042],[-0.04104166666666664,-0.14722222222222223],[-0.02322916666666662,-0.16518518518518516],[-0.005729166666666666,-0.18407407407407403],[0.022604166666666713,-0.18592592592592588],[0.04656250000000005,-0.2190740740740741],[0.06770833333333333,-0.22407407407407406],[0.058229166666666644,-0.18277777777777776],[0.053125,-0.16074074074074077],[0.053125,-0.16074074074074077],[0.028854166666666715,-0.1205555555555556],[-0.00458333333333331,-0.11888888888888886],[-0.03864583333333336,-0.11148148148148146],[-0.03864583333333336,-0.11148148148148146],[-0.0453125,-0.08851851851851854],[-0.06583333333333338,-0.0992592592592593],[-0.06583333333333338,-0.0992592592592593],[-0.059687499999999956,-0.040370370370370286],[-0.07354166666666669,-0.04462962962962967],[-0.09177083333333336,-0.025185185185185227],[-0.08739583333333331,-0.032407407407407406],[-0.08739583333333331,-0.032407407407407406],[-0.11104166666666669,-0.05425925925925928],[-0.13697916666666668,0.001851851851851852],[-0.1296875,0.0507407407407407],[-0.12145833333333336,0.13185185185185194],[-0.12864583333333332,0.15611111111111103],[-0.11947916666666672,0.2361111111111111],[-0.1586458333333333,0.21518518518518526]]","[[-0.010208333333333286,-0.16277777777777774,0.00029999995231833054],[-0.010208333333333286,-0.16277777777777774,0.03759999996423602],[0.016666666666666666,-0.21703703703703703,0.04929999995231782],[0.016666666666666666,-0.21703703703703703,0.06850000000000023],[0.03875000000000005,-0.22759259259259254,0.08779999995231691],[0.03875000000000005,-0.22759259259259254,0.09550000000000125],[0.06677083333333324,-0.29685185185185187,0.10829999995231532],[0.04562499999999995,-0.2831481481481481,0.12589999997616275],[0.04562499999999995,-0.2831481481481481,0.14159999996424233],[0.09145833333333328,-0.38203703703703706,0.15829999995231958],[0.08645833333333333,-0.4425925925925926,0.17489999997616223],[0.10729166666666666,-0.48499999999999993,0.1915000000000049],[0.10729166666666666,-0.48499999999999993,0.20879999995231913],[0.11510416666666666,-0.4962962962962963,0.22479999995231736],[0.1196875000000001,-0.5096296296296297,0.24150000000000205],[0.10697916666666671,-0.5048148148148148,0.258299999952321],[0.10135416666666662,-0.5114814814814814,0.2785000000000011],[0.07666666666666658,-0.5520370370370371,0.2944999999999993],[0.05302083333333331,-0.549074074074074,0.3090999999642392],[0.051041666666666666,-0.571111111111111,0.32500000000000284],[0.029791666666666692,-0.5561111111111111,0.34159999996423807],[0.04614583333333329,-0.5072222222222221,0.3581999999880807],[0.052187500000000026,-0.44296296296296295,0.375],[0.08624999999999995,-0.3866666666666667,0.3915000000000006],[0.1046875,-0.35037037037037033,0.4082999999523196],[0.1046875,-0.35037037037037033,0.42489999997616223],[0.14874999999999997,-0.337037037037037,0.4417999999523161],[0.14874999999999997,-0.337037037037037,0.45829999995231674],[0.1453125,-0.34740740740740744,0.475099999964236],[0.1453125,-0.34740740740740744,0.49159999996423664],[0.14562499999999995,-0.33481481481481484,0.508299999952321],[0.165625,-0.29203703703703704,0.52769999998808],[0.165625,-0.29203703703703704,0.5417999999523175],[0.14739583333333334,-0.2264814814814815,0.5581999999880836],[0.12947916666666662,-0.16944444444444445,0.5748999999761608],[0.08927083333333338,-0.13259259259259262,0.5915000000000035],[0.08020833333333334,-0.12518518518518523,0.6081999999880807],[0.06156250000000003,-0.13277777777777774,0.6295000000000002],[0.016250000000000025,-0.11685185185185189,0.643399999976161],[-0.03739583333333331,-0.09611111111111106,0.6581999999880779],[-0.06656249999999998,-0.05462962962962963,0.6750000000000043],[-0.06656249999999998,-0.05462962962962963,0.6918999999761581],[-0.06843750000000005,0.023148148148148147,0.7081999999880821],[-0.09552083333333337,0.046481481481481526,0.7247999999523174],[-0.1094791666666667,0.04425925925925922,0.741500000000002],[-0.12541666666666665,0.04129629629629621,0.7630000000000052],[-0.08760416666666669,0.016851851851851896,0.7785000000000011],[-0.08406250000000005,-0.00722222222222218,0.7916999999880829],[-0.1123958333333333,0.02962962962962963,0.8082999999523182],[-0.10885416666666667,0.055000000000000084,0.8248999999761608],[-0.0811458333333333,0.009074074074074031,0.8436999999880825],[-0.05395833333333329,-0.022222222222222223,0.8581999999880807],[-0.06416666666666669,-0.07092592592592595,0.8752999999523183],[-0.07708333333333334,-0.07555555555555557,0.8916999999880773],[-0.04020833333333336,-0.05,0.9085999999642382],[-0.016770833333333356,-0.003703703703703704,0.9248999999761622],[-0.008541666666666715,-0.032407407407407406,0.9415999999642395],[-0.009895833333333333,-0.019999999999999917,0.9582999999523167],[0.013854166666666619,-0.056296296296296254,0.9773999999761571],[0.03760416666666669,-0.09259259259259259,0.991500000000002],[0.04458333333333329,-0.03037037037037033,1.0081999999880793],[0.04500000000000005,0.027407407407407325,1.0248999999761566],[0.07729166666666672,0.04796296296296292,1.041599999964241],[0.11104166666666657,0.05555555555555555,1.0580999999642415],[0.08697916666666666,0.05277777777777778,1.0756999999880819],[0.10833333333333334,0.02092592592592584,1.0950999999642406],[0.121875,0.01722222222222214,1.1120999999642365],[0.121875,0.01722222222222214,1.124899999976158],[0.13145833333333337,0.022592592592592678,1.1415999999642423],[0.13145833333333337,0.022592592592592678,1.1581999999880779],[0.13145833333333337,0.04981481481481477,1.1750000000000043],[0.15135416666666662,0.03981481481481482,1.1915000000000049],[0.15135416666666662,0.03981481481481482,1.2081999999880821],[0.12895833333333329,0.025925925925925925,1.2248999999761594],[0.1397916666666667,-0.010370370370370412,1.24289999997616],[0.14354166666666662,-0.036481481481481566,1.2581999999880793],[0.1478125000000001,-0.06111111111111111,1.2748999999761566],[0.1890625,-0.09518518518518514,1.291599999964241],[0.19343750000000004,-0.10981481481481484,1.3085000000000022],[0.1818749999999999,-0.06555555555555552,1.3283999999761633],[0.17697916666666677,0.006481481481481481,1.3455999999642358],[0.18302083333333338,0.03629629629629634,1.3622999999523202],[0.14312500000000009,0.09277777777777782,1.3781999999880838],[0.13937499999999994,0.10388888888888893,1.3920999999642376],[0.12999999999999995,0.08962962962962959,1.4080999999642358],[0.1415625000000001,0.062037037037037036,1.4247999999523202],[0.11416666666666657,0.09592592592592585,1.4447999999523162],[0.11197916666666667,0.13333333333333333,1.4581999999880821],[0.09770833333333329,0.17388888888888884,1.4750000000000014],[0.10052083333333334,0.14907407407407408,1.4915999999642366],[0.07718749999999991,0.12259259259259268,1.5081999999880793],[0.051250000000000046,0.08944444444444435,1.5248999999761566],[0.05447916666666662,0.06611111111111119,1.5414999999999992],[0.05645833333333338,0.06481481481481481,1.5581999999880836],[0.04354166666666662,0.08000000000000008,1.5751999999880795],[0.009687499999999953,0.10851851851851856,1.5915000000000035],[0.03343750000000002,0.07703703703703708,1.6080999999642387],[0.026250000000000048,0.05,1.624799999952316],[0.02520833333333338,-0.036481481481481566,1.6462999999523191],[0.019270833333333334,-0.07370370370370373,1.661099999964236],[0.02645833333333331,-0.102962962962963,1.677500000000002],[0.035520833333333356,-0.12185185185185188,1.6917999999523161],[0.042916666666666714,-0.10555555555555556,1.7081999999880821],[0.050312499999999954,-0.08925925925925923,1.7247999999523174],[0.0743750000000001,-0.12074074074074072,1.741500000000002],[0.11739583333333338,-0.10740740740740741,1.7581999999880793],[0.12770833333333323,-0.08666666666666668,1.7762999999523146],[0.11218750000000005,-0.15037037037037035,1.7914999999999992],[0.14552083333333338,-0.055185185185185205,1.8081999999880836],[0.1734375,0.03592592592592588,1.8248999999761608],[0.20041666666666677,0.09722222222222222,1.841599999964238],[0.20177083333333337,0.06537037037037029,1.8581999999880807],[0.20083333333333328,0.0198148148148149,1.874899999976158],[0.22302083333333325,-0.005740740740740783,1.8915000000000006],[0.19239583333333338,-0.020555555555555598,1.9081999999880779],[0.1578125,-0.06314814814814819,1.9250999999642389],[0.1252083333333334,-0.01648148148148144,1.9415999999642395],[0.1453125,0.05462962962962963,1.9581999999880821],[0.1321875000000001,0.04296296296296305,1.9795999999642362],[0.12447916666666667,0.03537037037037041,1.9960999999642368],[0.12333333333333343,-0.03777777777777774,2.012099999964242],[0.15052083333333333,-0.01314814814814819,2.02769999998808],[0.17197916666666657,-0.018148148148148063,2.0456999999880807],[0.1681250000000001,-0.036481481481481566,2.0626999999880837],[0.1853125000000001,0.053703703703703705,2.0787999999523166],[0.1875,0.12685185185185185,2.0966999999880827],[0.1875,0.12685185185185185,2.1082999999523153],[0.19375,0.0712962962962963,2.124899999976158],[0.18854166666666666,0.07222222222222222,2.14709999996424],[0.18854166666666666,0.07222222222222222,2.1592999999523173],[0.17531249999999995,0.11277777777777774,2.1748999999761622],[0.16208333333333325,0.15333333333333324,2.195799999952321],[0.16302083333333334,0.22555555555555548,2.2146999999880776],[0.1474999999999999,0.28425925925925927,2.229699999988078],[0.1368750000000001,0.32333333333333336,2.24589999997616],[0.1368750000000001,0.32333333333333336,2.2581999999880793],[0.11677083333333324,0.36203703703703705,2.2748999999761566],[0.12145833333333324,0.3351851851851852,2.292500000000004],[0.13291666666666657,0.2875925925925925,2.308699999988079],[0.15041666666666675,0.282037037037037,2.3306999999880773],[0.15041666666666675,0.282037037037037,2.3415000000000035],[0.1634375000000001,0.31796296296296306,2.3581999999880807],[0.1734375,0.30629629629629623,2.378199999988084],[0.1734375,0.30629629629629623,2.3915000000000006],[0.19302083333333328,0.2964814814814815,2.408199999988078],[0.1866666666666667,0.25703703703703695,2.42479999995232],[0.19104166666666675,0.22833333333333325,2.4423999999761605],[0.20583333333333323,0.2588888888888888,2.4586999999880774],[0.23854166666666668,0.24166666666666667,2.479199999988083],[0.24770833333333328,0.2574074074074074,2.4950000000000045],[0.19697916666666657,0.2272222222222223,2.511299999952321],[0.15322916666666658,0.25037037037037047,2.5285999999642357],[0.14010416666666667,0.21296296296296297,2.5450999999642363],[0.12406249999999991,0.1588888888888888,2.5603999999761626],[0.10416666666666667,0.1270370370370371,2.5784999999999982],[0.10020833333333339,0.12240740740740745,2.597099999964236],[0.10020833333333339,0.12240740740740745,2.6081999999880807],[0.06458333333333334,0.1388888888888889,2.624799999952316],[0.02020833333333331,0.12462962962962955,2.6415000000000006],[-0.0016666666666666904,0.11185185185185181,2.658799999952315],[-0.015312500000000047,0.08129629629629626,2.67589999997616],[0.01270833333333338,0.10925925925925926,2.6916999999880815],[0.03322916666666664,0.07388888888888885,2.708199999988082],[0.0140625,0.0455555555555556,2.725099999964236],[0.015312500000000047,0.01444444444444436,2.7447999999523205],[0.013645833333333357,-0.002407407407407323,2.7588999999761583],[0.01593749999999995,-0.012037037037037037,2.7748999999761566],[0.05364583333333333,-0.048333333333333374,2.791499999999999],[0.058541666666666714,-0.07685185185185185,2.809399999976158],[0.02385416666666664,-0.056851851851851834,2.824899999976161],[0.01083333333333331,-0.07703703703703708,2.8415000000000035],[0.00927083333333331,-0.08907407407407411,2.8583999999761573],[-0.015104166666666667,-0.01962962962962967,2.8783999999761605],[-0.03250000000000005,-0.006296296296296254,2.8938999999761563],[-0.06677083333333336,0.026111111111111154,2.908799999952315],[-0.09885416666666665,0.030740740740740784,2.92479999995232],[-0.13374999999999998,0.06740740740740736,2.9415999999642395],[-0.17916666666666667,0.11481481481481481,2.95809999996424],[-0.18031250000000001,0.14574074074074084,2.97679999995232],[-0.1609375,0.13277777777777786,2.9950000000000045],[-0.16062500000000005,0.19537037037037036,3.0118999999761584],[-0.16031249999999997,0.2579629629629629,3.0270999999642356],[-0.11854166666666661,0.21481481481481482,3.0466999999880784],[-0.11385416666666662,0.26500000000000007,3.0625999999642417],[-0.11385416666666662,0.26500000000000007,3.0750999999642374],[-0.11458333333333333,0.30240740740740735,3.0917999999523147],[-0.08562500000000005,0.28462962962962973,3.115000000000002],[-0.08562500000000005,0.28462962962962973,3.1260999999642394],[-0.07947916666666661,0.2996296296296295,3.141899999976161],[-0.06083333333333331,0.3290740740740742,3.1646999999880805],[-0.06083333333333331,0.3290740740740742,3.175099999964239],[-0.034062500000000044,0.31962962962962965,3.1916999999880815],[-0.022083333333333382,0.3603703703703704,3.2132999999523193],[-0.001145833333333357,0.37833333333333324,3.2307999999523176],[-0.001145833333333357,0.37833333333333324,3.241500000000002],[0.016145833333333335,0.38185185185185194,3.2580999999642373],[0.022708333333333285,0.41759259259259257,3.278399999976159],[0.07114583333333328,0.45740740740740743,3.2951999999880783],[0.12572916666666673,0.49962962962962953,3.3115000000000023],[0.13697916666666668,0.5757407407407407,3.3250999999642374],[0.15208333333333332,0.5851851851851851,3.342500000000001],[0.15208333333333332,0.5851851851851851,3.3580999999642387],[0.15093750000000009,0.5798148148148149,3.374899999976158],[0.13479166666666675,0.5881481481481482,3.392000000000003],[0.12135416666666667,0.6070370370370369,3.4100000000000037],[0.09635416666666667,0.6133333333333334,3.429000000000002],[0.10041666666666677,0.6242592592592593,3.4460999999642397],[0.09708333333333338,0.6372222222222222,3.4618999999761613],[0.06364583333333336,0.657037037037037,3.4792999999523175],[0.027395833333333286,0.6388888888888888,3.496099999964237],[0.017812500000000023,0.6170370370370372,3.512099999964242],[0.0265625,0.6127777777777778,3.5270999999642356],[0.05562499999999997,0.6201851851851852,3.5458999999761573],[0.06218750000000005,0.6301851851851851,3.5626999999880837],[0.05135416666666662,0.5894444444444443,3.5795999999642376],[0.057187499999999974,0.562962962962963,3.5945000000000036],[0.04375,0.5677777777777778,3.611799999952318],[0.01229166666666662,0.5712962962962963,3.629399999976158],[0.01270833333333338,0.5218518518518518,3.645699999988082],[0.01739583333333338,0.5024074074074073,3.660399999976157],[0.01895833333333338,0.5044444444444444,3.6785999999642414],[0.01895833333333338,0.5044444444444444,3.691399999976163],[0.03239583333333336,0.5324074074074074,3.708199999988082],[0.025729166666666713,0.515925925925926,3.7248999999761594],[0.04895833333333333,0.5322222222222222,3.742099999964239],[0.04895833333333333,0.5322222222222222,3.7580999999642373],[0.0626041666666667,0.5872222222222223,3.7749999999999986],[0.10250000000000009,0.6096296296296297,3.791399999976157],[0.12010416666666662,0.6122222222222222,3.809099999964239],[0.12010416666666662,0.6122222222222222,3.824799999952319],[0.12958333333333344,0.5968518518518517,3.8415000000000035],[0.1412499999999999,0.6105555555555556,3.8582999999523153],[0.1625,0.6203703703703703,3.878699999988079],[0.16885416666666658,0.6231481481481481,3.894899999976161],[0.1502083333333334,0.590925925925926,3.913399999976157],[0.1453125,0.5712962962962963,3.9285999999642414],[0.14260416666666675,0.5446296296296297,3.9455999999642373],[0.14260416666666675,0.5446296296296297,3.9582999999523167],[0.16927083333333334,0.5046296296296297,3.9748999999761594],[0.1408333333333334,0.46407407407407414,3.991500000000002],[0.1365624999999999,0.4068518518518519,4.008299999952321],[0.1584374999999999,0.368888888888889,4.0248999999761566],[0.16458333333333333,0.325,4.042599999964239],[0.1515625,0.32166666666666677,4.058599999964237],[0.1609375,0.3088888888888888,4.0758999999761585],[0.1609375,0.3088888888888888,4.0915000000000035],[0.16875,0.3199999999999999,4.108199999988081],[0.16875,0.3199999999999999,4.124799999952316],[0.1779166666666666,0.3533333333333332,4.141699999988077],[0.1779166666666666,0.3533333333333332,4.15829999995232],[0.17572916666666671,0.3396296296296296,4.174899999976162],[0.1570833333333333,0.38129629629629624,4.192199999988084],[0.14260416666666675,0.4740740740740741,4.208199999988082],[0.10104166666666667,0.5511111111111111,4.225199999988078],[0.08958333333333333,0.644814814814815,4.241500000000002],[0.05166666666666669,0.7024074074074074,4.258099999964237],[0.02385416666666664,0.6933333333333332,4.275799999952319],[-0.003333333333333381,0.6831481481481481,4.295699999988081],[-0.003333333333333381,0.6831481481481481,4.314],[-0.06354166666666666,0.6418518518518519,4.330599999964242],[-0.06354166666666666,0.6418518518518519,4.343099999964238],[-0.09645833333333335,0.5661111111111112,4.363099999964241],[-0.11541666666666663,0.5612962962962963,4.378],[-0.11791666666666671,0.5011111111111112,4.391599999964242],[-0.10520833333333333,0.41500000000000004,4.410599999964241],[-0.07052083333333338,0.36740740740740735,4.425000000000004],[-0.04739583333333333,0.30944444444444447,4.443699999988084],[-0.005624999999999976,0.2657407407407407,4.4609999999999985],[0.036249999999999956,0.227962962962963,4.47529999995232],[0.05510416666666664,0.2007407407407407,4.491599999964237],[0.05510416666666664,0.2007407407407407,4.508199999988079],[0.12489583333333343,0.24351851851851852,4.527999999999999],[0.16270833333333337,0.3277777777777778,4.5417999999523175],[0.16333333333333327,0.35722222222222216,4.558500000000002],[0.16333333333333327,0.35722222222222216,4.578299999952321],[0.17333333333333342,0.38574074074074066,4.591799999952315],[0.21427083333333338,0.36148148148148157,4.608799999952318],[0.2522916666666667,0.32944444444444443,4.625],[0.24385416666666657,0.3651851851851853,4.646099999964235],[0.26375000000000004,0.38981481481481484,4.662099999964241],[0.26375000000000004,0.38981481481481484,4.675199999988081],[0.2598958333333333,0.38203703703703695,4.691799999952316],[0.2598958333333333,0.38203703703703695,4.708199999988082],[0.27458333333333323,0.41388888888888886,4.727399999976157],[0.28895833333333343,0.32166666666666677,4.741500000000002],[0.3108333333333334,0.2153703703703703,4.758099999964237],[0.3108333333333334,0.2153703703703703,4.779099999964238],[0.3689583333333334,0.15259259259259256,4.791699999988083],[0.39427083333333335,0.09685185185185177,4.80839999997616],[0.3650000000000001,0.09814814814814815,4.827899999976161],[0.3650000000000001,0.09814814814814815,4.84169999998808],[0.34958333333333325,0.054074074074074156,4.858299999952315],[0.3655208333333334,-0.06296296296296296,4.875099999964242],[0.3609375,-0.1653703703703704,4.894699999988077],[0.3609375,-0.1653703703703704,4.90829999995232],[0.38260416666666663,-0.1896296296296296,4.925099999964239],[0.38260416666666663,-0.1896296296296296,4.944199999988079],[0.36062500000000003,-0.27759259259259256,4.958299999952317],[0.3546875,-0.29314814814814816,4.980299999952315],[0.3546875,-0.29314814814814816,4.991599999964237],[0.3476041666666667,-0.3153703703703704,5.008199999988079],[0.3246875000000001,-0.3446296296296297,5.0247999999523145],[0.33572916666666663,-0.3587037037037037,5.041499999999999],[0.31968750000000007,-0.36314814814814816,5.061199999988084],[0.3351041666666667,-0.30944444444444447,5.0773999999761585],[0.3351041666666667,-0.30944444444444447,5.091599999964238],[0.34187500000000004,-0.259074074074074,5.108499999999999],[0.34187500000000004,-0.259074074074074,5.124899999976158],[0.3381249999999999,-0.21944444444444444,5.141500000000001],[0.3536458333333333,-0.175,5.161399999976162],[0.3828125,-0.15055555555555558,5.175000000000004],[0.3828125,-0.15055555555555558,5.194500000000005],[0.3871875000000001,-0.2037037037037037,5.208399999976159],[0.39052083333333343,-0.17388888888888884,5.225000000000001],[0.3803124999999999,-0.1537037037037037,5.24439999997616],[0.3803124999999999,-0.1537037037037037,5.258099999964237],[0.37312500000000004,-0.21148148148148146,5.2748999999761566],[0.38729166666666665,-0.252962962962963,5.293599999964236],[0.3664583333333333,-0.33259259259259266,5.308199999988084],[0.3523958333333333,-0.3933333333333333,5.328899999976159],[0.3453125,-0.3205555555555556,5.343799999952317],[0.31583333333333335,-0.2742592592592593,5.358099999964239],[0.34395833333333337,-0.26055555555555554,5.375199999988084],[0.34395833333333337,-0.26055555555555554,5.391500000000001],[0.3779166666666666,-0.1712962962962963,5.408199999988078],[0.33010416666666675,-0.2044444444444444,5.4246999999880785],[0.3146874999999999,-0.2309259259259259,5.441500000000005],[0.2698958333333332,-0.23018518518518521,5.45809999996424],[0.253125,-0.25037037037037035,5.477499999999999],[0.24333333333333323,-0.22833333333333336,5.491500000000002],[0.23093750000000005,-0.18574074074074076,5.511899999976158],[0.22208333333333338,-0.26592592592592595,5.529899999976159],[0.22208333333333338,-0.26592592592592595,5.544199999988081],[0.2335416666666667,-0.43925925925925924,5.558199999988084],[0.1857291666666666,-0.5237037037037037,5.575399999976163],[0.14770833333333327,-0.585,5.596399999976157],[0.24927083333333327,-0.5312962962962963,5.611000000000004],[0.2777083333333332,-0.552962962962963,5.625299999952318],[0.3267708333333334,-0.5957407407407407,5.641699999988077],[0.3701041666666666,-0.6533333333333333,5.66279999995232],[0.38947916666666677,-0.5833333333333334,5.678099999964239],[0.40989583333333335,-0.5505555555555556,5.693699999988084],[0.43208333333333326,-0.5990740740740741,5.7116999999880775],[0.46156249999999993,-0.5537037037037037,5.730399999976157],[0.46156249999999993,-0.5537037037037037,5.741899999976162],[0.4977083333333333,-0.5727777777777778,5.758299999952321],[0.5204166666666665,-0.5805555555555556,5.778500000000001],[0.5145833333333333,-0.6301851851851852,5.795799999952315],[0.5145833333333333,-0.6301851851851852,5.808299999952318],[0.49104166666666677,-0.5851851851851851,5.825000000000003],[0.4891666666666666,-0.48,5.8443999999761616],[0.5141666666666665,-0.4064814814814815,5.858399999976157],[0.5141666666666665,-0.4064814814814815,5.875],[0.5377083333333333,-0.4861111111111111,5.895499999999998],[0.5277083333333332,-0.5059259259259259,5.910299999952315],[0.5159374999999999,-0.4444444444444444,5.925000000000004],[0.4986458333333334,-0.39148148148148143,5.945599999964237],[0.45645833333333335,-0.2548148148148149,5.9592999999523215],[0.44520833333333343,-0.1853703703703704,5.975999999999999],[0.40302083333333344,-0.14833333333333337,5.991599999964237],[0.40302083333333344,-0.14833333333333337,6.011399999976163],[0.4505208333333333,-0.17925925925925928,6.024999999999999],[0.4505208333333333,-0.17925925925925928,6.041699999988083],[0.44291666666666674,-0.1801851851851852,6.061799999952321],[0.44291666666666674,-0.1801851851851852,6.075299999952321],[0.39822916666666663,-0.1559259259259259,6.091599999964238],[0.3805208333333333,-0.19314814814814818,6.114799999952318],[0.3805208333333333,-0.19314814814814818,6.126599999964242],[0.36385416666666665,-0.1881481481481482,6.141699999988077],[0.36385416666666665,-0.1881481481481482,6.158399999976162],[0.35812499999999997,-0.16351851851851854,6.179399999976162],[0.32083333333333336,-0.17018518518518513,6.196199999988082],[0.32083333333333336,-0.17018518518518513,6.208299999952317],[0.3288541666666667,-0.19462962962962968,6.225000000000001],[0.29562499999999997,-0.2,6.247699999988079],[0.321875,-0.227962962962963,6.263799999952319],[0.321875,-0.227962962962963,6.274999999999999],[0.27395833333333336,-0.16370370370370366,6.2917999999523175],[0.2271874999999999,-0.10351851851851848,6.311699999988079],[0.20541666666666672,-0.09722222222222222,6.326299999952319],[0.1544791666666666,-0.029259259259259176,6.344599999964238],[0.14791666666666667,-0.06388888888888888,6.362599999964239],[0.14791666666666667,-0.06388888888888888,6.374899999976158],[0.1430208333333333,-0.06833333333333329,6.391599999964242],[0.18010416666666676,-0.07814814814814813,6.409299999952317],[0.20322916666666657,-0.10166666666666663,6.431199999988081],[0.20322916666666657,-0.10166666666666663,6.4416999999880815],[0.17927083333333324,-0.09703703703703699,6.458500000000001],[0.10229166666666671,-0.062407407407407384,6.477699999988083],[0.10229166666666671,-0.062407407407407384,6.495199999988081],[0.09697916666666657,-0.05870370370370368,6.508399999976163],[0.09197916666666663,-0.11925925925925922,6.5295999999642405],[0.07416666666666671,-0.11222222222222226,6.547000000000004],[0.07416666666666671,-0.11222222222222226,6.5580999999642415],[0.06645833333333329,-0.06962962962962967,6.579500000000003],[0.04864583333333338,-0.06314814814814819,6.596299999952315],[0.013229166666666714,-0.14814814814814814,6.6121999999880785],[-0.049687500000000044,-0.147037037037037,6.629699999988084],[-0.10010416666666669,-0.1294444444444444,6.646299999952319],[-0.07989583333333337,-0.11018518518518519,6.662299999952317],[-0.096875,-0.12185185185185188,6.6808999999761625],[-0.096875,-0.12185185185185188,6.6916999999880815],[-0.11583333333333339,-0.10499999999999998,6.70809999996424],[-0.09416666666666665,-0.056851851851851834,6.725199999988078],[-0.06499999999999997,-0.05185185185185185,6.743699999988081],[-0.06499999999999997,-0.05185185185185185,6.758199999988079],[-0.035625000000000046,-0.07388888888888885,6.775699999988078],[0.004270833333333357,-0.05740740740740741,6.791499999999999],[0.04635416666666667,0.016666666666666666,6.808500000000002],[0.0834374999999999,0.049074074074074076,6.824799999952319],[0.10499999999999995,0.03796296296296296,6.8421999999880825],[0.13791666666666677,0.06185185185185181,6.858199999988081],[0.15875000000000009,0.09962962962962954,6.875],[0.18583333333333343,0.1485185185185186,6.892299999952321],[0.20010416666666658,0.14166666666666666,6.911500000000004],[0.2179166666666667,0.20185185185185187,6.92479999995232],[0.21583333333333338,0.2757407407407407,6.941500000000005],[0.20145833333333343,0.3477777777777777,6.9616999999880775],[0.184375,0.3538888888888889,6.980599999964241],[0.16197916666666667,0.3611111111111111,6.996199999988079],[0.14427083333333332,0.3509259259259259,7.011399999976163],[0.10541666666666671,0.2898148148148148,7.028199999988082],[0.08010416666666677,0.23129629629629625,7.045999999999999],[0.03343750000000002,0.1425925925925926,7.061099999964242],[0.000416666666666643,0.13907407407407413,7.079299999952319],[-0.05656249999999995,0.08666666666666659,7.097899999976157],[-0.05656249999999995,0.08666666666666659,7.108099999964239],[-0.07177083333333331,0.03537037037037041,7.124799999952316],[-0.09020833333333336,-0.036481481481481566,7.14709999996424],[-0.09020833333333336,-0.036481481481481566,7.158199999988078],[-0.09510416666666661,-0.07796296296296301,7.174899999976162],[-0.09291666666666672,-0.10925925925925926,7.191399999976163],[-0.08572916666666662,-0.12222222222222222,7.208199999988082],[-0.07833333333333338,-0.13537037037037042,7.225000000000001],[-0.04104166666666664,-0.14722222222222223,7.2441999999880835],[-0.02322916666666662,-0.16518518518518516,7.258699999988082],[-0.005729166666666666,-0.18407407407407403,7.276299999952315],[0.022604166666666713,-0.18592592592592588,7.292500000000004],[0.04656250000000005,-0.2190740740740741,7.309399999976158],[0.06770833333333333,-0.22407407407407406,7.324899999976161],[0.058229166666666644,-0.18277777777777776,7.34169999998808],[0.053125,-0.16074074074074077,7.358099999964239],[0.053125,-0.16074074074074077,7.374799999952316],[0.028854166666666715,-0.1205555555555556,7.391399999976159],[-0.00458333333333331,-0.11888888888888886,7.409199999988083],[-0.03864583333333336,-0.11148148148148146,7.42479999995232],[-0.03864583333333336,-0.11148148148148146,7.441500000000005],[-0.0453125,-0.08851851851851854,7.45809999996424],[-0.06583333333333338,-0.0992592592592593,7.476099999964241],[-0.06583333333333338,-0.0992592592592593,7.491500000000002],[-0.059687499999999956,-0.040370370370370286,7.508099999964237],[-0.07354166666666669,-0.04462962962962967,7.524999999999999],[-0.09177083333333336,-0.025185185185185227,7.542099999964236],[-0.08739583333333331,-0.032407407407407406,7.558299999952318],[-0.08739583333333331,-0.032407407407407406,7.574799999952319],[-0.11104166666666669,-0.05425925925925928,7.591399999976161],[-0.13697916666666668,0.001851851851851852,7.608199999988081],[-0.1296875,0.0507407407407407,7.624899999976158],[-0.12145833333333336,0.13185185185185194,7.64219999998808],[-0.12864583333333332,0.15611111111111103,7.658599999964238],[-0.11947916666666672,0.2361111111111111,7.6752999999523155],[-0.1586458333333333,0.21518518518518526,7.691399999976163]]","[0.00029999995231833054,0.03759999996423602,0.04929999995231782,0.06850000000000023,0.08779999995231691,0.09550000000000125,0.10829999995231532,0.12589999997616275,0.14159999996424233,0.15829999995231958,0.17489999997616223,0.1915000000000049,0.20879999995231913,0.22479999995231736,0.24150000000000205,0.258299999952321,0.2785000000000011,0.2944999999999993,0.3090999999642392,0.32500000000000284,0.34159999996423807,0.3581999999880807,0.375,0.3915000000000006,0.4082999999523196,0.42489999997616223,0.4417999999523161,0.45829999995231674,0.475099999964236,0.49159999996423664,0.508299999952321,0.52769999998808,0.5417999999523175,0.5581999999880836,0.5748999999761608,0.5915000000000035,0.6081999999880807,0.6295000000000002,0.643399999976161,0.6581999999880779,0.6750000000000043,0.6918999999761581,0.7081999999880821,0.7247999999523174,0.741500000000002,0.7630000000000052,0.7785000000000011,0.7916999999880829,0.8082999999523182,0.8248999999761608,0.8436999999880825,0.8581999999880807,0.8752999999523183,0.8916999999880773,0.9085999999642382,0.9248999999761622,0.9415999999642395,0.9582999999523167,0.9773999999761571,0.991500000000002,1.0081999999880793,1.0248999999761566,1.041599999964241,1.0580999999642415,1.0756999999880819,1.0950999999642406,1.1120999999642365,1.124899999976158,1.1415999999642423,1.1581999999880779,1.1750000000000043,1.1915000000000049,1.2081999999880821,1.2248999999761594,1.24289999997616,1.2581999999880793,1.2748999999761566,1.291599999964241,1.3085000000000022,1.3283999999761633,1.3455999999642358,1.3622999999523202,1.3781999999880838,1.3920999999642376,1.4080999999642358,1.4247999999523202,1.4447999999523162,1.4581999999880821,1.4750000000000014,1.4915999999642366,1.5081999999880793,1.5248999999761566,1.5414999999999992,1.5581999999880836,1.5751999999880795,1.5915000000000035,1.6080999999642387,1.624799999952316,1.6462999999523191,1.661099999964236,1.677500000000002,1.6917999999523161,1.7081999999880821,1.7247999999523174,1.741500000000002,1.7581999999880793,1.7762999999523146,1.7914999999999992,1.8081999999880836,1.8248999999761608,1.841599999964238,1.8581999999880807,1.874899999976158,1.8915000000000006,1.9081999999880779,1.9250999999642389,1.9415999999642395,1.9581999999880821,1.9795999999642362,1.9960999999642368,2.012099999964242,2.02769999998808,2.0456999999880807,2.0626999999880837,2.0787999999523166,2.0966999999880827,2.1082999999523153,2.124899999976158,2.14709999996424,2.1592999999523173,2.1748999999761622,2.195799999952321,2.2146999999880776,2.229699999988078,2.24589999997616,2.2581999999880793,2.2748999999761566,2.292500000000004,2.308699999988079,2.3306999999880773,2.3415000000000035,2.3581999999880807,2.378199999988084,2.3915000000000006,2.408199999988078,2.42479999995232,2.4423999999761605,2.4586999999880774,2.479199999988083,2.4950000000000045,2.511299999952321,2.5285999999642357,2.5450999999642363,2.5603999999761626,2.5784999999999982,2.597099999964236,2.6081999999880807,2.624799999952316,2.6415000000000006,2.658799999952315,2.67589999997616,2.6916999999880815,2.708199999988082,2.725099999964236,2.7447999999523205,2.7588999999761583,2.7748999999761566,2.791499999999999,2.809399999976158,2.824899999976161,2.8415000000000035,2.8583999999761573,2.8783999999761605,2.8938999999761563,2.908799999952315,2.92479999995232,2.9415999999642395,2.95809999996424,2.97679999995232,2.9950000000000045,3.0118999999761584,3.0270999999642356,3.0466999999880784,3.0625999999642417,3.0750999999642374,3.0917999999523147,3.115000000000002,3.1260999999642394,3.141899999976161,3.1646999999880805,3.175099999964239,3.1916999999880815,3.2132999999523193,3.2307999999523176,3.241500000000002,3.2580999999642373,3.278399999976159,3.2951999999880783,3.3115000000000023,3.3250999999642374,3.342500000000001,3.3580999999642387,3.374899999976158,3.392000000000003,3.4100000000000037,3.429000000000002,3.4460999999642397,3.4618999999761613,3.4792999999523175,3.496099999964237,3.512099999964242,3.5270999999642356,3.5458999999761573,3.5626999999880837,3.5795999999642376,3.5945000000000036,3.611799999952318,3.629399999976158,3.645699999988082,3.660399999976157,3.6785999999642414,3.691399999976163,3.708199999988082,3.7248999999761594,3.742099999964239,3.7580999999642373,3.7749999999999986,3.791399999976157,3.809099999964239,3.824799999952319,3.8415000000000035,3.8582999999523153,3.878699999988079,3.894899999976161,3.913399999976157,3.9285999999642414,3.9455999999642373,3.9582999999523167,3.9748999999761594,3.991500000000002,4.008299999952321,4.0248999999761566,4.042599999964239,4.058599999964237,4.0758999999761585,4.0915000000000035,4.108199999988081,4.124799999952316,4.141699999988077,4.15829999995232,4.174899999976162,4.192199999988084,4.208199999988082,4.225199999988078,4.241500000000002,4.258099999964237,4.275799999952319,4.295699999988081,4.314,4.330599999964242,4.343099999964238,4.363099999964241,4.378,4.391599999964242,4.410599999964241,4.425000000000004,4.443699999988084,4.4609999999999985,4.47529999995232,4.491599999964237,4.508199999988079,4.527999999999999,4.5417999999523175,4.558500000000002,4.578299999952321,4.591799999952315,4.608799999952318,4.625,4.646099999964235,4.662099999964241,4.675199999988081,4.691799999952316,4.708199999988082,4.727399999976157,4.741500000000002,4.758099999964237,4.779099999964238,4.791699999988083,4.80839999997616,4.827899999976161,4.84169999998808,4.858299999952315,4.875099999964242,4.894699999988077,4.90829999995232,4.925099999964239,4.944199999988079,4.958299999952317,4.980299999952315,4.991599999964237,5.008199999988079,5.0247999999523145,5.041499999999999,5.061199999988084,5.0773999999761585,5.091599999964238,5.108499999999999,5.124899999976158,5.141500000000001,5.161399999976162,5.175000000000004,5.194500000000005,5.208399999976159,5.225000000000001,5.24439999997616,5.258099999964237,5.2748999999761566,5.293599999964236,5.308199999988084,5.328899999976159,5.343799999952317,5.358099999964239,5.375199999988084,5.391500000000001,5.408199999988078,5.4246999999880785,5.441500000000005,5.45809999996424,5.477499999999999,5.491500000000002,5.511899999976158,5.529899999976159,5.544199999988081,5.558199999988084,5.575399999976163,5.596399999976157,5.611000000000004,5.625299999952318,5.641699999988077,5.66279999995232,5.678099999964239,5.693699999988084,5.7116999999880775,5.730399999976157,5.741899999976162,5.758299999952321,5.778500000000001,5.795799999952315,5.808299999952318,5.825000000000003,5.8443999999761616,5.858399999976157,5.875,5.895499999999998,5.910299999952315,5.925000000000004,5.945599999964237,5.9592999999523215,5.975999999999999,5.991599999964237,6.011399999976163,6.024999999999999,6.041699999988083,6.061799999952321,6.075299999952321,6.091599999964238,6.114799999952318,6.126599999964242,6.141699999988077,6.158399999976162,6.179399999976162,6.196199999988082,6.208299999952317,6.225000000000001,6.247699999988079,6.263799999952319,6.274999999999999,6.2917999999523175,6.311699999988079,6.326299999952319,6.344599999964238,6.362599999964239,6.374899999976158,6.391599999964242,6.409299999952317,6.431199999988081,6.4416999999880815,6.458500000000001,6.477699999988083,6.495199999988081,6.508399999976163,6.5295999999642405,6.547000000000004,6.5580999999642415,6.579500000000003,6.596299999952315,6.6121999999880785,6.629699999988084,6.646299999952319,6.662299999952317,6.6808999999761625,6.6916999999880815,6.70809999996424,6.725199999988078,6.743699999988081,6.758199999988079,6.775699999988078,6.791499999999999,6.808500000000002,6.824799999952319,6.8421999999880825,6.858199999988081,6.875,6.892299999952321,6.911500000000004,6.92479999995232,6.941500000000005,6.9616999999880775,6.980599999964241,6.996199999988079,7.011399999976163,7.028199999988082,7.045999999999999,7.061099999964242,7.079299999952319,7.097899999976157,7.108099999964239,7.124799999952316,7.14709999996424,7.158199999988078,7.174899999976162,7.191399999976163,7.208199999988082,7.225000000000001,7.2441999999880835,7.258699999988082,7.276299999952315,7.292500000000004,7.309399999976158,7.324899999976161,7.34169999998808,7.358099999964239,7.374799999952316,7.391399999976159,7.409199999988083,7.42479999995232,7.441500000000005,7.45809999996424,7.476099999964241,7.491500000000002,7.508099999964237,7.524999999999999,7.542099999964236,7.558299999952318,7.574799999952319,7.591399999976161,7.608199999988081,7.624899999976158,7.64219999998808,7.658599999964238,7.6752999999523155,7.691399999976163]","[1733033281068,1733033281099,1733033281110,1733033281129,1733033281149,1733033281156,1733033281169,1733033281187,1733033281203,1733033281219,1733033281236,1733033281252,1733033281270,1733033281286,1733033281302,1733033281319,1733033281339,1733033281355,1733033281370,1733033281386,1733033281403,1733033281419,1733033281436,1733033281452,1733033281469,1733033281486,1733033281503,1733033281519,1733033281536,1733033281553,1733033281569,1733033281589,1733033281603,1733033281619,1733033281636,1733033281652,1733033281669,1733033281690,1733033281704,1733033281719,1733033281736,1733033281753,1733033281769,1733033281786,1733033281802,1733033281824,1733033281839,1733033281853,1733033281869,1733033281886,1733033281905,1733033281919,1733033281936,1733033281953,1733033281970,1733033281986,1733033282002,1733033282019,1733033282038,1733033282052,1733033282069,1733033282086,1733033282102,1733033282119,1733033282137,1733033282156,1733033282173,1733033282186,1733033282203,1733033282219,1733033282236,1733033282252,1733033282269,1733033282286,1733033282304,1733033282319,1733033282336,1733033282353,1733033282369,1733033282389,1733033282407,1733033282423,1733033282439,1733033282453,1733033282469,1733033282486,1733033282506,1733033282519,1733033282536,1733033282552,1733033282569,1733033282586,1733033282602,1733033282619,1733033282636,1733033282652,1733033282669,1733033282686,1733033282707,1733033282722,1733033282738,1733033282753,1733033282769,1733033282786,1733033282802,1733033282819,1733033282837,1733033282852,1733033282869,1733033282886,1733033282902,1733033282919,1733033282936,1733033282952,1733033282969,1733033282986,1733033283003,1733033283019,1733033283041,1733033283057,1733033283073,1733033283089,1733033283107,1733033283124,1733033283140,1733033283158,1733033283169,1733033283186,1733033283208,1733033283220,1733033283236,1733033283257,1733033283276,1733033283291,1733033283307,1733033283319,1733033283336,1733033283353,1733033283370,1733033283392,1733033283402,1733033283419,1733033283439,1733033283452,1733033283469,1733033283486,1733033283503,1733033283520,1733033283540,1733033283556,1733033283572,1733033283590,1733033283606,1733033283621,1733033283639,1733033283658,1733033283669,1733033283686,1733033283702,1733033283720,1733033283737,1733033283753,1733033283769,1733033283786,1733033283806,1733033283820,1733033283836,1733033283852,1733033283870,1733033283886,1733033283902,1733033283919,1733033283939,1733033283955,1733033283970,1733033283986,1733033284003,1733033284019,1733033284038,1733033284056,1733033284073,1733033284088,1733033284108,1733033284124,1733033284136,1733033284153,1733033284176,1733033284187,1733033284203,1733033284226,1733033284236,1733033284253,1733033284274,1733033284292,1733033284302,1733033284319,1733033284339,1733033284356,1733033284372,1733033284386,1733033284403,1733033284419,1733033284436,1733033284453,1733033284471,1733033284490,1733033284507,1733033284523,1733033284540,1733033284557,1733033284573,1733033284588,1733033284607,1733033284624,1733033284640,1733033284655,1733033284673,1733033284690,1733033284707,1733033284721,1733033284740,1733033284752,1733033284769,1733033284786,1733033284803,1733033284819,1733033284836,1733033284852,1733033284870,1733033284886,1733033284902,1733033284919,1733033284940,1733033284956,1733033284974,1733033284990,1733033285007,1733033285019,1733033285036,1733033285052,1733033285069,1733033285086,1733033285103,1733033285119,1733033285137,1733033285152,1733033285169,1733033285186,1733033285203,1733033285219,1733033285236,1733033285253,1733033285269,1733033285286,1733033285302,1733033285319,1733033285337,1733033285357,1733033285375,1733033285392,1733033285404,1733033285424,1733033285439,1733033285453,1733033285471,1733033285486,1733033285505,1733033285522,1733033285536,1733033285553,1733033285569,1733033285589,1733033285603,1733033285619,1733033285639,1733033285653,1733033285670,1733033285686,1733033285707,1733033285723,1733033285736,1733033285753,1733033285769,1733033285788,1733033285802,1733033285819,1733033285840,1733033285853,1733033285869,1733033285889,1733033285903,1733033285919,1733033285936,1733033285956,1733033285969,1733033285986,1733033286005,1733033286019,1733033286041,1733033286053,1733033286069,1733033286086,1733033286102,1733033286122,1733033286138,1733033286153,1733033286169,1733033286186,1733033286202,1733033286222,1733033286236,1733033286255,1733033286269,1733033286286,1733033286305,1733033286319,1733033286336,1733033286354,1733033286369,1733033286390,1733033286405,1733033286419,1733033286436,1733033286452,1733033286469,1733033286486,1733033286502,1733033286519,1733033286538,1733033286552,1733033286573,1733033286591,1733033286605,1733033286619,1733033286636,1733033286657,1733033286672,1733033286686,1733033286703,1733033286724,1733033286739,1733033286755,1733033286773,1733033286791,1733033286803,1733033286819,1733033286839,1733033286857,1733033286869,1733033286886,1733033286905,1733033286919,1733033286936,1733033286956,1733033286971,1733033286986,1733033287006,1733033287020,1733033287037,1733033287053,1733033287072,1733033287086,1733033287103,1733033287123,1733033287136,1733033287153,1733033287176,1733033287187,1733033287203,1733033287219,1733033287240,1733033287257,1733033287269,1733033287286,1733033287309,1733033287325,1733033287336,1733033287353,1733033287373,1733033287387,1733033287406,1733033287424,1733033287436,1733033287453,1733033287470,1733033287492,1733033287503,1733033287519,1733033287539,1733033287556,1733033287569,1733033287590,1733033287608,1733033287619,1733033287640,1733033287657,1733033287673,1733033287691,1733033287707,1733033287723,1733033287742,1733033287753,1733033287769,1733033287786,1733033287805,1733033287819,1733033287837,1733033287852,1733033287869,1733033287886,1733033287903,1733033287919,1733033287936,1733033287953,1733033287972,1733033287986,1733033288002,1733033288023,1733033288041,1733033288057,1733033288072,1733033288089,1733033288107,1733033288122,1733033288140,1733033288159,1733033288169,1733033288186,1733033288208,1733033288219,1733033288236,1733033288252,1733033288269,1733033288286,1733033288305,1733033288320,1733033288337,1733033288353,1733033288370,1733033288386,1733033288403,1733033288419,1733033288436,1733033288452,1733033288470,1733033288486,1733033288502,1733033288519,1733033288537,1733033288552,1733033288569,1733033288586,1733033288603,1733033288619,1733033288636,1733033288652,1733033288669,1733033288686,1733033288703,1733033288719,1733033288736,1733033288752]","[[950.2,452.1],[950.2,452.1],[976,422.8],[976,422.8],[997.2,417.1],[997.2,417.1],[1024.1,379.7],[1003.8,387.1],[1003.8,387.1],[1047.8,333.7],[1043,301],[1063,278.1],[1063,278.1],[1070.5,272],[1074.9,264.8],[1062.7,267.4],[1057.3,263.8],[1033.6,241.9],[1010.9,243.5],[1009,231.6],[988.6,239.7],[1004.3,266.1],[1010.1,300.8],[1042.8,331.2],[1060.5,350.8],[1060.5,350.8],[1102.8,358],[1102.8,358],[1099.5,352.4],[1099.5,352.4],[1099.8,359.2],[1119,382.3],[1119,382.3],[1101.5,417.7],[1084.3,448.5],[1045.7,468.4],[1037,472.4],[1019.1,468.3],[975.6,476.9],[924.1,488.1],[896.1,510.5],[896.1,510.5],[894.3,552.5],[868.3,565.1],[854.9,563.9],[839.6,562.3],[875.9,549.1],[879.3,536.1],[852.1,556],[855.5,569.7],[882.1,544.9],[908.2,528],[898.4,501.7],[886,499.2],[921.4,513],[943.9,538],[951.8,522.5],[950.5,529.2],[973.3,509.6],[996.1,490],[1002.8,523.6],[1003.2,554.8],[1034.2,565.9],[1066.6,570],[1043.5,568.5],[1064,551.3],[1077,549.3],[1077,549.3],[1086.2,552.2],[1086.2,552.2],[1086.2,566.9],[1105.3,561.5],[1105.3,561.5],[1083.8,554],[1094.2,534.4],[1097.8,520.3],[1101.9,507],[1141.5,488.6],[1145.7,480.7],[1134.6,504.6],[1129.9,543.5],[1135.7,559.6],[1097.4,590.1],[1093.8,596.1],[1084.8,588.4],[1095.9,573.5],[1069.6,591.8],[1067.5,612],[1053.8,633.9],[1056.5,620.5],[1034.1,606.2],[1009.2,588.3],[1012.3,575.7],[1014.2,575],[1001.8,583.2],[969.3,598.6],[992.1,581.6],[985.2,567],[984.2,520.3],[978.5,500.2],[985.4,484.4],[994.1,474.2],[1001.2,483],[1008.3,491.8],[1031.4,474.8],[1072.7,482],[1082.6,493.2],[1067.7,458.8],[1099.7,510.2],[1126.5,559.4],[1152.4,592.5],[1153.7,575.3],[1152.8,550.7],[1174.1,536.9],[1144.7,528.9],[1111.5,505.9],[1080.2,531.1],[1099.5,569.5],[1086.9,563.2],[1079.5,559.1],[1078.4,519.6],[1104.5,532.9],[1125.1,530.2],[1121.4,520.3],[1137.9,569],[1140,608.5],[1140,608.5],[1146,578.5],[1141,579],[1141,579],[1128.3,600.9],[1115.6,622.8],[1116.5,661.8],[1101.6,693.5],[1091.4,714.6],[1091.4,714.6],[1072.1,735.5],[1076.6,721],[1087.6,695.3],[1104.4,692.3],[1104.4,692.3],[1116.9,711.7],[1126.5,705.4],[1126.5,705.4],[1145.3,700.1],[1139.2,678.8],[1143.4,663.3],[1157.6,679.8],[1189,670.5],[1197.8,679],[1149.1,662.7],[1107.1,675.2],[1094.5,655],[1079.1,625.8],[1060,608.6],[1056.2,606.1],[1056.2,606.1],[1022,615],[979.4,607.3],[958.4,600.4],[945.3,583.9],[972.2,599],[991.9,579.9],[973.5,564.6],[974.7,547.8],[973.1,538.7],[975.3,533.5],[1011.5,513.9],[1016.2,498.5],[982.9,509.3],[970.4,498.4],[968.9,491.9],[945.5,529.4],[928.8,536.6],[895.9,554.1],[865.1,556.6],[831.6,576.4],[788,602],[786.9,618.7],[805.5,611.7],[805.8,645.5],[806.1,679.3],[846.2,656],[850.7,683.1],[850.7,683.1],[850,703.3],[877.8,693.7],[877.8,693.7],[883.7,701.8],[901.6,717.7],[901.6,717.7],[927.3,712.6],[938.8,734.6],[958.9,744.3],[958.9,744.3],[975.5,746.2],[981.8,765.5],[1028.3,787],[1080.7,809.8],[1091.5,850.9],[1106,856],[1106,856],[1104.9,853.1],[1089.4,857.6],[1076.5,867.8],[1052.5,871.2],[1056.4,877.1],[1053.2,884.1],[1021.1,894.8],[986.3,885],[977.1,873.2],[985.5,870.9],[1013.4,874.9],[1019.7,880.3],[1009.3,858.3],[1014.9,844],[1002,846.6],[971.8,848.5],[972.2,821.8],[976.7,811.3],[978.2,812.4],[978.2,812.4],[991.1,827.5],[984.7,818.6],[1007,827.4],[1007,827.4],[1020.1,857.1],[1058.4,869.2],[1075.3,870.6],[1075.3,870.6],[1084.4,862.3],[1095.6,869.7],[1116,875],[1122.1,876.5],[1104.2,859.1],[1099.5,848.5],[1096.9,834.1],[1096.9,834.1],[1122.5,812.5],[1095.2,790.6],[1091.1,759.7],[1112.1,739.2],[1118,715.5],[1105.5,713.7],[1114.5,706.8],[1114.5,706.8],[1122,712.8],[1122,712.8],[1130.8,730.8],[1130.8,730.8],[1128.7,723.4],[1110.8,745.9],[1096.9,796],[1057,837.6],[1046,888.2],[1009.6,919.3],[982.9,914.4],[956.8,908.9],[956.8,908.9],[899,886.6],[899,886.6],[867.4,845.7],[849.2,843.1],[846.8,810.6],[859,764.1],[892.3,738.4],[914.5,707.1],[954.6,683.5],[994.8,663.1],[1012.9,648.4],[1012.9,648.4],[1079.9,671.5],[1116.2,717],[1116.8,732.9],[1116.8,732.9],[1126.4,748.3],[1165.7,735.2],[1202.2,717.9],[1194.1,737.2],[1213.2,750.5],[1213.2,750.5],[1209.5,746.3],[1209.5,746.3],[1223.6,763.5],[1237.4,713.7],[1258.4,656.3],[1258.4,656.3],[1314.2,622.4],[1338.5,592.3],[1310.4,593],[1310.4,593],[1295.6,569.2],[1310.9,506],[1306.5,450.7],[1306.5,450.7],[1327.3,437.6],[1327.3,437.6],[1306.2,390.1],[1300.5,381.7],[1300.5,381.7],[1293.7,369.7],[1271.7,353.9],[1282.3,346.3],[1266.9,343.9],[1281.7,372.9],[1281.7,372.9],[1288.2,400.1],[1288.2,400.1],[1284.6,421.5],[1299.5,445.5],[1327.5,458.7],[1327.5,458.7],[1331.7,430],[1334.9,446.1],[1325.1,457],[1325.1,457],[1318.2,425.8],[1331.8,403.4],[1311.8,360.4],[1298.3,327.6],[1291.5,366.9],[1263.2,391.9],[1290.2,399.3],[1290.2,399.3],[1322.8,447.5],[1276.9,429.6],[1262.1,415.3],[1219.1,415.7],[1203,404.8],[1193.6,416.7],[1181.7,439.7],[1173.2,396.4],[1173.2,396.4],[1184.2,302.8],[1138.3,257.2],[1101.8,224.1],[1199.3,253.1],[1226.6,241.4],[1273.7,218.3],[1315.3,187.2],[1333.9,225],[1353.5,242.7],[1374.8,216.5],[1403.1,241],[1403.1,241],[1437.8,230.7],[1459.6,226.5],[1454,199.7],[1454,199.7],[1431.4,224],[1429.6,280.8],[1453.6,320.5],[1453.6,320.5],[1476.2,277.5],[1466.6,266.8],[1455.3,300],[1438.7,328.6],[1398.2,402.4],[1387.4,439.9],[1346.9,459.9],[1346.9,459.9],[1392.5,443.2],[1392.5,443.2],[1385.2,442.7],[1385.2,442.7],[1342.3,455.8],[1325.3,435.7],[1325.3,435.7],[1309.3,438.4],[1309.3,438.4],[1303.8,451.7],[1268,448.1],[1268,448.1],[1275.7,434.9],[1243.8,432],[1269,416.9],[1269,416.9],[1223,451.6],[1178.1,484.1],[1157.2,487.5],[1108.3,524.2],[1102,505.5],[1102,505.5],[1097.3,503.1],[1132.9,497.8],[1155.1,485.1],[1155.1,485.1],[1132.1,487.6],[1058.2,506.3],[1058.2,506.3],[1053.1,508.3],[1048.3,475.6],[1031.2,479.4],[1031.2,479.4],[1023.8,502.4],[1006.7,505.9],[972.7,460],[912.3,460.6],[863.9,470.1],[883.3,480.5],[867,474.2],[867,474.2],[848.8,483.3],[869.6,509.3],[897.6,512],[897.6,512],[925.8,500.1],[964.1,509],[1004.5,549],[1040.1,566.5],[1060.8,560.5],[1092.4,573.4],[1112.4,593.8],[1138.4,620.2],[1152.1,616.5],[1169.2,649],[1167.2,688.9],[1153.4,727.8],[1137,731.1],[1115.5,735],[1098.5,729.5],[1061.2,696.5],[1036.9,664.9],[992.1,617],[960.4,615.1],[905.7,586.8],[905.7,586.8],[891.1,559.1],[873.4,520.3],[873.4,520.3],[868.7,497.9],[870.8,481],[877.7,474],[884.8,466.9],[920.6,460.5],[937.7,450.8],[954.5,440.6],[981.7,439.6],[1004.7,421.7],[1025,419],[1015.9,441.3],[1011,453.2],[1011,453.2],[987.7,474.9],[955.6,475.8],[922.9,479.8],[922.9,479.8],[916.5,492.2],[896.8,486.4],[896.8,486.4],[902.7,518.2],[889.4,515.9],[871.9,526.4],[876.1,522.5],[876.1,522.5],[853.4,510.7],[828.5,541],[835.5,567.4],[843.4,611.2],[836.5,624.3],[845.3,667.5],[807.7,656.2]]","[0,0.151169218]","[0.151169218,0.151169218]","[-0.151169218,-0.151169218]","[-0.151169218,0]","[0,-0.151169218]","[0.151169218,-0.151169218]","[0,0]","[0.151169218,0]",0,0,0,0,1,1,Smartphone,7,7,15,9
